Folder: Figs_alphaMnO2_OER_Tafel_sleope/Figure_codes/Fig_3-5/workspace_calculate_alpha_eff (part 36)

File: 20221101_1-115_003_TrumpetPlot_ParaChange_from10_every3_16_CV_C01_63.csv
mode,ox/red,error,control changes,counter inc.,time/s,control/V,Ewe/V,<I>/mA,cycle number,(Q-Qo)/C,I Range,P/W,log(|I|),Tafel slope mV/dec,alpha_eff,E-IR/V,
2,0,0,1,0,42602.9,2.44065e-05,-0.000325324,-0.039607,64,0.0000000E+000,10,1.28851e-08,-4.40223, , ,-0.000307896,
2,1,0,1,0,42606.6,0.0187763,0.0184318,0.26462,64,0.00088913,10,4.87742e-06,-3.57738,0.187884,0.314023,0.0183154,
2,1,0,0,0,42610.4,0.0377538,0.0374527,0.329481,64,0.00207641,10,1.234e-05,-3.48217,0.219344,0.268984,0.0373077,
2,1,0,1,0,42614.2,0.0567309,0.0564223,0.388173,64,0.00350455,10,2.19016e-05,-3.41097,0.372353,0.158452,0.0562515,
2,1,0,0,0,42618,0.075708,0.0753951,0.431382,64,0.00512911,10,3.25241e-05,-3.36514,0.718227,0.0821467,0.0752053,
2,1,0,1,0,42621.8,0.094685,0.09437,0.483514,64,0.00690742,10,4.56293e-05,-3.31559,0.274569,0.214882,0.0941573,
2,1,0,0,0,42625.6,0.113662,0.113299,0.577096,64,0.00898101,10,6.53846e-05,-3.23875,0.368598,0.160066,0.113045,
2,1,0,1,0,42629.4,0.132639,0.132323,0.614539,64,0.0113266,10,8.13177e-05,-3.21145,-0.782752,-0.0753751,0.132053,
2,1,0,1,0,42633.2,0.151617,0.15128,0.415497,64,0.0134073,10,6.28565e-05,-3.38143,-0.0855092,-0.689985,0.151098,
2,1,0,1,0,42637,0.170594,0.170297,0.320145,64,0.0147998,10,5.45198e-05,-3.49465,-0.393032,-0.150115,0.170157,
2,1,0,1,0,42640.8,0.189571,0.189239,0.301456,64,0.0160233,10,5.70473e-05,-3.52078,-0.701288,-0.0841309,0.189107,
2,1,0,1,0,42644.6,0.208547,0.208236,0.292644,64,0.0172004,10,6.09391e-05,-3.53366,-2.25922,-0.0261152,0.208108,
2,1,0,1,0,42648.4,0.227524,0.227208,0.286357,64,0.0183504,10,6.50626e-05,-3.54309,-1.00238,-0.0588597,0.227082,
2,1,0,1,0,42652.2,0.246501,0.246212,0.282348,64,0.0194828,10,6.95176e-05,-3.54921,-1.16614,-0.0505943,0.246088,
2,1,0,1,0,42655.9,0.265479,0.265161,0.280062,64,0.0206003,10,7.42617e-05,-3.55275,-3.18516,-0.0185234,0.265038,
2,1,0,0,0,42659.7,0.284456,0.284124,0.275776,64,0.0217032,10,7.83548e-05,-3.55944,-4.38443,-0.0134567,0.284003,
2,1,0,1,0,42663.5,0.303433,0.303153,0.271856,64,0.0227894,10,8.2414e-05,-3.56566,-3.40304,-0.0173374,0.303034,
2,1,0,0,0,42667.3,0.32241,0.322069,0.268175,64,0.0238604,10,8.63708e-05,-3.57158,-2.34847,-0.0251227,0.321951,
2,1,0,1,0,42671.1,0.341387,0.341057,0.266067,64,0.0249188,10,9.07438e-05,-3.57501,-12.2496,-0.00481649,0.34094,
2,1,0,0,0,42674.9,0.360364,0.360051,0.262431,64,0.025966,10,9.44886e-05,-3.58098,-1.81981,-0.0324209,0.359935,
2,1,0,1,0,42678.7,0.379342,0.37906,0.259614,64,0.0270008,10,9.84094e-05,-3.58567,-2.67327,-0.0220704,0.378946,
2,1,0,1,0,42682.5,0.398319,0.39803,0.257637,64,0.0280271,10,0.000102547,-3.58899,-5.52251,-0.0106835,0.397917,
2,1,0,1,0,42686.3,0.417295,0.416966,0.257444,64,0.0290471,10,0.000107345,-3.58932,-6.53392,-0.0090298,0.416853,
2,1,0,1,0,42690.1,0.436272,0.435958,0.255887,64,0.0300614,10,0.000111556,-3.59195,24.104,0.00244772,0.435845,
2,1,0,1,0,42693.9,0.455249,0.454945,0.256207,64,0.0310718,10,0.00011656,-3.59141,-35.38,-0.00166761,0.454832,
2,1,0,1,0,42697.7,0.474226,0.47393,0.256088,64,0.0320812,10,0.000121368,-3.59161,1.69637,0.0347802,0.473818,
2,1,0,1,0,42701.5,0.493203,0.492906,0.258693,64,0.0330959,10,0.000127511,-3.58722,5.0208,0.0117511,0.492793,
2,1,0,1,0,42705.3,0.512181,0.511828,0.26232,64,0.0341214,10,0.000134262,-3.58117,2.88242,0.0204689,0.511712,
2,1,0,0,0,42709.1,0.531158,0.530865,0.268288,64,0.0351631,10,0.000142425,-3.5714,12.236,0.00482182,0.530747,
2,1,0,1,0,42712.9,0.550135,0.549824,0.27705,64,0.0362303,10,0.000152329,-3.55744,0.915254,0.064463,0.549702,
2,1,0,0,0,42716.7,0.569112,0.568769,0.288744,64,0.0373361,10,0.000164229,-3.53949,0.819284,0.0720141,0.568642,
2,1,0,1,0,42720.5,0.588089,0.587762,0.309728,64,0.0385025,10,0.000182046,-3.50902,0.505893,0.116625,0.587626,
2,1,0,0,0,42724.3,0.607066,0.606754,0.343789,64,0.0397692,10,0.000208595,-3.46371,0.325786,0.1811,0.606603,
2,1,0,1,0,42728.1,0.626044,0.625734,0.410945,64,0.0412212,10,0.000257142,-3.38622,0.191183,0.308604,0.625553,
2,1,0,1,0,42731.9,0.64502,0.644711,0.545964,64,0.0430418,10,0.000351989,-3.26284,0.12953,0.455491,0.64447,
2,1,0,1,0,42735.7,0.663997,0.663704,0.826113,64,0.0456156,10,0.000548294,-3.08296,0.0935481,0.630692,0.66334,
2,1,0,1,0,42739.4,0.682974,0.682698,1.36873,64,0.0497095,10,0.000934431,-2.86368,0.0824095,0.715937,0.682096,
2,1,0,1,0,42743.2,0.701951,0.701661,2.29655,64,0.0565633,10,0.0016114,-2.63892,0.0844259,0.698838,0.70065,
2,1,0,1,0,42747,0.720928,0.720641,3.67118,64,0.0677765,10,0.0026456,-2.43519,0.0971439,0.607346,0.719026,
2,1,0,1,0,42750.8,0.739905,0.739638,5.51124,64,0.085085,10,0.00407632,-2.25875,0.109664,0.538007,0.737213,
2,1,0,1,0,42754.6,0.758883,0.758614,7.86917,64,0.110337,10,0.00596966,-2.10407,0.123425,0.478022,0.755152,
2,1,0,0,0,42758.4,0.77786,0.777568,10.8679,64,0.145684,10,0.0084505,-1.96386,0.130477,0.452185,0.772786,
2,1,0,1,0,42762.2,0.796837,0.796553,14.7859,64,0.194126,10,0.0117778,-1.83015,0.138604,0.425673,0.790047,
2,1,0,0,0,42766,0.815814,0.815529,19.8718,64,0.259463,10,0.016206,-1.70176,0.129881,0.454261,0.806785,
2,1,0,1,0,42769.8,0.834791,0.834553,25.8839,64,0.346241,10,0.0216015,-1.58697,0.166915,0.353474,0.823164,
2,1,0,1,0,42773.5,0.846726,0.846443,29.4329,64,0.452873,10,0.0249133,-1.53117,0.109874,0.536979,0.833493,
2,1,0,1,0,42777.3,0.827749,0.827542,21.872,64,0.549712,10,0.0181,-1.66011,0.114085,0.51716,0.817918,
2,1,0,1,0,42781.1,0.808772,0.808474,16.1015,64,0.621363,10,0.0130177,-1.79313,0.120119,0.49118,0.801389,
2,1,0,1,0,42784.9,0.789795,0.789536,11.5413,64,0.673403,10,0.00911229,-1.93774,0.115118,0.512517,0.784457,
2,1,0,1,0,42788.7,0.770818,0.770564,8.09375,64,0.710313,10,0.00623675,-2.09185,0.109744,0.537615,0.767003,
2,1,0,1,0,42792.5,0.751841,0.75156,5.51494,64,0.735864,10,0.00414481,-2.25846,0.104491,0.564639,0.749134,
2,1,0,1,0,42796.3,0.732865,0.73259,3.60055,64,0.752953,10,0.00263772,-2.44363,0.0915944,0.644144,0.731006,
2,1,0,1,0,42800.1,0.713887,0.713609,2.20438,64,0.763767,10,0.00157307,-2.65671,0.079749,0.739821,0.712639,
2,1,0,0,0,42803.9,0.69491,0.694623,1.21854,64,0.770109,10,0.000846425,-2.91416,0.0660923,0.89269,0.694086,
2,1,0,1,0,42807.7,0.675933,0.675652,0.58348,64,0.773398,10,0.00039423,-3.23397,0.0535391,1.102,0.675395,
2,1,0,0,0,42811.5,0.656956,0.656639,0.227052,64,0.774832,10,0.000149091,-3.64387,0.0398905,1.47905,0.656539,
2,1,0,1,0,42815.3,0.637979,0.637699,0.0495861,64,0.775279,10,3.1621e-05,-4.30464,0.0181147,3.25703,0.637677,
2,0,0,0,0,42819.1,0.619002,0.618695,-0.0289196,64,0.775261,10,-1.78925e-05,-4.53881,-0.0278466,-2.11875,0.618708,
2,0,0,1,0,42822.8,0.600024,0.599727,-0.0650625,64,0.775038,10,-3.90197e-05,-4.18667,-0.129748,-0.454728,0.599756,
2,0,0,1,0,42826.6,0.581047,0.580769,-0.081418,64,0.774723,10,-4.7285e-05,-4.08928,-0.362456,-0.162778,0.580804,
2,0,0,1,0,42830.4,0.56207,0.56176,-0.0899124,64,0.774361,10,-5.05092e-05,-4.04618,-0.564214,-0.10457,0.5618,
2,0,0,1,0,42834.2,0.543093,0.542767,-0.0970704,64,0.773971,10,-5.26866e-05,-4.01291,-1.00447,-0.0587377,0.54281,
2,0,0,1,0,42838,0.524116,0.523823,-0.10203,64,0.773559,10,-5.34459e-05,-3.99127,14.707,0.00401171,0.523868,
2,0,0,1,0,42841.8,0.505139,0.504866,-0.106696,64,0.773128,10,-5.3867e-05,-3.97185,-0.76439,-0.0771857,0.504913,
2,0,0,1,0,42845.6,0.486162,0.485883,-0.111998,64,0.772675,10,-5.44178e-05,-3.95079,-0.780266,-0.0756152,0.485932,
2,0,0,1,0,42849.4,0.467185,0.46687,-0.118737,64,0.772199,10,-5.54349e-05,-3.92541,-0.566919,-0.104071,0.466922,
2,0,0,0,0,42853.2,0.448208,0.447905,-0.126414,64,0.771695,10,-5.66213e-05,-3.89821,-0.827987,-0.0712572,0.447961,
2,0,0,1,0,42857,0.429231,0.428946,-0.13543,64,0.771161,10,-5.80922e-05,-3.86829,-6.79765,-0.00867947,0.429006,
2,0,0,0,0,42860.8,0.410254,0.40992,-0.143005,64,0.770592,10,-5.86206e-05,-3.84465,-1.73001,-0.0341038,0.409983,
2,0,0,1,0,42864.6,0.391277,0.390978,-0.153151,64,0.769987,10,-5.98785e-05,-3.81488,-0.545129,-0.108231,0.391046,
2,0,0,0,0,42868.4,0.3723,0.372015,-0.164371,64,0.76934,10,-6.11486e-05,-3.78417,-0.726558,-0.0812048,0.372088,
2,0,0,1,0,42872.2,0.353322,0.353012,-0.174038,64,0.768654,10,-6.14376e-05,-3.75936,-0.52751,-0.111846,0.353089,
2,0,0,1,0,42876,0.334345,0.333989,-0.185356,64,0.767925,10,-6.19069e-05,-3.73199,-0.602262,-0.097964,0.33407,
2,0,0,1,0,42879.8,0.315368,0.315061,-0.195534,64,0.767152,10,-6.16052e-05,-3.70878,-0.711742,-0.0828952,0.315147,
2,0,0,1,0,42883.6,0.296391,0.296102,-0.209051,64,0.766334,10,-6.19004e-05,-3.67975,-0.630478,-0.0935798,0.296194,
2,0,0,1,0,42887.4,0.277414,0.277091,-0.221016,64,0.765467,10,-6.12415e-05,-3.65558,-1.0103,-0.0583985,0.277188,
2,0,0,1,0,42891.2,0.258437,0.258147,-0.233483,64,0.764552,10,-6.02729e-05,-3.63174,-0.588882,-0.10019,0.25825,
2,0,0,1,0,42895,0.239461,0.239159,-0.244943,64,0.763589,10,-5.85805e-05,-3.61093,-1.03425,-0.0570462,0.239267,
2,0,0,1,0,42898.8,0.220483,0.220171,-0.257093,64,0.762582,10,-5.66045e-05,-3.58991,-0.50398,-0.117068,0.220284,
2,0,0,0,0,42902.5,0.201506,0.20121,-0.270755,64,0.761527,10,-5.44786e-05,-3.56742,-0.453665,-0.130052,0.201329,
2,0,0,1,0,42906.3,0.182529,0.18218,-0.289883,64,0.760409,10,-5.28109e-05,-3.53778,-0.49851,-0.118353,0.182308,
2,0,0,0,0,42910.1,0.163552,0.163271,-0.324246,64,0.759198,10,-5.294e-05,-3.48913,-0.295963,-0.199349,0.163414,
2,0,0,1,0,42913.9,0.144575,0.144277,-0.420643,64,0.757762,10,-6.06891e-05,-3.37609,-0.105242,-0.560611,0.144462,
2,0,0,0,0,42917.7,0.125598,0.125276,-0.636644,64,0.755692,10,-7.97559e-05,-3.1961,-0.181089,-0.325807,0.125556,
2,0,0,1,0,42921.5,0.10662,0.106285,-0.686955,64,0.753058,10,-7.30133e-05,-3.16307,5.85778,0.0100721,0.106588,
2,0,0,1,0,42925.3,0.0876433,0.0873489,-0.653763,64,0.750442,10,-5.71055e-05,-3.18458,0.658231,0.0896342,0.0876365,
2,0,0,1,0,42929.1,0.0686664,0.0683295,-0.613646,64,0.747975,10,-4.19301e-05,-3.21208,0.683055,0.0863766,0.0685995,
2,0,0,1,0,42932.9,0.0496895,0.0493453,-0.570864,64,0.74566,10,-2.81694e-05,-3.24347,0.628265,0.0939094,0.0495964,
2,0,0,1,0,42936.7,0.0307126,0.0303706,-0.521777,64,0.743516,10,-1.58467e-05,-3.28252,0.510781,0.115509,0.0306002,
2,0,0,1,0,42940.5,0.0117356,0.0114456,-0.491357,64,0.741532,10,-5.62386e-06,-3.3086,1.69739,0.0347593,0.0116618,
2,0,0,1,0,42942.8,0.000274105,-0.00016666,-0.493558,64,0.740365,10,8.22565e-08,-3.30666, , ,5.05054e-05,

File: 20221101_1-115_003_TrumpetPlot_ParaChange_from10_every3_16_CV_C01_64.csv
mode,ox/red,error,control changes,counter inc.,time/s,control/V,Ewe/V,<I>/mA,cycle number,(Q-Qo)/C,I Range,P/W,log(|I|),Tafel slope mV/dec,alpha_eff,E-IR/V,
2,0,0,0,0,42972.9,2.44065e-05,-0.000306236,-0.098758,65,0.0000000E+000,10,3.02433e-08,-4.00543, , ,-0.000262783,
2,1,0,1,0,42976.6,0.0187763,0.0184053,0.217457,65,0.000722102,10,4.00235e-06,-3.66263,0.163086,0.361772,0.0183096,
2,1,0,1,0,42980.4,0.0377538,0.0374114,0.282225,65,0.00173628,10,1.05584e-05,-3.5494,0.170787,0.345459,0.0372872,
2,1,0,0,0,42984.2,0.0567309,0.0563842,0.34337,65,0.00299808,10,1.93606e-05,-3.46424,0.287064,0.205529,0.0562331,
2,1,0,1,0,42988,0.075708,0.0753442,0.3899,65,0.00446736,10,2.93767e-05,-3.40905,0.535294,0.11022,0.0751727,
2,1,0,0,0,42991.8,0.094685,0.0943584,0.444715,65,0.00610395,10,4.19626e-05,-3.35192,0.253911,0.232365,0.0941627,
2,1,0,1,0,42995.6,0.113662,0.113348,0.54252,65,0.00804476,10,6.14936e-05,-3.26558,0.312294,0.188925,0.113109,
2,1,0,0,0,42999.4,0.132639,0.132336,0.583964,65,0.0102693,10,7.72793e-05,-3.23361,-0.624753,-0.0944373,0.132079,
2,1,0,1,0,43003.2,0.151617,0.151298,0.378561,65,0.0122315,10,5.72757e-05,-3.42186,-0.0755111,-0.781342,0.151132,
2,1,0,1,0,43007,0.170594,0.170291,0.286083,65,0.0134987,10,4.87173e-05,-3.54351,-0.291673,-0.202281,0.170165,
2,1,0,1,0,43010.8,0.189571,0.189234,0.267524,65,0.0145988,10,5.06247e-05,-3.57264,-0.780683,-0.0755749,0.189116,
2,1,0,1,0,43014.6,0.208547,0.208249,0.258568,65,0.0156519,10,5.38465e-05,-3.58743,-1.34648,-0.0438179,0.208135,
2,1,0,1,0,43018.4,0.227524,0.227194,0.252938,65,0.0166779,10,5.74661e-05,-3.59699,-1.7951,-0.0328672,0.227083,
2,1,0,1,0,43022.2,0.246501,0.246185,0.247871,65,0.0176834,10,6.10221e-05,-3.60577,-1.19006,-0.0495771,0.246076,
2,1,0,0,0,43025.9,0.265479,0.265163,0.243925,65,0.0186713,10,6.46799e-05,-3.61274,-0.996803,-0.0591892,0.265056,
2,1,0,1,0,43029.7,0.284456,0.284175,0.239955,65,0.0196436,10,6.81894e-05,-3.61987,-1.90173,-0.0310243,0.28407,
2,1,0,0,0,43033.5,0.303433,0.303114,0.23639,65,0.0205997,10,7.1653e-05,-3.62637,155.272,0.000379979,0.30301,
2,1,0,1,0,43037.3,0.32241,0.322108,0.23251,65,0.0215405,10,7.48934e-05,-3.63356,5.09722,0.0115749,0.322006,
2,1,0,0,0,43041.1,0.341387,0.341061,0.229966,65,0.0224677,10,7.84324e-05,-3.63834,-3.75673,-0.0157052,0.34096,
2,1,0,1,0,43044.9,0.360364,0.360075,0.228563,65,0.0233842,10,8.22998e-05,-3.64099,-2.62603,-0.0224674,0.359974,
2,1,0,1,0,43048.7,0.379342,0.379044,0.225884,65,0.0242929,10,8.56199e-05,-3.64611,-2.99962,-0.0196692,0.378945,
2,1,0,1,0,43052.5,0.398319,0.398004,0.22405,65,0.0251932,10,8.91727e-05,-3.64966,-13.5236,-0.00436274,0.397905,
2,1,0,1,0,43056.3,0.417295,0.416984,0.223941,65,0.0260867,10,9.33798e-05,-3.64987,-38.5326,-0.00153117,0.416885,
2,1,0,1,0,43060.1,0.436272,0.43597,0.223934,65,0.0269765,10,9.76286e-05,-3.64988,5.25819,0.0112206,0.435872,
2,1,0,1,0,43063.9,0.455249,0.454982,0.224108,65,0.0278655,10,0.000101965,-3.64954,5.50029,0.0107267,0.454884,
2,1,0,1,0,43067.7,0.474226,0.473906,0.224809,65,0.028757,10,0.000106538,-3.64819,1.11312,0.0530041,0.473807,
2,1,0,1,0,43071.5,0.493203,0.492896,0.227309,65,0.0296538,10,0.00011204,-3.64338,2.22246,0.0265472,0.492796,
2,1,0,0,0,43075.3,0.512181,0.51186,0.231827,65,0.0305629,10,0.000118663,-3.63484,1.09826,0.0537214,0.511758,
2,1,0,1,0,43079.1,0.531158,0.530875,0.237902,65,0.031492,10,0.000126296,-3.6236,2.3182,0.0254508,0.53077,
2,1,0,0,0,43082.9,0.550135,0.54983,0.247073,65,0.0324489,10,0.000135848,-3.60718,0.805297,0.0732649,0.549722,
2,1,0,1,0,43086.7,0.569112,0.568817,0.25975,65,0.0334451,10,0.00014775,-3.58544,1.17959,0.0500175,0.568703,
2,1,0,0,0,43090.5,0.588089,0.587809,0.280857,65,0.0345039,10,0.00016509,-3.55151,0.487731,0.120968,0.587685,
2,1,0,1,0,43094.3,0.607066,0.606777,0.316319,65,0.0356663,10,0.000191935,-3.49987,0.309708,0.190502,0.606638,
2,1,0,1,0,43098.1,0.626044,0.625781,0.38241,65,0.0370146,10,0.000239305,-3.41747,0.184171,0.320355,0.625613,
2,1,0,1,0,43101.9,0.64502,0.644715,0.51872,65,0.038731,10,0.000334427,-3.28507,0.113685,0.518979,0.644487,
2,1,0,1,0,43105.7,0.663997,0.663727,0.800017,65,0.0412066,10,0.000530993,-3.0969,0.0870558,0.677726,0.663375,
2,1,0,1,0,43109.4,0.682974,0.682681,1.35089,65,0.0452188,10,0.000922226,-2.86938,0.0788974,0.747807,0.682087,
2,1,0,1,0,43113.2,0.701951,0.701667,2.29628,65,0.0520352,10,0.00161122,-2.63897,0.0821072,0.718573,0.700656,
2,1,0,1,0,43117,0.720928,0.720603,3.70509,65,0.0633069,10,0.0026699,-2.4312,0.0933839,0.6318,0.718973,
2,1,0,1,0,43120.8,0.739905,0.739579,5.60944,65,0.0808556,10,0.00414862,-2.25108,0.105911,0.557069,0.737111,
2,1,0,0,0,43124.6,0.758883,0.758635,8.07905,65,0.106674,10,0.00612905,-2.09264,0.118581,0.497549,0.75508,
2,1,0,1,0,43128.4,0.77786,0.777586,11.305,65,0.143206,10,0.00879061,-1.94673,0.121061,0.487358,0.772611,
2,1,0,0,0,43132.2,0.796837,0.796602,15.6518,65,0.193961,10,0.0124683,-1.80543,0.120492,0.48966,0.789715,
2,1,0,1,0,43136,0.815814,0.815516,21.4382,65,0.263979,10,0.0174832,-1.66881,0.125008,0.471968,0.806084,
2,1,0,0,0,43139.8,0.834791,0.834524,28.2785,65,0.358139,10,0.0235991,-1.54854,0.141308,0.417526,0.822082,
2,1,0,0,0,43143.5,0.846726,0.846462,32.0127,65,0.47464,10,0.0270976,-1.49468,0.102886,0.573449,0.832377,
2,1,0,1,0,43147.3,0.827749,0.827516,23.7182,65,0.579547,10,0.0196272,-1.62492,0.120917,0.487938,0.81708,
2,1,0,1,0,43151.1,0.808772,0.808482,17.2832,65,0.656906,10,0.0139732,-1.76238,0.114311,0.516138,0.800878,
2,1,0,1,0,43154.9,0.789795,0.789476,12.2712,65,0.712538,10,0.00968785,-1.91111,0.111622,0.528567,0.784077,
2,1,0,1,0,43158.7,0.770818,0.770535,8.50879,65,0.751562,10,0.00655632,-2.07013,0.107163,0.550564,0.766791,
2,1,0,1,0,43162.5,0.751841,0.751607,5.74695,65,0.77831,10,0.00431945,-2.24056,0.10084,0.585083,0.749078,
2,1,0,1,0,43166.3,0.732865,0.7326,3.73159,65,0.796064,10,0.00273377,-2.42811,0.0891158,0.66206,0.730959,
2,1,0,0,0,43170.1,0.713887,0.713602,2.265,65,0.807251,10,0.00161631,-2.64493,0.078117,0.755277,0.712605,
2,1,0,1,0,43173.9,0.69491,0.694645,1.23773,65,0.813733,10,0.000859782,-2.90737,0.0645728,0.913698,0.6941,
2,1,0,0,0,43177.7,0.675933,0.675631,0.582676,65,0.817048,10,0.000393674,-3.23457,0.05106,1.1555,0.675374,
2,1,0,1,0,43181.5,0.656956,0.656677,0.214779,65,0.818451,10,0.000141041,-3.66801,0.0350594,1.68286,0.656583,
2,1,0,0,0,43185.3,0.637979,0.637718,0.0325178,65,0.818839,10,2.07372e-05,-4.48788,0.0113438,5.20108,0.637704,
2,0,0,1,0,43189.1,0.619002,0.618695,-0.0472512,65,0.818754,10,-2.92341e-05,-4.32559,-0.0411489,-1.43382,0.618716,
2,0,0,0,0,43192.8,0.600024,0.599713,-0.0831005,65,0.81846,10,-4.98365e-05,-4.0804,-0.161447,-0.365444,0.59975,
2,0,0,1,0,43196.6,0.581047,0.580741,-0.099394,65,0.818072,10,-5.77222e-05,-4.00264,-0.306695,-0.192374,0.580785,
2,0,0,1,0,43200.4,0.56207,0.561769,-0.107897,65,0.817638,10,-6.06133e-05,-3.96699,-0.375353,-0.157185,0.561817,
2,0,0,1,0,43204.2,0.543093,0.542798,-0.113691,65,0.817178,10,-6.17114e-05,-3.94427,-1.37299,-0.0429719,0.542848,
2,0,0,1,0,43208,0.524116,0.523781,-0.11934,65,0.816698,10,-6.25082e-05,-3.92321,-3.33946,-0.0176675,0.523833,
2,0,0,1,0,43211.8,0.505139,0.504842,-0.124164,65,0.816199,10,-6.26833e-05,-3.906,-0.794292,-0.0742799,0.504897,
2,0,0,1,0,43215.6,0.486162,0.485843,-0.128839,65,0.81568,10,-6.25955e-05,-3.88995,-2.75482,-0.021417,0.485899,
2,0,0,1,0,43219.4,0.467185,0.466893,-0.134901,65,0.81514,10,-6.29846e-05,-3.86998,-0.977114,-0.0603819,0.466953,
2,0,0,1,0,43223.2,0.448208,0.447897,-0.141615,65,0.814575,10,-6.34289e-05,-3.84889,-0.679433,-0.0868372,0.447959,
2,0,0,0,0,43227,0.429231,0.428957,-0.149106,65,0.813982,10,-6.39601e-05,-3.8265,-0.83818,-0.0703906,0.429023,
2,0,0,1,0,43230.8,0.410254,0.409897,-0.158234,65,0.813357,10,-6.48598e-05,-3.8007,-1.29892,-0.0454222,0.409967,
2,0,0,0,0,43234.6,0.391277,0.390931,-0.166819,65,0.812696,10,-6.52148e-05,-3.77775,-0.665058,-0.0887141,0.391004,
2,0,0,1,0,43238.4,0.3723,0.371974,-0.177143,65,0.811997,10,-6.58927e-05,-3.75167,-0.59478,-0.0991963,0.372052,
2,0,0,1,0,43242.2,0.353322,0.353015,-0.186986,65,0.811258,10,-6.60089e-05,-3.72819,-0.679079,-0.0868824,0.353098,
2,0,0,1,0,43246,0.334345,0.334031,-0.19818,65,0.810478,10,-6.61983e-05,-3.70294,-1.09292,-0.0539839,0.334118,
2,0,0,1,0,43249.8,0.315368,0.315029,-0.20894,65,0.809655,10,-6.58221e-05,-3.67998,-0.838488,-0.0703647,0.315121,
2,0,0,1,0,43253.6,0.296391,0.296079,-0.220595,65,0.808788,10,-6.53134e-05,-3.6564,-0.869205,-0.0678781,0.296176,
2,0,0,1,0,43257.4,0.277414,0.277096,-0.233384,65,0.807873,10,-6.46697e-05,-3.63193,-1.07852,-0.0547048,0.277199,
2,0,0,1,0,43261.2,0.258437,0.258137,-0.245944,65,0.806911,10,-6.34873e-05,-3.60916,-1.09769,-0.0537494,0.258246,
2,0,0,1,0,43265,0.239461,0.239145,-0.257346,65,0.805904,10,-6.15429e-05,-3.58948,-0.81101,-0.0727488,0.239258,
2,0,0,0,0,43268.8,0.220483,0.220199,-0.268773,65,0.804854,10,-5.91835e-05,-3.57061,-0.871043,-0.0677349,0.220317,
2,0,0,1,0,43272.6,0.201506,0.201214,-0.281741,65,0.803755,10,-5.66903e-05,-3.55015,-0.69559,-0.0848201,0.201338,
2,0,0,0,0,43276.3,0.182529,0.182194,-0.299232,65,0.802595,10,-5.45182e-05,-3.52399,-0.478604,-0.123275,0.182326,
2,0,0,1,0,43280.1,0.163552,0.163235,-0.333298,65,0.801343,10,-5.44058e-05,-3.47717,-0.279515,-0.21108,0.163382,
2,0,0,0,0,43283.9,0.144575,0.144245,-0.428292,65,0.799878,10,-6.1779e-05,-3.36826,-0.104921,-0.562328,0.144434,
2,0,0,1,0,43287.7,0.125598,0.125306,-0.643353,65,0.797783,10,-8.06163e-05,-3.19155,-0.172882,-0.341273,0.125589,
2,0,0,1,0,43291.5,0.10662,0.106302,-0.694258,65,0.795125,10,-7.38013e-05,-3.15848,2.51405,0.0234681,0.106608,
2,0,0,1,0,43295.3,0.0876433,0.0872575,-0.662681,65,0.792477,10,-5.78239e-05,-3.1787,0.50954,0.115791,0.0875491,
2,0,0,1,0,43299.1,0.0686664,0.0683824,-0.620285,65,0.789981,10,-4.24166e-05,-3.20741,0.72394,0.0814985,0.0686553,
2,0,0,1,0,43302.9,0.0496895,0.0493602,-0.577429,65,0.787639,10,-2.8502e-05,-3.2385,0.555814,0.106151,0.0496143,
2,0,0,1,0,43306.7,0.0307126,0.0303449,-0.529698,65,0.785473,10,-1.60737e-05,-3.27597,0.556535,0.106013,0.030578,
2,0,0,1,0,43310.5,0.0117356,0.0114158,-0.497854,65,0.783468,10,-5.68338e-06,-3.3029,3.42225,0.0172401,0.0116348,
2,0,0,0,0,43312.8,0.000274105,-0.000120135,-0.50022,65,0.782287,10,6.00939e-08,-3.30084, , ,9.9962e-05,