Folder: Figs_alphaMnO2_OER_Tafel_sleope/Figure_codes/Fig_3-5/workspace_calculate_alpha_eff (part 7)

File: 20221101_1-115_003_TrumpetPlot_ParaChange_from10_every3_16_CV_C01_5.csv
mode,ox/red,error,control changes,counter inc.,time/s,control/V,Ewe/V,<I>/mA,cycle number,(Q-Qo)/C,I Range,P/W,log(|I|),Tafel slope mV/dec,alpha_eff,E-IR/V,
2,0,0,0,0,3940.25,2.44065e-05,-0.000382585,-0.0917617,6,0.0000000E+000,10,3.51067e-08,-4.03734, , ,-0.00034221,
2,1,0,1,0,3944,0.0187763,0.0184563,0.212106,6,0.000733018,10,3.9147e-06,-3.67345,0.154224,0.382559,0.018363,
2,1,0,1,0,3947.8,0.0377538,0.0374379,0.273165,6,0.00172927,10,1.02267e-05,-3.56358,0.167547,0.352139,0.0373177,
2,1,0,0,0,3951.59,0.0567309,0.0564117,0.346937,6,0.0029904,10,1.95713e-05,-3.45975,0.202467,0.291406,0.0562591,
2,1,0,1,0,3955.39,0.075708,0.0754153,0.413162,6,0.00451943,10,3.11587e-05,-3.38388,0.322926,0.182704,0.0752335,
2,1,0,0,0,3959.18,0.094685,0.0943817,0.479881,6,0.00628129,10,4.5292e-05,-3.31887,0.223644,0.263812,0.0941705,
2,1,0,1,0,3962.98,0.113662,0.113379,0.604531,6,0.00840805,10,6.85411e-05,-3.21858,0.224262,0.263085,0.113113,
2,1,0,0,0,3966.77,0.132639,0.132326,0.706174,6,0.0109885,10,9.34453e-05,-3.15109,0.845414,0.0697883,0.132016,
2,1,0,1,0,3970.57,0.151617,0.151325,0.522489,6,0.0135419,10,7.90656e-05,-3.28192,-0.0699147,-0.843885,0.151095,
2,1,0,1,0,3974.36,0.170594,0.170292,0.324354,6,0.0151402,10,5.5235e-05,-3.48898,-0.143378,-0.411499,0.170149,
2,1,0,1,0,3978.16,0.189571,0.189247,0.273658,6,0.0163293,10,5.17889e-05,-3.56279,-0.436663,-0.135116,0.189127,
2,1,0,1,0,3981.95,0.208547,0.208261,0.252063,6,0.0173942,10,5.24948e-05,-3.59849,-0.96,-0.0614583,0.20815,
2,1,0,1,0,3985.75,0.227524,0.227223,0.240804,6,0.0184002,10,5.47161e-05,-3.61834,-1.10703,-0.053296,0.227117,
2,1,0,1,0,3989.55,0.246501,0.246218,0.233777,6,0.019374,10,5.75602e-05,-3.6312,-0.727726,-0.0810745,0.246115,
2,1,0,0,0,3993.34,0.265479,0.265177,0.229174,6,0.0203264,10,6.07717e-05,-3.63983,-2.28276,-0.025846,0.265076,
2,1,0,1,0,3997.14,0.284456,0.284152,0.22672,6,0.0212626,10,6.44228e-05,-3.64451,-2.02679,-0.0291101,0.284052,
2,1,0,0,0,4000.93,0.303433,0.303162,0.22182,6,0.0221831,10,6.72473e-05,-3.654,-1.61062,-0.0366319,0.303064,
2,1,0,1,0,4004.73,0.32241,0.322171,0.217995,6,0.0230895,10,7.02315e-05,-3.66155,3.40449,0.01733,0.322075,
2,1,0,0,0,4008.52,0.341387,0.341096,0.21655,6,0.0239836,10,7.38644e-05,-3.66444,-2.1766,-0.0271065,0.341001,
2,1,0,1,0,4012.32,0.360364,0.360072,0.213251,6,0.0248659,10,7.67857e-05,-3.67111,5.90771,0.00998695,0.359978,
2,1,0,1,0,4016.11,0.379342,0.37904,0.210521,6,0.025738,10,7.97957e-05,-3.67671,-109.932,-0.000536694,0.378947,
2,1,0,1,0,4019.91,0.398318,0.398008,0.209472,6,0.026603,10,8.33718e-05,-3.67887,2.67288,0.0220736,0.397916,
2,1,0,1,0,4023.7,0.417295,0.416999,0.209173,6,0.0274635,10,8.7225e-05,-3.67949,2.55222,0.0231171,0.416907,
2,1,0,1,0,4027.5,0.436272,0.436007,0.209216,6,0.0283208,10,9.12198e-05,-3.6794,-7.52999,-0.00783534,0.435915,
2,1,0,1,0,4031.3,0.455249,0.454949,0.209918,6,0.0291791,10,9.55021e-05,-3.67795,2.41853,0.024395,0.454857,
2,1,0,1,0,4035.09,0.474226,0.473911,0.211929,6,0.0300436,10,0.000100436,-3.67381,0.797226,0.0740066,0.473818,
2,1,0,1,0,4038.89,0.493203,0.492869,0.215332,6,0.0309193,10,0.00010613,-3.66689,1.40353,0.0420368,0.492774,
2,1,0,0,0,4042.68,0.512181,0.511865,0.221035,6,0.0318113,10,0.00011314,-3.65554,0.770555,0.0765682,0.511767,
2,1,0,1,0,4046.48,0.531158,0.530876,0.22803,6,0.0327275,10,0.000121056,-3.64201,0.754009,0.0782484,0.530775,
2,1,0,0,0,4050.27,0.550135,0.549872,0.241385,6,0.0336821,10,0.000132731,-3.61729,0.62258,0.094767,0.549766,
2,1,0,1,0,4054.07,0.569112,0.568844,0.261102,6,0.034697,10,0.000148526,-3.58319,0.420409,0.140339,0.568729,
2,1,0,0,0,4057.86,0.588089,0.587821,0.296359,6,0.0358118,10,0.000174206,-3.52818,0.299392,0.197066,0.58769,
2,1,0,1,0,4061.66,0.607066,0.606805,0.361991,6,0.0371084,10,0.000219658,-3.4413,0.176636,0.334021,0.606646,
2,1,0,1,0,4065.45,0.626043,0.625758,0.498677,6,0.0387729,10,0.000312051,-3.30218,0.110244,0.535177,0.625539,
2,1,0,1,0,4069.25,0.64502,0.6447,0.799865,6,0.0412238,10,0.000515673,-3.09698,0.0795655,0.741528,0.644348,
2,1,0,1,0,4073.04,0.663997,0.663706,1.47076,6,0.0454362,10,0.000976151,-2.83246,0.0666761,0.884875,0.663059,
2,1,0,1,0,4076.84,0.682974,0.682674,2.84174,6,0.0534101,10,0.00193998,-2.54642,0.0640109,0.921718,0.681424,
2,1,0,1,0,4080.64,0.701951,0.701673,5.21617,6,0.0684283,10,0.00366005,-2.28265,0.074104,0.796178,0.699378,
2,1,0,1,0,4084.43,0.720928,0.720667,8.62049,6,0.0944596,10,0.00621251,-2.06447,0.088674,0.665358,0.716874,
2,1,0,1,0,4088.23,0.739905,0.739671,12.8583,6,0.135041,10,0.00951094,-1.89082,0.10753,0.548685,0.734014,
2,1,0,0,0,4092.02,0.758883,0.758637,18.0943,6,0.193488,10,0.013727,-1.74246,0.114404,0.515717,0.750676,
2,1,0,1,0,4095.82,0.77786,0.777616,24.9761,6,0.274723,10,0.0194218,-1.60248,0.120823,0.488317,0.766627,
2,1,0,0,0,4099.61,0.796837,0.796627,32.5995,6,0.383377,10,0.0259696,-1.48679,0.138264,0.42672,0.782284,
2,1,0,1,0,4103.41,0.815814,0.815578,40.4617,6,0.522132,10,0.0329997,-1.39296,0.184287,0.320153,0.797775,
2,1,0,0,0,4107.2,0.834791,0.834593,48.1163,6,0.690798,10,0.0401576,-1.31771,0.266018,0.22179,0.813422,
2,1,0,0,0,4110.9,0.846727,0.846493,51.6505,6,0.880348,10,0.0437218,-1.28693,0.164849,0.357902,0.823767,
2,1,0,1,0,4114.7,0.827749,0.827498,43.3173,6,1.0602,10,0.035845,-1.36334,0.180936,0.326082,0.808438,
2,1,0,1,0,4118.49,0.808772,0.808538,33.1996,6,1.20549,10,0.0268431,-1.47887,0.142501,0.414034,0.79393,
2,1,0,1,0,4122.29,0.789795,0.789543,25.4913,6,1.31668,10,0.0201265,-1.59361,0.117955,0.500191,0.778327,
2,1,0,1,0,4126.08,0.770818,0.770588,18.5405,6,1.39984,10,0.0142871,-1.73188,0.105774,0.557791,0.76243,
2,1,0,1,0,4129.88,0.751841,0.751638,12.7045,6,1.45863,10,0.00954916,-1.89604,0.0935338,0.630788,0.746048,
2,1,0,1,0,4133.67,0.732865,0.732615,8.26143,6,1.49785,10,0.00605245,-2.08294,0.0856239,0.68906,0.72898,
2,1,0,0,0,4137.47,0.713887,0.713616,4.92683,6,1.52238,10,0.00351586,-2.30743,0.07231,0.815932,0.711448,
2,1,0,1,0,4141.26,0.69491,0.694643,2.63552,6,1.53635,10,0.00183075,-2.57913,0.0611351,0.965076,0.693483,
2,1,0,0,0,4145.06,0.675933,0.675673,1.24172,6,1.54339,10,0.000838995,-2.90598,0.0520006,1.1346,0.675127,
2,1,0,1,0,4148.85,0.656956,0.656689,0.50159,6,1.54647,10,0.000329388,-3.29965,0.0435697,1.35415,0.656468,
2,1,0,0,0,4152.65,0.637979,0.637716,0.154936,6,1.54757,10,9.88053e-05,-3.80985,0.0288061,2.04818,0.637648,
2,1,0,1,0,4156.44,0.619002,0.618699,0.00384778,6,1.54776,10,2.38061e-06,-5.41479,0.00991387,5.95126,0.618697,
2,0,0,0,0,4160.24,0.600025,0.599715,-0.0593276,6,1.54758,10,-3.55796e-05,-4.22674,-0.0638037,-0.924711,0.599741,
2,0,0,1,0,4164.04,0.581047,0.580756,-0.087225,6,1.54723,10,-5.06564e-05,-4.05936,-0.267181,-0.220824,0.580794,
2,0,0,1,0,4167.83,0.56207,0.561764,-0.102544,6,1.5468,10,-5.76056e-05,-3.98909,-0.731637,-0.0806411,0.561809,
2,0,0,1,0,4171.63,0.543093,0.542777,-0.110871,6,1.54633,10,-6.01782e-05,-3.95518,-0.438764,-0.134469,0.542826,
2,0,0,1,0,4175.42,0.524116,0.523817,-0.116346,6,1.54584,10,-6.0944e-05,-3.93425,-0.479427,-0.123064,0.523868,
2,0,0,1,0,4179.22,0.505139,0.504882,-0.12004,6,1.54533,10,-6.06062e-05,-3.92067,-0.66627,-0.0885527,0.504935,
2,0,0,1,0,4183.01,0.486162,0.485896,-0.125695,6,1.5448,10,-6.10745e-05,-3.90068,-1.26842,-0.0465145,0.485951,
2,0,0,1,0,4186.81,0.467185,0.466847,-0.132895,6,1.54425,10,-6.20415e-05,-3.87649,-2.08223,-0.028335,0.466905,
2,0,0,1,0,4190.6,0.448208,0.447937,-0.138944,6,1.54367,10,-6.22383e-05,-3.85716,-1.15408,-0.0511228,0.447998,
2,0,0,0,0,4194.4,0.429231,0.428909,-0.146151,6,1.54307,10,-6.26856e-05,-3.8352,2.13746,0.0276029,0.428973,
2,0,0,1,0,4198.19,0.410254,0.409943,-0.154365,6,1.54243,10,-6.32809e-05,-3.81145,-0.867803,-0.0679878,0.410011,
2,0,0,0,0,4201.99,0.391277,0.391008,-0.165566,6,1.54176,10,-6.47378e-05,-3.78103,-0.677888,-0.087035,0.391081,
2,0,0,1,0,4205.79,0.3723,0.372001,-0.174202,6,1.54104,10,-6.48034e-05,-3.75895,-0.59637,-0.0989318,0.372078,
2,0,0,1,0,4209.58,0.353322,0.353047,-0.185739,6,1.54029,10,-6.55747e-05,-3.7311,-1.04647,-0.0563798,0.353129,
2,0,0,1,0,4213.38,0.334345,0.334019,-0.196042,6,1.5395,10,-6.54817e-05,-3.70765,-0.884668,-0.0666917,0.334106,
2,0,0,1,0,4217.17,0.315368,0.315046,-0.209113,6,1.53866,10,-6.58802e-05,-3.67962,-0.554001,-0.106498,0.315138,
2,0,0,1,0,4220.97,0.296391,0.296083,-0.221531,6,1.53777,10,-6.55915e-05,-3.65457,-0.831015,-0.0709976,0.29618,
2,0,0,1,0,4224.76,0.277414,0.277092,-0.234112,6,1.53684,10,-6.48706e-05,-3.63058,-0.561019,-0.105166,0.277195,
2,0,0,1,0,4228.56,0.258437,0.258148,-0.245745,6,1.53586,10,-6.34384e-05,-3.60952,-0.86001,-0.0686038,0.258256,
2,0,0,1,0,4232.35,0.239461,0.23912,-0.256981,6,1.53483,10,-6.14493e-05,-3.5901,-1.00959,-0.0584393,0.239233,
2,0,0,0,0,4236.15,0.220483,0.220166,-0.270523,6,1.53376,10,-5.95601e-05,-3.5678,-0.55065,-0.107146,0.220285,
2,0,0,1,0,4239.94,0.201506,0.201153,-0.286834,6,1.53264,10,-5.76974e-05,-3.54237,-0.454033,-0.129946,0.201279,
2,0,0,0,0,4243.74,0.182529,0.182224,-0.315527,6,1.53143,10,-5.74965e-05,-3.50096,-0.293531,-0.201001,0.182363,
2,0,0,1,0,4247.53,0.163552,0.163257,-0.381926,6,1.53005,10,-6.23522e-05,-3.41802,-0.164302,-0.359094,0.163425,
2,0,0,0,0,4251.33,0.144575,0.144283,-0.593745,6,1.52821,10,-8.56676e-05,-3.2264,-0.0743349,-0.793705,0.144545,
2,0,0,1,0,4255.13,0.125598,0.125302,-0.830176,6,1.52532,10,-0.000104023,-3.08083,-0.970593,-0.0607876,0.125667,
2,0,0,1,0,4258.92,0.10662,0.106327,-0.783661,6,1.52214,10,-8.3324e-05,-3.10587,0.373255,0.158069,0.106671,
2,0,0,1,0,4262.72,0.0876433,0.0873382,-0.6921,6,1.51927,10,-6.04468e-05,-3.15983,0.392941,0.15015,0.0876427,
2,0,0,1,0,4266.51,0.0686664,0.0683443,-0.636225,6,1.51668,10,-4.34823e-05,-3.19639,0.584749,0.100898,0.0686242,
2,0,0,1,0,4270.31,0.0496895,0.0493771,-0.581095,6,1.51429,10,-2.86928e-05,-3.23575,0.393999,0.149747,0.0496328,
2,0,0,1,0,4274.1,0.0307126,0.0304097,-0.521691,6,1.51212,10,-1.58645e-05,-3.28259,0.452219,0.130468,0.0306393,
2,0,0,1,0,4277.9,0.0117356,0.0113977,-0.491195,6,1.51013,10,-5.5985e-06,-3.30875,1.89842,0.0310784,0.0116138,
2,0,0,0,0,4280.19,0.000274105,-6.64518e-05,-0.49703,6,1.50896,10,3.30285e-08,-3.30362, , ,0.000152241,

File: 20221101_1-115_003_TrumpetPlot_ParaChange_from10_every3_16_CV_C01_6.csv
mode,ox/red,error,control changes,counter inc.,time/s,control/V,Ewe/V,<I>/mA,cycle number,(Q-Qo)/C,I Range,P/W,log(|I|),Tafel slope mV/dec,alpha_eff,E-IR/V,
2,0,0,1,0,5170.38,2.44065e-05,-0.000344411,-0.0364269,7,0.0000000E+000,10,1.25458e-08,-4.43858, , ,-0.000328383,
2,1,0,1,0,5174.13,0.0187763,0.0184296,0.270202,7,0.000948579,10,4.97971e-06,-3.56831,0.1787,0.330161,0.0183107,
2,1,0,0,0,5177.93,0.0377538,0.037423,0.333623,7,0.00217057,10,1.24852e-05,-3.47674,0.214263,0.275363,0.0372762,
2,1,0,1,0,5181.72,0.0567309,0.056435,0.403349,7,0.00365293,10,2.2763e-05,-3.39432,0.314233,0.187759,0.0562576,
2,1,0,0,0,5185.52,0.075708,0.0753941,0.462896,7,0.0053847,10,3.48996e-05,-3.33452,0.43134,0.136783,0.0751904,
2,1,0,1,0,5189.31,0.0946851,0.0943753,0.527623,7,0.00732951,10,4.97946e-05,-3.27768,0.274834,0.214675,0.0941432,
2,1,0,0,0,5193.11,0.113662,0.113367,0.646827,7,0.00962385,10,7.3329e-05,-3.18921,0.25911,0.227703,0.113083,
2,1,0,1,0,5196.9,0.132639,0.132354,0.73805,7,0.0123364,10,9.76837e-05,-3.13191,1.06612,0.0553407,0.132029,
2,1,0,1,0,5200.7,0.151617,0.151319,0.545484,7,0.0149828,10,8.25423e-05,-3.26322,-0.0763147,-0.773114,0.151079,
2,1,0,1,0,5204.49,0.170594,0.170273,0.363572,7,0.0167038,10,6.19065e-05,-3.43941,-0.181317,-0.325396,0.170113,
2,1,0,1,0,5208.29,0.189571,0.189275,0.316736,7,0.0180477,10,5.995e-05,-3.4993,-0.62118,-0.0949805,0.189135,
2,1,0,1,0,5212.08,0.208547,0.208247,0.299391,7,0.0192801,10,6.23473e-05,-3.52376,-0.737428,-0.0800078,0.208115,
2,1,0,1,0,5215.88,0.227524,0.227188,0.286708,7,0.0204586,10,6.51365e-05,-3.54256,-0.916111,-0.0644027,0.227062,
2,1,0,1,0,5219.67,0.246501,0.246203,0.279733,7,0.0216031,10,6.8871e-05,-3.55326,-0.678207,-0.0869941,0.24608,
2,1,0,1,0,5223.47,0.265479,0.265182,0.27402,7,0.0227231,10,7.26653e-05,-3.56222,-3.6993,-0.0159489,0.265062,
2,1,0,0,0,5227.27,0.284456,0.284141,0.269575,7,0.0238246,10,7.65975e-05,-3.56932,-1.87824,-0.0314123,0.284023,
2,1,0,1,0,5231.06,0.303433,0.303164,0.265796,7,0.0249095,10,8.05797e-05,-3.57545,-1.35481,-0.0435484,0.303047,
2,1,0,0,0,5234.86,0.32241,0.322136,0.260244,7,0.0259787,10,8.38338e-05,-3.58462,-6.05738,-0.00974018,0.322021,
2,1,0,1,0,5238.65,0.341387,0.341099,0.258076,7,0.0270327,10,8.80296e-05,-3.58825,8.80913,0.0066976,0.340986,
2,1,0,0,0,5242.45,0.360364,0.360059,0.25588,7,0.0280728,10,9.21319e-05,-3.59196,-5.36927,-0.0109885,0.359947,
2,1,0,1,0,5246.24,0.379342,0.379029,0.253617,7,0.0291025,10,9.61282e-05,-3.59582,-2.39238,-0.0246616,0.378918,
2,1,0,1,0,5250.04,0.398319,0.398024,0.249037,7,0.0301221,10,9.91228e-05,-3.60374,-9.40242,-0.00627498,0.397915,
2,1,0,1,0,5253.83,0.417295,0.417013,0.248312,7,0.0311336,10,0.000103549,-3.605,-6.74891,-0.00874216,0.416904,
2,1,0,1,0,5257.63,0.436272,0.436027,0.248382,7,0.0321409,10,0.000108301,-3.60488,-8.58039,-0.00687614,0.435918,
2,1,0,1,0,5261.42,0.455249,0.454941,0.249098,7,0.0331469,10,0.000113325,-3.60363,2.96225,0.0199173,0.454831,
2,1,0,1,0,5265.22,0.474226,0.4739,0.249596,7,0.0341555,10,0.000118284,-3.60276,0.941566,0.0626616,0.47379,
2,1,0,1,0,5269.01,0.493203,0.492957,0.252821,7,0.035171,10,0.00012463,-3.59719,1.03873,0.0568001,0.492846,
2,1,0,1,0,5272.81,0.512181,0.511869,0.25674,7,0.0362014,10,0.000131417,-3.59051,1.48174,0.039818,0.511756,
2,1,0,0,0,5276.61,0.531158,0.530872,0.265485,7,0.0372553,10,0.000140938,-3.57596,1.33821,0.0440888,0.530755,
2,1,0,1,0,5280.4,0.550135,0.549811,0.275865,7,0.0383446,10,0.000151674,-3.5593,0.799596,0.0737872,0.54969,
2,1,0,0,0,5284.2,0.569112,0.568862,0.297166,7,0.0394909,10,0.000169046,-3.527,0.484252,0.121837,0.568731,
2,1,0,1,0,5287.99,0.588089,0.587809,0.330864,7,0.0407368,10,0.000194485,-3.48035,0.328887,0.179393,0.587663,
2,1,0,0,0,5291.79,0.607066,0.606832,0.396773,7,0.042165,10,0.000240774,-3.40146,0.196145,0.300798,0.606657,
2,1,0,1,0,5295.58,0.626044,0.62577,0.531315,7,0.0439563,10,0.000332481,-3.27465,0.125396,0.470508,0.625536,
2,1,0,1,0,5299.38,0.64502,0.644722,0.823743,7,0.0465147,10,0.000531085,-3.08421,0.0850427,0.693769,0.64436,
2,1,0,1,0,5303.17,0.663997,0.663736,1.46857,7,0.0507748,10,0.000974743,-2.83311,0.0687939,0.857634,0.66309,
2,1,0,1,0,5306.97,0.682974,0.682695,2.7728,7,0.0586257,10,0.00189298,-2.55708,0.0660244,0.893608,0.681475,
2,1,0,1,0,5310.76,0.701951,0.701683,5.02205,7,0.0731581,10,0.00352388,-2.29912,0.0734531,0.803234,0.699473,
2,1,0,1,0,5314.56,0.720928,0.720658,8.25373,7,0.0981347,10,0.00594812,-2.08335,0.0897789,0.65717,0.717027,
2,1,0,1,0,5318.36,0.739905,0.739634,12.2604,7,0.136916,10,0.00906819,-1.9115,0.111105,0.531031,0.73424,
2,1,0,1,0,5322.15,0.758883,0.758615,17.1652,7,0.192445,10,0.0130218,-1.76535,0.11891,0.496173,0.751062,
2,1,0,0,0,5325.95,0.77786,0.777609,23.2862,7,0.268923,10,0.0181075,-1.6329,0.138568,0.425783,0.767363,
2,1,0,1,0,5329.74,0.796837,0.796597,30.1868,7,0.370177,10,0.0240467,-1.52018,0.156061,0.378057,0.783315,
2,1,0,0,0,5333.54,0.815814,0.815602,37.7048,7,0.499125,10,0.0307522,-1.4236,0.18244,0.323394,0.799012,
2,1,0,1,0,5337.33,0.834791,0.834574,45.0364,7,0.656368,10,0.0375862,-1.34644,0.224083,0.263295,0.814758,
2,1,0,1,0,5341.03,0.846727,0.846496,48.6212,7,0.834379,10,0.0411577,-1.31317,0.203263,0.290264,0.825103,
2,1,0,1,0,5344.82,0.827749,0.827507,40.7256,7,1.00361,10,0.0337007,-1.39013,0.185969,0.317257,0.809588,
2,1,0,1,0,5348.62,0.808772,0.808565,32.5309,7,1.14266,10,0.0263034,-1.4877,0.147429,0.400193,0.794252,
2,1,0,1,0,5352.41,0.789795,0.789512,24.9424,7,1.25147,10,0.0196923,-1.60306,0.127856,0.461457,0.778537,
2,1,0,1,0,5356.21,0.770818,0.770571,18.0295,7,1.33264,10,0.013893,-1.74402,0.106032,0.556434,0.762638,
2,1,0,1,0,5360.01,0.751841,0.751572,12.3068,7,1.38976,10,0.00924946,-1.90985,0.0916599,0.643684,0.746157,
2,1,0,1,0,5363.8,0.732865,0.732603,7.83515,7,1.42755,10,0.00574005,-2.10595,0.0783906,0.752641,0.729155,
2,1,0,1,0,5367.6,0.713887,0.713625,4.6224,7,1.45076,10,0.00329866,-2.33513,0.0715175,0.824972,0.711591,
2,1,0,0,0,5371.39,0.69491,0.694659,2.49166,7,1.4639,10,0.00173086,-2.60351,0.0617071,0.95613,0.693562,
2,1,0,1,0,5375.19,0.675933,0.675687,1.18416,7,1.47057,10,0.000800122,-2.92659,0.0523948,1.12607,0.675166,
2,1,0,0,0,5378.98,0.656956,0.656676,0.489529,7,1.47353,10,0.000321462,-3.31022,0.0445316,1.3249,0.656461,
2,1,0,1,0,5382.78,0.637979,0.637697,0.163898,7,1.47462,10,0.000104517,-3.78543,0.0331068,1.78211,0.637625,
2,1,0,0,0,5386.57,0.619002,0.618694,0.0213902,7,1.47487,10,1.3234e-05,-4.66979,0.0104155,5.66462,0.618685,
2,0,0,1,0,5390.37,0.600025,0.599759,-0.0385206,7,1.47476,10,-2.3103e-05,-4.41431,-0.0440022,-1.34084,0.599776,
2,0,0,1,0,5394.16,0.581047,0.580749,-0.0660837,7,1.47449,10,-3.8378e-05,-4.17991,-0.132363,-0.445743,0.580778,
2,0,0,1,0,5397.96,0.56207,0.561768,-0.0805964,7,1.47415,10,-4.52765e-05,-4.09368,-0.194575,-0.303225,0.561804,
2,0,0,1,0,5401.76,0.543093,0.542808,-0.0892894,7,1.47377,10,-4.8467e-05,-4.0492,-0.284353,-0.207489,0.542848,
2,0,0,1,0,5405.55,0.524116,0.523825,-0.0953375,7,1.47336,10,-4.99402e-05,-4.02074,-0.298457,-0.197683,0.523867,
2,0,0,1,0,5409.35,0.505139,0.504842,-0.100057,7,1.47293,10,-5.05132e-05,-3.99975,-1.30963,-0.0450509,0.504886,
2,0,0,1,0,5413.14,0.486162,0.485835,-0.103368,7,1.47248,10,-5.02197e-05,-3.98561,-0.543332,-0.108589,0.485881,
2,0,0,1,0,5416.94,0.467185,0.466857,-0.110629,7,1.472,10,-5.16478e-05,-3.95613,-0.623673,-0.0946009,0.466906,
2,0,0,0,0,5420.73,0.448208,0.447908,-0.11914,7,1.4715,10,-5.3364e-05,-3.92394,-0.71222,-0.0828396,0.447961,
2,0,0,1,0,5424.53,0.429231,0.42892,-0.125801,7,1.47096,10,-5.39586e-05,-3.90032,-7.17628,-0.00822153,0.428975,
2,0,0,0,0,5428.32,0.410254,0.409957,-0.135614,7,1.4704,10,-5.55959e-05,-3.8677,-0.647568,-0.0911101,0.410016,
2,0,0,1,0,5432.12,0.391277,0.390948,-0.146368,7,1.46979,10,-5.72221e-05,-3.83455,-0.665106,-0.0887076,0.391012,
2,0,0,0,0,5435.91,0.3723,0.372018,-0.156554,7,1.46915,10,-5.82408e-05,-3.80534,-0.34206,-0.172484,0.372087,
2,0,0,1,0,5439.71,0.353322,0.353016,-0.168203,7,1.46846,10,-5.93784e-05,-3.77417,-1.76009,-0.0335211,0.35309,
2,0,0,1,0,5443.5,0.334345,0.334058,-0.177897,7,1.46773,10,-5.94277e-05,-3.74983,-0.565998,-0.104241,0.334136,
2,0,0,1,0,5447.3,0.315368,0.315032,-0.190221,7,1.46696,10,-5.99258e-05,-3.72074,-0.499583,-0.118099,0.315116,
2,0,0,1,0,5451.1,0.296391,0.296105,-0.203263,7,1.46613,10,-6.01873e-05,-3.69194,-3.31426,-0.0178019,0.296194,
2,0,0,1,0,5454.89,0.277414,0.277114,-0.215392,7,1.46526,10,-5.96881e-05,-3.66677,-0.817863,-0.0721392,0.277209,
2,0,0,1,0,5458.69,0.258437,0.258122,-0.228513,7,1.46434,10,-5.89844e-05,-3.64109,-0.690708,-0.0854196,0.258223,
2,0,0,1,0,5462.48,0.239461,0.239151,-0.242188,7,1.46338,10,-5.79195e-05,-3.61585,-0.561193,-0.105133,0.239257,
2,0,0,1,0,5466.28,0.220483,0.220185,-0.255491,7,1.46236,10,-5.62554e-05,-3.59262,-0.582564,-0.101276,0.220298,
2,0,0,0,0,5470.07,0.201506,0.201218,-0.272545,7,1.46128,10,-5.48409e-05,-3.56456,-0.446731,-0.132071,0.201338,
2,0,0,1,0,5473.87,0.182529,0.182177,-0.299142,7,1.46013,10,-5.44968e-05,-3.52412,-0.279324,-0.211224,0.182309,
2,0,0,0,0,5477.66,0.163552,0.163248,-0.363936,7,1.45881,10,-5.94117e-05,-3.43897,-0.147313,-0.400508,0.163408,
2,0,0,1,0,5481.46,0.144575,0.144229,-0.569354,7,1.45703,10,-8.21175e-05,-3.24462,-0.0713513,-0.826895,0.14448,
2,0,0,0,0,5485.25,0.125598,0.125246,-0.808415,7,1.45423,10,-0.000101251,-3.09237,-0.653533,-0.0902786,0.125602,
2,0,0,1,0,5489.05,0.10662,0.106319,-0.765334,7,1.45113,10,-8.13698e-05,-3.11615,0.416875,0.141529,0.106656,
2,0,0,1,0,5492.85,0.0876433,0.0873308,-0.679863,7,1.44831,10,-5.9373e-05,-3.16758,0.394412,0.14959,0.08763,
2,0,0,1,0,5496.64,0.0686664,0.0683698,-0.627748,7,1.44576,10,-4.2919e-05,-3.20221,0.55933,0.105483,0.068646,
2,0,0,1,0,5500.44,0.0496895,0.0493292,-0.573865,7,1.44339,10,-2.83083e-05,-3.24119,0.421614,0.139939,0.0495817,
2,0,0,1,0,5504.23,0.0307126,0.0304045,-0.518677,7,1.44123,10,-1.57701e-05,-3.2851,0.502392,0.117438,0.0306327,
2,0,0,1,0,5508.03,0.0117356,0.0114096,-0.486212,7,1.43925,10,-5.54748e-06,-3.31317,2.15292,0.0274047,0.0116235,
2,0,0,1,0,5510.32,0.000274105,-8.7925e-05,-0.488972,7,1.43809,10,4.29928e-08,-3.31072, , ,0.000127223,