Folder: Figs_alphaMnO2_OER_Tafel_sleope/Figure_codes/Fig_3-5/workspace_calculate_alpha_eff (part 10)

File: 20221101_1-115_003_TrumpetPlot_ParaChange_from10_every3_16_CV_C01_11.csv
mode,ox/red,error,control changes,counter inc.,time/s,control/V,Ewe/V,<I>/mA,cycle number,(Q-Qo)/C,I Range,P/W,log(|I|),Tafel slope mV/dec,alpha_eff,E-IR/V,
2,0,0,0,0,7880.51,2.44065e-05,-0.0002108,-0.109571,12,0.0000000E+000,10,2.30974e-08,-3.96031, , ,-0.000162589,
2,1,0,1,0,7884.26,0.0187763,0.0184379,0.216074,12,0.000729356,10,3.98394e-06,-3.6654,0.138776,0.425145,0.0183428,
2,1,0,1,0,7888.06,0.0377538,0.0374251,0.28351,12,0.00174983,10,1.06104e-05,-3.54743,0.145262,0.406163,0.0373004,
2,1,0,0,0,7891.85,0.0567309,0.0564287,0.350819,12,0.00303475,10,1.97963e-05,-3.45492,0.274464,0.214965,0.0562743,
2,1,0,1,0,7895.65,0.075708,0.0754015,0.408598,12,0.00455956,10,3.08089e-05,-3.3887,0.393375,0.149984,0.0752217,
2,1,0,0,0,7899.44,0.0946851,0.0944008,0.474635,12,0.00629399,10,4.48059e-05,-3.32364,0.213798,0.275961,0.094192,
2,1,0,1,0,7903.24,0.113662,0.113356,0.588379,12,0.00838194,10,6.6696e-05,-3.23034,0.279482,0.211105,0.113097,
2,1,0,0,0,7907.03,0.132639,0.132301,0.672477,12,0.0108556,10,8.89692e-05,-3.17232,12.5608,0.00469714,0.132005,
2,1,0,1,0,7910.83,0.151617,0.15132,0.462742,12,0.0131995,10,7.00223e-05,-3.33466,-0.0691038,-0.853788,0.151117,
2,1,0,1,0,7914.62,0.170594,0.170311,0.309991,12,0.0146651,10,5.27949e-05,-3.50865,-0.190917,-0.309035,0.170175,
2,1,0,1,0,7918.42,0.189571,0.18926,0.269459,12,0.0158168,10,5.09977e-05,-3.56951,-0.492319,-0.119841,0.189141,
2,1,0,1,0,7922.22,0.208547,0.208197,0.251778,12,0.0168702,10,5.24194e-05,-3.59898,-0.872762,-0.0676015,0.208086,
2,1,0,1,0,7926.01,0.227524,0.227259,0.241939,12,0.0178746,10,5.49827e-05,-3.61629,-0.917494,-0.0643056,0.227152,
2,1,0,1,0,7929.81,0.246501,0.246214,0.234623,12,0.018848,10,5.77674e-05,-3.62963,-0.595822,-0.0990228,0.24611,
2,1,0,0,0,7933.6,0.265479,0.265171,0.23102,12,0.0198011,10,6.12598e-05,-3.63635,-0.941098,-0.0626927,0.265069,
2,1,0,1,0,7937.4,0.284456,0.28419,0.227504,12,0.0207389,10,6.46545e-05,-3.64301,-8.66448,-0.00680941,0.28409,
2,1,0,0,0,7941.19,0.303433,0.303131,0.222123,12,0.0216588,10,6.73324e-05,-3.65341,-4.34664,-0.0135737,0.303033,
2,1,0,1,0,7944.99,0.32241,0.322118,0.219504,12,0.0225632,10,7.07061e-05,-3.65856,-6.9709,-0.00846376,0.322021,
2,1,0,0,0,7948.78,0.341387,0.341081,0.215428,12,0.0234563,10,7.34786e-05,-3.6667,-2.17966,-0.0270684,0.340986,
2,1,0,1,0,7952.58,0.360364,0.360076,0.215624,12,0.024339,10,7.76412e-05,-3.6663,-10.7584,-0.0054841,0.359981,
2,1,0,1,0,7956.37,0.379342,0.379024,0.212728,12,0.0252122,10,8.06291e-05,-3.67217,-2.68565,-0.0219686,0.37893,
2,1,0,1,0,7960.17,0.398319,0.397992,0.210315,12,0.0260778,10,8.37039e-05,-3.67713,25.7852,0.00228813,0.3979,
2,1,0,1,0,7963.97,0.417295,0.417031,0.210838,12,0.0269391,10,8.79258e-05,-3.67605,6.08319,0.00969886,0.416938,
2,1,0,1,0,7967.76,0.436272,0.43599,0.211063,12,0.0277987,10,9.20215e-05,-3.67559,70.449,0.000837486,0.435897,
2,1,0,1,0,7971.56,0.455249,0.454963,0.2117,12,0.02866,10,9.63159e-05,-3.67428,0.893783,0.0660116,0.45487,
2,1,0,1,0,7975.35,0.474226,0.473931,0.213407,12,0.0295252,10,0.00010114,-3.67079,1.31014,0.0450334,0.473837,
2,1,0,1,0,7979.15,0.493203,0.492911,0.217209,12,0.0303999,10,0.000107064,-3.66312,0.9199,0.0641374,0.492815,
2,1,0,0,0,7982.94,0.512181,0.511904,0.222345,12,0.0312908,10,0.000113819,-3.65297,1.19532,0.049359,0.511806,
2,1,0,1,0,7986.74,0.531158,0.530862,0.229663,12,0.0322058,10,0.000121919,-3.63891,1.1434,0.0516007,0.530761,
2,1,0,0,0,7990.53,0.550135,0.549864,0.240505,12,0.0331547,10,0.000132245,-3.61888,0.478721,0.123245,0.549759,
2,1,0,1,0,7994.33,0.569112,0.568857,0.258534,12,0.034158,10,0.000147069,-3.58748,0.470344,0.12544,0.568744,
2,1,0,0,0,7998.12,0.588089,0.587791,0.289426,12,0.0352512,10,0.000170122,-3.53846,0.368299,0.160196,0.587664,
2,1,0,1,0,8001.92,0.607066,0.60677,0.346133,12,0.0365025,10,0.000210023,-3.46076,0.182943,0.322505,0.606618,
2,1,0,1,0,8005.71,0.626044,0.625798,0.459306,12,0.0380624,10,0.000287432,-3.3379,0.119374,0.494245,0.625596,
2,1,0,1,0,8009.51,0.64502,0.644753,0.707533,12,0.0402747,10,0.000456184,-3.15025,0.0868992,0.678948,0.644442,
2,1,0,1,0,8013.31,0.663997,0.663716,1.25221,12,0.0439247,10,0.000831109,-2.90232,0.0694014,0.850127,0.663165,
2,1,0,1,0,8017.1,0.682974,0.682718,2.36149,12,0.0506201,10,0.00161223,-2.62681,0.0673343,0.876225,0.681679,
2,1,0,1,0,8020.9,0.701951,0.7017,4.29243,12,0.0630222,10,0.003012,-2.3673,0.0745482,0.791434,0.699811,
2,1,0,1,0,8024.69,0.720928,0.72069,7.10481,12,0.084457,10,0.00512037,-2.14845,0.091191,0.646994,0.717564,
2,1,0,1,0,8028.49,0.739905,0.739647,10.696,12,0.118067,10,0.0079113,-1.97078,0.105747,0.557935,0.734941,
2,1,0,0,0,8032.28,0.758883,0.758599,15.0984,12,0.166778,10,0.0114536,-1.82107,0.11686,0.504878,0.751956,
2,1,0,1,0,8036.08,0.77786,0.777594,20.8123,12,0.234475,10,0.0161835,-1.68168,0.118031,0.499867,0.768437,
2,1,0,0,0,8039.87,0.796837,0.79657,27.8145,12,0.326734,10,0.0221562,-1.55573,0.134918,0.437302,0.784332,
2,1,0,1,0,8043.67,0.815814,0.815567,35.4155,12,0.447006,10,0.0288837,-1.45081,0.18003,0.327722,0.799984,
2,1,0,0,0,8047.46,0.834791,0.834557,42.9226,12,0.596125,10,0.0358214,-1.36731,0.205966,0.286456,0.815671,
2,1,0,0,0,8051.16,0.846727,0.846497,46.0641,12,0.766116,10,0.0389931,-1.33664,0.15441,0.3821,0.826229,
2,1,0,1,0,8054.96,0.827749,0.827514,37.4857,12,0.924263,10,0.03102,-1.42613,0.167031,0.353227,0.811021,
2,1,0,1,0,8058.75,0.808772,0.808537,29.4137,12,1.05113,10,0.0237821,-1.53145,0.133587,0.441659,0.795595,
2,1,0,1,0,8062.55,0.789795,0.789509,22.126,12,1.14856,10,0.0174687,-1.6551,0.0926461,0.636832,0.779773,
2,1,0,1,0,8066.34,0.770818,0.770553,15.811,12,1.21991,10,0.0121832,-1.80104,0.109076,0.540908,0.763596,
2,1,0,1,0,8070.14,0.751841,0.751592,10.7909,12,1.27002,10,0.00811034,-1.96694,0.0942791,0.625801,0.746844,
2,1,0,1,0,8073.93,0.732865,0.732603,6.86899,12,1.30309,10,0.00503224,-2.16311,0.0824051,0.715975,0.72958,
2,1,0,0,0,8077.73,0.713887,0.713611,4.04576,12,1.32341,10,0.0028871,-2.393,0.0710665,0.830209,0.711831,
2,1,0,1,0,8081.52,0.69491,0.694646,2.1819,12,1.33494,10,0.00151565,-2.66116,0.0609175,0.968523,0.693686,
2,1,0,0,0,8085.32,0.675933,0.675664,1.02312,12,1.34076,10,0.000691287,-2.99007,0.0518122,1.13873,0.675214,
2,1,0,1,0,8089.11,0.656956,0.656662,0.404414,12,1.34328,10,0.000265563,-3.39317,0.0409454,1.44094,0.656484,
2,1,0,0,0,8092.91,0.637979,0.637688,0.112592,12,1.34413,10,7.17983e-05,-3.94849,0.026181,2.25355,0.637639,
2,0,0,1,0,8096.71,0.619002,0.618768,-0.0132235,12,1.34423,10,-8.18227e-06,-4.87865,-0.0061395,-9.6099,0.618773,
2,0,0,0,0,8100.5,0.600025,0.599726,-0.0660855,12,1.344,10,-3.96332e-05,-4.17989,-0.0968214,-0.609369,0.599755,
2,0,0,1,0,8104.3,0.581047,0.580725,-0.0925205,12,1.34363,10,-5.3729e-05,-4.03376,-0.189753,-0.310931,0.580766,
2,0,0,1,0,8108.09,0.56207,0.561796,-0.103788,12,1.3432,10,-5.83075e-05,-3.98385,-0.862519,-0.0684043,0.561842,
2,0,0,1,0,8111.89,0.543093,0.542781,-0.112218,12,1.34273,10,-6.09095e-05,-3.94994,-0.558209,-0.105695,0.54283,
2,0,0,1,0,8115.68,0.524116,0.523818,-0.116507,12,1.34224,10,-6.10284e-05,-3.93365,-1.42413,-0.0414288,0.523869,
2,0,0,1,0,8119.48,0.505139,0.504837,-0.122169,12,1.34173,10,-6.16752e-05,-3.91304,-1.25304,-0.0470853,0.50489,
2,0,0,1,0,8123.27,0.486162,0.485873,-0.126666,12,1.3412,10,-6.15437e-05,-3.89734,-10.1469,-0.0058146,0.485929,
2,0,0,1,0,8127.07,0.467185,0.466854,-0.131738,12,1.34065,10,-6.15024e-05,-3.88029,-0.589884,-0.10002,0.466912,
2,0,0,1,0,8130.86,0.448208,0.447917,-0.138902,12,1.34008,10,-6.22164e-05,-3.85729,-3.56106,-0.0165681,0.447978,
2,0,0,0,0,8134.66,0.429231,0.428955,-0.145938,12,1.33947,10,-6.26007e-05,-3.83583,-1.90072,-0.0310408,0.429019,
2,0,0,1,0,8138.46,0.410254,0.409957,-0.155159,12,1.33884,10,-6.36083e-05,-3.80922,1.70034,0.034699,0.410025,
2,0,0,0,0,8142.25,0.391277,0.390961,-0.164447,12,1.33816,10,-6.42926e-05,-3.78397,-0.876277,-0.0673303,0.391034,
2,0,0,1,0,8146.05,0.3723,0.371991,-0.175272,12,1.33745,10,-6.51995e-05,-3.75629,-1.01088,-0.0583653,0.372068,
2,0,0,1,0,8149.84,0.353322,0.353043,-0.185391,12,1.3367,10,-6.5451e-05,-3.73191,-0.504777,-0.116883,0.353124,
2,0,0,1,0,8153.64,0.334345,0.334043,-0.196991,12,1.33591,10,-6.58034e-05,-3.70555,-0.675467,-0.087347,0.334129,
2,0,0,1,0,8157.43,0.315368,0.315086,-0.208257,12,1.33507,10,-6.56187e-05,-3.6814,-0.529638,-0.111397,0.315178,
2,0,0,1,0,8161.23,0.296391,0.296069,-0.220619,12,1.33419,10,-6.53185e-05,-3.65636,-0.666309,-0.0885474,0.296166,
2,0,0,1,0,8165.02,0.277414,0.277128,-0.231611,12,1.33326,10,-6.41859e-05,-3.63524,-0.947571,-0.0622645,0.27723,
2,0,0,1,0,8168.82,0.258437,0.258143,-0.246368,12,1.33229,10,-6.35982e-05,-3.60841,-0.709548,-0.0831515,0.258251,
2,0,0,1,0,8172.61,0.239461,0.239185,-0.256717,12,1.33126,10,-6.14029e-05,-3.59054,-1.89347,-0.0311598,0.239298,
2,0,0,0,0,8176.41,0.220483,0.220199,-0.268459,12,1.3302,10,-5.91145e-05,-3.57112,-0.746871,-0.0789963,0.220317,
2,0,0,1,0,8180.2,0.201506,0.201207,-0.283525,12,1.32908,10,-5.70473e-05,-3.54741,-0.463034,-0.127421,0.201332,
2,0,0,0,0,8184,0.182529,0.182215,-0.30932,12,1.32788,10,-5.63628e-05,-3.50959,-0.303402,-0.194461,0.182351,
2,0,0,1,0,8187.8,0.163552,0.163237,-0.364447,12,1.32654,10,-5.94913e-05,-3.43837,-0.178742,-0.330084,0.163397,
2,0,0,0,0,8191.59,0.144575,0.144275,-0.541027,12,1.32482,10,-7.80566e-05,-3.26678,-0.0779217,-0.75717,0.144513,
2,0,0,1,0,8195.39,0.125598,0.125279,-0.815527,12,1.32213,10,-0.000102168,-3.08856,-0.253013,-0.23319,0.125638,
2,0,0,1,0,8199.18,0.10662,0.106345,-0.764769,12,1.31904,10,-8.13293e-05,-3.11647,0.541789,0.108898,0.106681,
2,0,0,1,0,8202.98,0.0876433,0.087332,-0.687446,12,1.3162,10,-6.0036e-05,-3.16276,0.459806,0.128315,0.0876344,
2,0,0,1,0,8206.77,0.0686664,0.0683847,-0.635885,12,1.31362,10,-4.34848e-05,-3.19662,0.667042,0.0884502,0.0686645,
2,0,0,1,0,8210.57,0.0496895,0.0494067,-0.584123,12,1.31123,10,-2.88596e-05,-3.2335,0.475601,0.124054,0.0496637,
2,0,0,1,0,8214.36,0.0307126,0.0303884,-0.530191,12,1.30903,10,-1.61117e-05,-3.27557,0.460863,0.128021,0.0306217,
2,0,0,1,0,8218.16,0.0117356,0.0114169,-0.495289,12,1.30702,10,-5.65469e-06,-3.30514,1.12707,0.0523482,0.0116349,
2,0,0,0,0,8220.45,0.000274105,-0.000132064,-0.496311,12,1.30583,10,6.5545e-08,-3.30425, , ,8.63124e-05,

File: 20221101_1-115_003_TrumpetPlot_ParaChange_from10_every3_16_CV_C01_12.csv
mode,ox/red,error,control changes,counter inc.,time/s,control/V,Ewe/V,<I>/mA,cycle number,(Q-Qo)/C,I Range,P/W,log(|I|),Tafel slope mV/dec,alpha_eff,E-IR/V,
2,0,0,1,0,9110.64,2.44065e-05,-0.000191712,-0.0453313,13,0.0000000E+000,10,8.69057e-09,-4.3436, , ,-0.000171767,
2,1,0,1,0,9114.39,0.0187763,0.0184306,0.276632,13,0.000957779,10,5.09849e-06,-3.5581,0.200546,0.294197,0.0183089,
2,1,0,0,0,9118.19,0.0377538,0.0374421,0.34281,13,0.00221128,10,1.28355e-05,-3.46495,0.236081,0.249914,0.0372913,
2,1,0,1,0,9121.98,0.0567309,0.0564223,0.406446,13,0.00372114,10,2.29326e-05,-3.391,0.31302,0.188486,0.0562435,
2,1,0,0,0,9125.78,0.075708,0.0754206,0.461835,13,0.00545593,10,3.48319e-05,-3.33551,0.448893,0.131434,0.0752174,
2,1,0,1,0,9129.57,0.0946851,0.0943997,0.523568,13,0.00738354,10,4.94247e-05,-3.28103,0.248192,0.237719,0.0941694,
2,1,0,0,0,9133.37,0.113662,0.113386,0.633528,13,0.00965339,10,7.18334e-05,-3.19823,0.334057,0.176617,0.113108,
2,1,0,1,0,9137.16,0.132639,0.132326,0.710457,13,0.0122883,10,9.40121e-05,-3.14846,5.09104,0.011589,0.132014,
2,1,0,1,0,9140.96,0.151617,0.151325,0.499129,13,0.0147664,10,7.55305e-05,-3.30179,-0.075714,-0.779248,0.151105,
2,1,0,1,0,9144.75,0.170594,0.170307,0.347987,13,0.0163769,10,5.92645e-05,-3.45844,-0.202073,-0.291974,0.170154,
2,1,0,1,0,9148.55,0.189571,0.189249,0.310414,13,0.0176845,10,5.87455e-05,-3.50806,-0.567815,-0.103907,0.189113,
2,1,0,1,0,9152.34,0.208547,0.208261,0.2944,13,0.0189013,10,6.13119e-05,-3.53106,-0.688834,-0.085652,0.208131,
2,1,0,1,0,9156.14,0.227524,0.227237,0.285865,13,0.0200713,10,6.4959e-05,-3.54384,-1.25739,-0.0469225,0.227111,
2,1,0,1,0,9159.94,0.246501,0.246203,0.279378,13,0.0212135,10,6.87837e-05,-3.55381,-1.23272,-0.0478616,0.24608,
2,1,0,1,0,9163.73,0.265479,0.265179,0.274119,13,0.0223367,10,7.26906e-05,-3.56206,-0.9096,-0.0648637,0.265059,
2,1,0,0,0,9167.53,0.284456,0.284183,0.270357,13,0.0234409,10,7.68308e-05,-3.56806,-2.1874,-0.0269726,0.284064,
2,1,0,1,0,9171.32,0.303433,0.303124,0.265339,13,0.0245271,10,8.04307e-05,-3.5762,-1.64495,-0.0358673,0.303007,
2,1,0,0,0,9175.12,0.32241,0.322114,0.261734,13,0.0255972,10,8.4308e-05,-3.58214,-3.0564,-0.0193037,0.321998,
2,1,0,1,0,9178.91,0.341387,0.341112,0.257339,13,0.0266525,10,8.77813e-05,-3.58949,-3.03616,-0.0194324,0.340999,
2,1,0,0,0,9182.71,0.360364,0.360063,0.256545,13,0.0276951,10,9.23726e-05,-3.59084,-1.49839,-0.0393757,0.35995,
2,1,0,1,0,9186.5,0.379342,0.379047,0.252515,13,0.0287264,10,9.57153e-05,-3.59771,6.96454,0.00847148,0.378936,
2,1,0,1,0,9190.3,0.398319,0.398027,0.250472,13,0.0297482,10,9.96948e-05,-3.60124,-16.5021,-0.0035753,0.397917,
2,1,0,1,0,9194.09,0.417295,0.416986,0.249539,13,0.0307635,10,0.000104054,-3.60286,17.0661,0.00345715,0.416876,
2,1,0,1,0,9197.89,0.436272,0.436,0.2495,13,0.0317739,10,0.000108782,-3.60293,-4.10714,-0.0143652,0.43589,
2,1,0,1,0,9201.68,0.455249,0.454982,0.248951,13,0.0327825,10,0.000113268,-3.60389,1.18966,0.0495939,0.454873,
2,1,0,1,0,9205.48,0.474226,0.473906,0.251194,13,0.033794,10,0.000119042,-3.59999,0.761438,0.077485,0.473796,
2,1,0,1,0,9209.28,0.493203,0.492935,0.254254,13,0.0348125,10,0.000125331,-3.59473,1.05982,0.0556696,0.492823,
2,1,0,1,0,9213.07,0.512181,0.511892,0.258514,13,0.0358433,10,0.000132331,-3.58752,1.6029,0.0368082,0.511779,
2,1,0,0,0,9216.87,0.531158,0.530882,0.265369,13,0.0368967,10,0.00014088,-3.57615,1.62787,0.0362437,0.530765,
2,1,0,1,0,9220.66,0.550135,0.549833,0.275584,13,0.0379831,10,0.000151525,-3.55975,0.982759,0.0600351,0.549711,
2,1,0,0,0,9224.46,0.569112,0.568788,0.294765,13,0.039123,10,0.000167659,-3.53052,0.592089,0.0996473,0.568659,
2,1,0,1,0,9228.25,0.588089,0.587837,0.324599,13,0.0403502,10,0.000190811,-3.48865,0.328205,0.179766,0.587694,
2,1,0,0,0,9232.05,0.607066,0.606779,0.381716,13,0.0417369,10,0.000231617,-3.41826,0.2178,0.270891,0.606611,
2,1,0,1,0,9235.84,0.626044,0.625777,0.497096,13,0.0434396,10,0.000311072,-3.30356,0.13323,0.442842,0.625559,
2,1,0,1,0,9239.64,0.64502,0.644707,0.745548,13,0.0457986,10,0.000480661,-3.12752,0.0898573,0.656597,0.644379,
2,1,0,1,0,9243.43,0.663997,0.663754,1.29044,13,0.0495953,10,0.000856538,-2.88926,0.0708047,0.833278,0.663187,
2,1,0,1,0,9247.23,0.682974,0.682747,2.38914,13,0.0564149,10,0.00163118,-2.62176,0.0677481,0.870873,0.681696,
2,1,0,1,0,9251.03,0.701951,0.701676,4.30434,13,0.068892,10,0.00302026,-2.36609,0.075538,0.781064,0.699783,
2,1,0,1,0,9254.82,0.720928,0.720669,7.12555,13,0.0903683,10,0.00513516,-2.14718,0.0908273,0.649584,0.717534,
2,1,0,1,0,9258.62,0.739905,0.739624,10.7361,13,0.1241,10,0.00794071,-1.96915,0.106357,0.554734,0.7349,
2,1,0,1,0,9262.41,0.758883,0.758633,15.1419,13,0.172953,10,0.0114872,-1.81982,0.116881,0.504786,0.751971,
2,1,0,0,0,9266.21,0.77786,0.777504,20.8466,13,0.240886,10,0.0162083,-1.68097,0.121891,0.484039,0.768332,
2,1,0,1,0,9270,0.796837,0.79655,27.5718,13,0.332399,10,0.0219623,-1.55953,0.135479,0.435492,0.784418,
2,1,0,0,0,9273.8,0.815814,0.81554,35.1232,13,0.451377,10,0.0286444,-1.45441,0.161999,0.3642,0.800086,
2,1,0,1,0,9277.59,0.834791,0.834568,43.1972,13,0.60013,10,0.036051,-1.36454,0.223634,0.263824,0.815561,
2,1,0,1,0,9281.29,0.846727,0.846519,46.8924,13,0.771865,10,0.0396953,-1.3289,0.17323,0.340588,0.825886,
2,1,0,1,0,9285.08,0.827749,0.827523,38.1137,13,0.932872,10,0.0315399,-1.41892,0.161664,0.364953,0.810753,
2,1,0,1,0,9288.88,0.808772,0.808523,30.2706,13,1.0622,10,0.0244745,-1.51898,0.131983,0.447026,0.795204,
2,1,0,1,0,9292.68,0.789795,0.789529,23.4351,13,1.16309,10,0.0185027,-1.63013,0.112672,0.523643,0.779217,
2,1,0,1,0,9296.47,0.770818,0.77059,16.6667,13,1.2387,10,0.0128432,-1.77815,0.104111,0.566702,0.763257,
2,1,0,1,0,9300.27,0.751841,0.751545,11.3391,13,1.29133,10,0.00852187,-1.94542,0.093022,0.634259,0.746556,
2,1,0,1,0,9304.06,0.732865,0.732615,7.16636,13,1.32598,10,0.00525018,-2.1447,0.0844314,0.698792,0.729462,
2,1,0,1,0,9307.86,0.713887,0.713659,4.23091,13,1.34721,10,0.00301943,-2.37357,0.0729041,0.809282,0.711798,
2,1,0,0,0,9311.65,0.69491,0.694659,2.26407,13,1.35919,10,0.00157276,-2.64511,0.0623445,0.946354,0.693663,
2,1,0,1,0,9315.45,0.675933,0.675667,1.07493,13,1.36525,10,0.000726295,-2.96862,0.0531872,1.10929,0.675194,
2,1,0,0,0,9319.24,0.656956,0.656686,0.442848,13,1.36792,10,0.000290812,-3.35375,0.0432068,1.36552,0.656491,
2,1,0,1,0,9323.04,0.637979,0.637697,0.143508,13,1.3689,10,9.15148e-05,-3.84312,0.0317644,1.85742,0.637634,
2,1,0,0,0,9326.83,0.619002,0.618705,0.0159795,13,1.36909,10,9.88659e-06,-4.79644,0.00634911,9.29264,0.618698,
2,0,0,1,0,9330.63,0.600025,0.599758,-0.0417719,13,1.36896,10,-2.5053e-05,-4.37912,-0.0543267,-1.08602,0.599776,
2,0,0,1,0,9334.43,0.581047,0.580813,-0.0673802,13,1.36868,10,-3.91353e-05,-4.17147,-0.147981,-0.398699,0.580843,
2,0,0,1,0,9338.22,0.56207,0.561733,-0.0812755,13,1.36833,10,-4.56552e-05,-4.09004,-0.777554,-0.0758789,0.561769,
2,0,0,1,0,9342.02,0.543093,0.542764,-0.0888414,13,1.36794,10,-4.82199e-05,-4.05138,-0.597955,-0.0986696,0.542803,
2,0,0,1,0,9345.81,0.524116,0.523817,-0.0955643,13,1.36753,10,-5.00582e-05,-4.0197,-0.436301,-0.135228,0.523859,
2,0,0,1,0,9349.61,0.505139,0.50486,-0.0990973,13,1.36709,10,-5.00303e-05,-4.00394,-0.609248,-0.0968407,0.504904,
2,0,0,1,0,9353.4,0.486162,0.485808,-0.106269,13,1.36664,10,-5.16261e-05,-3.9736,-0.751938,-0.0784639,0.485855,
2,0,0,1,0,9357.2,0.467185,0.466891,-0.112867,13,1.36616,10,-5.26968e-05,-3.94743,-1.48411,-0.0397546,0.466941,
2,0,0,0,0,9360.99,0.448208,0.447925,-0.119519,13,1.36565,10,-5.35355e-05,-3.92256,-0.468699,-0.12588,0.447978,
2,0,0,1,0,9364.79,0.429231,0.428947,-0.128585,13,1.36511,10,-5.51563e-05,-3.89081,-1.23608,-0.0477317,0.429004,
2,0,0,0,0,9368.58,0.410254,0.409922,-0.13672,13,1.36454,10,-5.60444e-05,-3.86417,-8.18141,-0.00721147,0.409982,
2,0,0,1,0,9372.38,0.391277,0.390973,-0.148078,13,1.36393,10,-5.78947e-05,-3.82951,-0.722537,-0.0816567,0.391038,
2,0,0,0,0,9376.17,0.3723,0.372016,-0.157834,13,1.36328,10,-5.87167e-05,-3.8018,-0.49249,-0.119799,0.372086,
2,0,0,1,0,9379.97,0.353322,0.353044,-0.168632,13,1.3626,10,-5.95344e-05,-3.77306,-0.497407,-0.118615,0.353118,
2,0,0,1,0,9383.77,0.334345,0.334044,-0.179626,13,1.36186,10,-6.00029e-05,-3.74563,-0.83372,-0.0707672,0.334123,
2,0,0,1,0,9387.56,0.315368,0.315065,-0.192707,13,1.36108,10,-6.07153e-05,-3.7151,-0.783249,-0.0753272,0.31515,
2,0,0,1,0,9391.36,0.296391,0.296096,-0.205128,13,1.36026,10,-6.07376e-05,-3.68798,-0.68608,-0.0859958,0.296187,
2,0,0,1,0,9395.15,0.277414,0.277133,-0.216842,13,1.35939,10,-6.0094e-05,-3.66386,-1.1873,-0.0496927,0.277229,
2,0,0,1,0,9398.95,0.258437,0.258146,-0.229151,13,1.35847,10,-5.91542e-05,-3.63988,-0.73065,-0.08075,0.258247,
2,0,0,1,0,9402.74,0.239461,0.239157,-0.242789,13,1.3575,10,-5.80646e-05,-3.61477,-1.06697,-0.0552968,0.239264,
2,0,0,1,0,9406.54,0.220483,0.220192,-0.253825,13,1.35648,10,-5.589e-05,-3.59547,-0.934147,-0.0631592,0.220303,
2,0,0,0,0,9410.33,0.201506,0.201194,-0.269776,13,1.35541,10,-5.42773e-05,-3.569,-0.43448,-0.135794,0.201313,
2,0,0,1,0,9414.13,0.182529,0.18225,-0.293914,13,1.35426,10,-5.35658e-05,-3.53178,-0.318359,-0.185326,0.182379,
2,0,0,0,0,9417.92,0.163552,0.163258,-0.348987,13,1.35298,10,-5.69749e-05,-3.45719,-0.176442,-0.334388,0.163412,
2,0,0,1,0,9421.72,0.144575,0.14421,-0.520868,13,1.35131,10,-7.51145e-05,-3.28327,-0.0771297,-0.764945,0.144439,
2,0,0,0,0,9425.52,0.125598,0.125259,-0.774816,13,1.3487,10,-9.70524e-05,-3.1108,-0.388258,-0.151961,0.1256,
2,0,0,1,0,9429.31,0.10662,0.106279,-0.753739,13,1.34567,10,-8.01066e-05,-3.12278,0.47807,0.123413,0.106611,
2,0,0,1,0,9433.11,0.0876433,0.0873446,-0.679488,13,1.34287,10,-5.93496e-05,-3.16782,0.440961,0.133799,0.0876435,
2,0,0,1,0,9436.9,0.0686664,0.0683517,-0.626511,13,1.34032,10,-4.28231e-05,-3.20307,0.799499,0.0737962,0.0686274,
2,0,0,1,0,9440.7,0.0496895,0.0493655,-0.577108,13,1.33794,10,-2.84892e-05,-3.23874,0.51552,0.114448,0.0496194,
2,0,0,1,0,9444.49,0.0307126,0.0303492,-0.526096,13,1.33576,10,-1.59666e-05,-3.27893,0.503256,0.117237,0.0305807,
2,0,0,1,0,9448.29,0.0117356,0.0114074,-0.48983,13,1.33376,10,-5.58766e-06,-3.30995,1.979,0.0298131,0.0116229,
2,0,0,1,0,9450.58,0.000274105,-0.000135643,-0.491557,13,1.33258,10,6.66765e-08,-3.30843, , ,8.0642e-05,