Folder: Figs_alphaMnO2_OER_Tafel_sleope/Figure_codes/Fig_3-5/workspace_calculate_alpha_eff (part 24)

File: 20221101_1-115_003_TrumpetPlot_ParaChange_from10_every3_16_CV_C01_39.csv
mode,ox/red,error,control changes,counter inc.,time/s,control/V,Ewe/V,<I>/mA,cycle number,(Q-Qo)/C,I Range,P/W,log(|I|),Tafel slope mV/dec,alpha_eff,E-IR/V,
2,0,0,1,0,26841.8,2.44065e-05,-0.000325324,-0.0376989,40,0.0000000E+000,10,1.22644e-08,-4.42367, , ,-0.000308736,
2,1,0,1,0,26845.6,0.0187763,0.018473,0.273303,40,0.000930282,10,5.04874e-06,-3.56336,0.184222,0.320265,0.0183528,
2,1,0,0,0,26849.4,0.0377538,0.0374326,0.339681,40,0.00216218,10,1.27151e-05,-3.46893,0.208948,0.282367,0.0372831,
2,1,0,1,0,26853.2,0.0567309,0.056399,0.400256,40,0.00364371,10,2.2574e-05,-3.39766,0.356556,0.165472,0.0562229,
2,1,0,0,0,26857,0.075708,0.075357,0.444653,40,0.00532612,10,3.35077e-05,-3.35198,0.620526,0.0950806,0.0751613,
2,1,0,1,0,26860.7,0.0946851,0.0943722,0.500424,40,0.00717127,10,4.72261e-05,-3.30066,0.261635,0.225505,0.094152,
2,1,0,0,0,26864.5,0.113662,0.113338,0.599076,40,0.00933029,10,6.78978e-05,-3.22252,0.376281,0.156798,0.113074,
2,1,0,1,0,26868.3,0.132639,0.132299,0.650257,40,0.0117859,10,8.60282e-05,-3.18691,-1.09295,-0.0539822,0.132013,
2,1,0,1,0,26872.1,0.151617,0.151304,0.434441,40,0.013988,10,6.57325e-05,-3.36207,-0.0800073,-0.737432,0.151112,
2,1,0,1,0,26875.9,0.170594,0.170323,0.328662,40,0.015439,10,5.59787e-05,-3.48325,-0.295646,-0.199563,0.170178,
2,1,0,1,0,26879.7,0.189571,0.189313,0.304653,40,0.0166925,10,5.76748e-05,-3.51619,-1.13494,-0.0519853,0.189179,
2,1,0,1,0,26883.5,0.208547,0.208264,0.294593,40,0.0178863,10,6.13531e-05,-3.53078,-1.37365,-0.0429512,0.208134,
2,1,0,1,0,26887.3,0.227524,0.227195,0.28693,40,0.0190461,10,6.51892e-05,-3.54222,-2.10838,-0.0279836,0.227069,
2,1,0,1,0,26891.1,0.246501,0.246204,0.282016,40,0.0201845,10,6.94334e-05,-3.54973,-0.832598,-0.0708626,0.24608,
2,1,0,1,0,26894.9,0.265479,0.265134,0.276929,40,0.0213057,10,7.34233e-05,-3.55763,-2.02477,-0.029139,0.265012,
2,1,0,0,0,26898.7,0.284456,0.284184,0.273642,40,0.0224097,10,7.77645e-05,-3.56282,-2.56997,-0.0229575,0.284063,
2,1,0,1,0,26902.5,0.303433,0.303124,0.270304,40,0.0234965,10,8.19355e-05,-3.56815,-2.84867,-0.0207114,0.303005,
2,1,0,0,0,26906.3,0.32241,0.322098,0.265831,40,0.0245689,10,8.56235e-05,-3.57539,-6.35388,-0.00928567,0.321981,
2,1,0,1,0,26910.1,0.341387,0.341112,0.263328,40,0.0256281,10,8.98243e-05,-3.5795,-11.9663,-0.00493052,0.340996,
2,1,0,0,0,26913.9,0.360364,0.360038,0.261111,40,0.0266754,10,9.40098e-05,-3.58318,2.70856,0.0217828,0.359923,
2,1,0,1,0,26917.7,0.379342,0.37905,0.258568,40,0.0277124,10,9.80102e-05,-3.58743,-1.67581,-0.0352069,0.378937,
2,1,0,1,0,26921.5,0.398319,0.398019,0.256137,40,0.028741,10,0.000101947,-3.59153,24.5884,0.00239951,0.397906,
2,1,0,1,0,26925.3,0.417295,0.417,0.25424,40,0.029763,10,0.000106018,-3.59476,6.42983,0.00917598,0.416888,
2,1,0,1,0,26929.1,0.436272,0.435975,0.254001,40,0.0307775,10,0.000110738,-3.59516,-4.70846,-0.0125306,0.435863,
2,1,0,1,0,26932.9,0.455249,0.454961,0.253123,40,0.0317891,10,0.000115161,-3.59667,1.86588,0.0316205,0.45485,
2,1,0,1,0,26936.7,0.474226,0.473917,0.254463,40,0.0328022,10,0.000120594,-3.59438,1.78054,0.033136,0.473805,
2,1,0,1,0,26940.4,0.493203,0.492919,0.257424,40,0.0338211,10,0.000126889,-3.58935,0.985027,0.0598968,0.492806,
2,1,0,1,0,26944.2,0.512181,0.511843,0.260737,40,0.0348515,10,0.000133456,-3.5838,2.23782,0.0263649,0.511728,
2,1,0,0,0,26948,0.531158,0.530847,0.268349,40,0.0359011,10,0.000142452,-3.5713,6.47779,0.00910805,0.530729,
2,1,0,1,0,26951.8,0.550135,0.549846,0.276061,40,0.0369789,10,0.000151791,-3.559,0.961156,0.0613844,0.549725,
2,1,0,0,0,26955.6,0.569112,0.568797,0.291677,40,0.038099,10,0.000165905,-3.5351,0.740241,0.0797038,0.568669,
2,1,0,1,0,26959.4,0.588089,0.58778,0.314462,40,0.0392865,10,0.000184835,-3.50243,0.384544,0.153428,0.587642,
2,1,0,0,0,26963.2,0.607066,0.606765,0.355698,40,0.0405919,10,0.000215825,-3.44892,0.270468,0.218141,0.606608,
2,1,0,1,0,26967,0.626044,0.625824,0.436615,40,0.042121,10,0.000273244,-3.3599,0.167673,0.351875,0.625632,
2,1,0,1,0,26970.8,0.64502,0.644729,0.60202,40,0.0440973,10,0.00038814,-3.22039,0.109251,0.540042,0.644464,
2,1,0,1,0,26974.6,0.663997,0.663698,0.956313,40,0.0470206,10,0.000634703,-3.0194,0.0840003,0.702378,0.663277,
2,1,0,1,0,26978.4,0.682974,0.682682,1.65521,40,0.0518831,10,0.00112998,-2.78115,0.0751402,0.785198,0.681953,
2,1,0,1,0,26982.2,0.701951,0.701651,2.86598,40,0.060325,10,0.00201091,-2.54273,0.0809451,0.728889,0.70039,
2,1,0,1,0,26986,0.720928,0.720637,4.66741,40,0.0744732,10,0.00336351,-2.33092,0.0924837,0.63795,0.718584,
2,1,0,1,0,26989.8,0.739905,0.739635,7.07196,40,0.0966097,10,0.00523067,-2.15046,0.106673,0.553091,0.736524,
2,1,0,1,0,26993.6,0.758883,0.758599,10.1022,40,0.129036,10,0.00766355,-1.99558,0.11932,0.49447,0.754154,
2,1,0,0,0,26997.4,0.77786,0.777568,13.9877,40,0.174442,10,0.0108764,-1.85425,0.122227,0.482707,0.771413,
2,1,0,1,0,27001.2,0.796837,0.796564,19.1257,40,0.236903,10,0.0152348,-1.71838,0.122934,0.479931,0.788149,
2,1,0,0,0,27005,0.815814,0.815575,25.4456,40,0.321261,10,0.0207528,-1.59439,0.141933,0.41569,0.804379,
2,1,0,1,0,27008.8,0.834791,0.834514,32.5718,40,0.431172,10,0.0271816,-1.48716,0.157412,0.374814,0.820182,
2,1,0,1,0,27012.5,0.846727,0.846494,35.9047,40,0.56246,10,0.0303931,-1.44485,0.122155,0.482992,0.830696,
2,1,0,1,0,27016.3,0.827749,0.827575,27.4804,40,0.682137,10,0.0227421,-1.56098,0.131128,0.449942,0.815484,
2,1,0,1,0,27020.1,0.808772,0.808486,20.5557,40,0.772837,10,0.016619,-1.68707,0.121106,0.487177,0.799441,
2,1,0,1,0,27023.8,0.789795,0.789512,14.859,40,0.839603,10,0.0117313,-1.82801,0.110893,0.532043,0.782974,
2,1,0,1,0,27027.6,0.770818,0.770528,10.3871,40,0.887071,10,0.00800357,-1.9835,0.106905,0.551894,0.765958,
2,1,0,1,0,27031.4,0.751841,0.751591,7.02112,40,0.919748,10,0.00527701,-2.15359,0.0990667,0.595558,0.748502,
2,1,0,1,0,27035.2,0.732865,0.73257,4.51078,40,0.941348,10,0.00330446,-2.34575,0.0872397,0.676298,0.730585,
2,1,0,1,0,27039,0.713887,0.713603,2.70143,40,0.954795,10,0.00192775,-2.56841,0.0755452,0.780989,0.712414,
2,1,0,0,0,27042.8,0.69491,0.694656,1.46862,40,0.962503,10,0.00102019,-2.83309,0.0631803,0.933835,0.694009,
2,1,0,1,0,27046.6,0.675933,0.675654,0.698609,40,0.966445,10,0.000472018,-3.15577,0.0520576,1.13336,0.675347,
2,1,0,0,0,27050.4,0.656956,0.65667,0.275943,40,0.968161,10,0.000181203,-3.55918,0.0404251,1.45949,0.656548,
2,1,0,1,0,27054.2,0.637979,0.637705,0.069253,40,0.968721,10,4.4163e-05,-4.15956,0.0218786,2.6967,0.637675,
2,0,0,0,0,27058,0.619002,0.618708,-0.020239,40,0.968745,10,-1.2522e-05,-4.69381,-0.0142327,-4.14539,0.618717,
2,0,0,1,0,27061.8,0.600025,0.599692,-0.0591452,40,0.96854,10,-3.54689e-05,-4.22808,-0.107001,-0.551397,0.599718,
2,0,0,1,0,27065.6,0.581047,0.580733,-0.0791266,40,0.968231,10,-4.59514e-05,-4.10168,-0.220657,-0.267383,0.580767,
2,0,0,1,0,27069.4,0.56207,0.561753,-0.0874769,40,0.967871,10,-4.91405e-05,-4.05811,-0.811063,-0.072744,0.561792,
2,0,0,1,0,27073.2,0.543093,0.542806,-0.0941816,40,0.96748,10,-5.11224e-05,-4.02603,-0.793413,-0.0743623,0.542848,
2,0,0,1,0,27077,0.524116,0.523808,-0.098885,40,0.967067,10,-5.17968e-05,-4.00487,-2.032,-0.0290354,0.523852,
2,0,0,1,0,27080.8,0.505139,0.504817,-0.104814,40,0.966634,10,-5.29118e-05,-3.97958,7.2842,0.00809973,0.504864,
2,0,0,1,0,27084.6,0.486162,0.485881,-0.110017,40,0.966181,10,-5.34554e-05,-3.95854,-2.1891,-0.0269517,0.485929,
2,0,0,1,0,27088.4,0.467185,0.466889,-0.11582,40,0.965703,10,-5.40753e-05,-3.93622,-0.698217,-0.0845009,0.46694,
2,0,0,0,0,27092.2,0.448208,0.447924,-0.123828,40,0.965199,10,-5.54657e-05,-3.90718,-0.648329,-0.0910032,0.447979,
2,0,0,1,0,27096,0.429231,0.428927,-0.132028,40,0.964664,10,-5.66302e-05,-3.87934,-7.02709,-0.00839608,0.428985,
2,0,0,0,0,27099.8,0.410254,0.409913,-0.141817,40,0.964095,10,-5.81326e-05,-3.84827,-2.45732,-0.0240099,0.409976,
2,0,0,1,0,27103.6,0.391277,0.390969,-0.150704,40,0.963489,10,-5.89204e-05,-3.82188,-0.486367,-0.121308,0.391035,
2,0,0,0,0,27107.3,0.3723,0.371938,-0.161283,40,0.962845,10,-5.99872e-05,-3.79241,-1.0215,-0.0577584,0.372009,
2,0,0,1,0,27111.1,0.353322,0.353038,-0.171501,40,0.962161,10,-6.05464e-05,-3.76573,-0.895516,-0.0658838,0.353113,
2,0,0,1,0,27114.9,0.334345,0.334082,-0.182477,40,0.961435,10,-6.09623e-05,-3.73879,-1.33312,-0.044257,0.334162,
2,0,0,1,0,27118.7,0.315368,0.315036,-0.194858,40,0.960664,10,-6.13872e-05,-3.71028,-0.654238,-0.0901812,0.315122,
2,0,0,1,0,27122.5,0.296391,0.296097,-0.207713,40,0.959846,10,-6.15031e-05,-3.68254,-0.764657,-0.0771588,0.296188,
2,0,0,1,0,27126.3,0.277414,0.277107,-0.21959,40,0.958981,10,-6.08498e-05,-3.65839,-0.579458,-0.101819,0.277203,
2,0,0,1,0,27130.1,0.258437,0.258165,-0.231579,40,0.958067,10,-5.97857e-05,-3.6353,-0.591015,-0.0998282,0.258267,
2,0,0,1,0,27133.9,0.239461,0.23918,-0.244519,40,0.957107,10,-5.8484e-05,-3.61169,-0.88758,-0.0664729,0.239287,
2,0,0,1,0,27137.7,0.220483,0.220214,-0.255711,40,0.9561,10,-5.6311e-05,-3.59225,-0.860392,-0.0685734,0.220326,
2,0,0,0,0,27141.5,0.201506,0.201184,-0.26973,40,0.955043,10,-5.42653e-05,-3.56907,-0.578845,-0.101927,0.201302,
2,0,0,1,0,27145.3,0.182529,0.182247,-0.28961,40,0.953921,10,-5.27806e-05,-3.53819,-0.372215,-0.15851,0.182374,
2,0,0,0,0,27149.1,0.163552,0.163213,-0.328974,40,0.952694,10,-5.36927e-05,-3.48284,-0.26417,-0.223341,0.163357,
2,0,0,1,0,27152.9,0.144575,0.14424,-0.44236,40,0.951214,10,-6.38059e-05,-3.35422,-0.0939946,-0.627696,0.144435,
2,0,0,0,0,27156.7,0.125598,0.12529,-0.67542,40,0.949005,10,-8.46236e-05,-3.17043,-0.190688,-0.309406,0.125588,
2,0,0,1,0,27160.5,0.10662,0.106277,-0.709434,40,0.946251,10,-7.53965e-05,-3.14909,1.09107,0.0540755,0.106589,
2,0,0,1,0,27164.3,0.0876433,0.0872832,-0.664159,40,0.943574,10,-5.79699e-05,-3.17773,0.498772,0.118291,0.0875755,
2,0,0,1,0,27168.1,0.0686664,0.0683698,-0.620473,40,0.941077,10,-4.24216e-05,-3.20728,0.809569,0.0728783,0.0686428,
2,0,0,1,0,27171.9,0.0496895,0.0493675,-0.575651,40,0.938736,10,-2.84185e-05,-3.23984,0.513304,0.114942,0.0496208,
2,0,0,1,0,27175.7,0.0307126,0.0304138,-0.529026,40,0.936569,10,-1.60897e-05,-3.27652,0.533044,0.110685,0.0306466,
2,0,0,1,0,27179.5,0.0117356,0.0113936,-0.495411,40,0.934566,10,-5.6445e-06,-3.30503,1.08269,0.0544938,0.0116116,
2,0,0,1,0,27181.8,0.000274105,-0.00010224,-0.493926,40,0.933395,10,5.04992e-08,-3.30634, , ,0.000115087,

File: 20221101_1-115_003_TrumpetPlot_ParaChange_from10_every3_16_CV_C01_40.csv
mode,ox/red,error,control changes,counter inc.,time/s,control/V,Ewe/V,<I>/mA,cycle number,(Q-Qo)/C,I Range,P/W,log(|I|),Tafel slope mV/dec,alpha_eff,E-IR/V,
2,0,0,0,0,27211.8,2.44065e-05,-0.00042076,-0.104482,41,0.0000000E+000,10,4.3962e-08,-3.98096, , ,-0.000374788,
2,1,0,1,0,27215.6,0.0187763,0.0184689,0.221682,41,0.000733291,10,4.09422e-06,-3.65427,0.144021,0.409662,0.0183713,
2,1,0,1,0,27219.4,0.0377538,0.0374623,0.288962,41,0.00176911,10,1.08252e-05,-3.53916,0.190103,0.310358,0.0373351,
2,1,0,0,0,27223.2,0.0567309,0.056417,0.352233,41,0.00306015,10,1.98719e-05,-3.45317,0.28771,0.205068,0.056262,
2,1,0,1,0,27227,0.075708,0.0753898,0.402696,41,0.00456852,10,3.03592e-05,-3.39502,0.562531,0.104883,0.0752126,
2,1,0,0,0,27230.7,0.0946851,0.0943626,0.456619,41,0.00625292,10,4.30877e-05,-3.34045,0.235767,0.250247,0.0941617,
2,1,0,1,0,27234.5,0.113662,0.113335,0.560455,41,0.00825548,10,6.35194e-05,-3.25146,0.313263,0.18834,0.113089,
2,1,0,0,0,27238.3,0.132639,0.13235,0.612033,41,0.0105668,10,8.10023e-05,-3.21323,-1.21848,-0.0484209,0.13208,
2,1,0,1,0,27242.1,0.151617,0.151344,0.402372,41,0.0126445,10,6.08966e-05,-3.39537,-0.0760677,-0.775625,0.151167,
2,1,0,1,0,27245.9,0.170594,0.17028,0.294741,41,0.0139727,10,5.01884e-05,-3.53056,-0.254089,-0.232203,0.17015,
2,1,0,1,0,27249.7,0.189571,0.189235,0.271014,41,0.0151017,10,5.12854e-05,-3.56701,-0.861072,-0.0685193,0.189116,
2,1,0,1,0,27253.5,0.208547,0.208272,0.260134,41,0.0161682,10,5.41784e-05,-3.5848,-1.20504,-0.048961,0.208157,
2,1,0,1,0,27257.3,0.227524,0.227216,0.251757,41,0.0171988,10,5.72032e-05,-3.59902,-1.25131,-0.0471505,0.227106,
2,1,0,1,0,27261.1,0.246501,0.2462,0.246709,41,0.0182038,10,6.07396e-05,-3.60782,-1.05964,-0.0556794,0.246091,
2,1,0,0,0,27264.9,0.265479,0.26517,0.242763,41,0.0191917,10,6.43734e-05,-3.61482,-1.18974,-0.0495906,0.265063,
2,1,0,1,0,27268.7,0.284456,0.284149,0.238552,41,0.0201636,10,6.77844e-05,-3.62242,-2.20824,-0.0267182,0.284044,
2,1,0,0,0,27272.5,0.303433,0.303121,0.233822,41,0.0211176,10,7.08762e-05,-3.63111,-1.14167,-0.0516785,0.303018,
2,1,0,1,0,27276.3,0.32241,0.322098,0.230886,41,0.0220558,10,7.43679e-05,-3.6366,-4.04296,-0.0145933,0.321996,
2,1,0,0,0,27280.1,0.341387,0.341076,0.228215,41,0.0229808,10,7.78387e-05,-3.64166,-5.43845,-0.0108487,0.340975,
2,1,0,1,0,27283.9,0.360364,0.360071,0.22562,41,0.0238951,10,8.12391e-05,-3.64662,-2.79776,-0.0210883,0.359972,
2,1,0,1,0,27287.7,0.379342,0.379051,0.223607,41,0.0247997,10,8.47585e-05,-3.65051,-4.01999,-0.0146766,0.378953,
2,1,0,1,0,27291.5,0.398319,0.397994,0.221063,41,0.0256951,10,8.7982e-05,-3.65548,-9.92922,-0.00594206,0.397897,
2,1,0,1,0,27295.3,0.417295,0.417045,0.221476,41,0.0265849,10,9.23654e-05,-3.65467,-7.70196,-0.00766039,0.416948,
2,1,0,1,0,27299.1,0.436272,0.435986,0.220946,41,0.0274714,10,9.63293e-05,-3.65571,6.51611,0.00905448,0.435889,
2,1,0,1,0,27302.9,0.455249,0.454989,0.220591,41,0.0283567,10,0.000100366,-3.65641,1.86674,0.0316059,0.454892,
2,1,0,1,0,27306.7,0.474226,0.473929,0.221492,41,0.0292436,10,0.000104971,-3.65464,2.54814,0.0231541,0.473831,
2,1,0,1,0,27310.4,0.493203,0.49286,0.226325,41,0.0301379,10,0.000111546,-3.64527,1.4395,0.0409865,0.49276,
2,1,0,0,0,27314.2,0.512181,0.511837,0.230094,41,0.0310463,10,0.000117771,-3.63809,45.8997,0.00128541,0.511736,
2,1,0,1,0,27318,0.531158,0.530868,0.235921,41,0.0319742,10,0.000125243,-3.62723,1.57939,0.0373562,0.530765,
2,1,0,0,0,27321.8,0.550135,0.5498,0.245088,41,0.032931,10,0.000134749,-3.61068,0.839611,0.0702707,0.549692,
2,1,0,1,0,27325.6,0.569112,0.568848,0.260155,41,0.0339322,10,0.000147989,-3.58477,0.594839,0.0991866,0.568733,
2,1,0,0,0,27329.4,0.588089,0.587785,0.283038,41,0.0350024,10,0.000166365,-3.54816,0.449317,0.13131,0.58766,
2,1,0,1,0,27333.2,0.607066,0.606793,0.323123,41,0.0361884,10,0.000196069,-3.49063,0.266923,0.221038,0.606651,
2,1,0,1,0,27337,0.626044,0.625767,0.401117,41,0.0375891,10,0.000251005,-3.39673,0.159087,0.370865,0.62559,
2,1,0,1,0,27340.8,0.64502,0.644713,0.563116,41,0.0394269,10,0.000363048,-3.2494,0.109995,0.536389,0.644465,
2,1,0,1,0,27344.6,0.663997,0.66367,0.90767,41,0.0421823,10,0.000602393,-3.04207,0.0804435,0.733434,0.66327,
2,1,0,1,0,27348.4,0.682974,0.682705,1.58784,41,0.0468283,10,0.00108402,-2.79919,0.0760783,0.775517,0.682006,
2,1,0,1,0,27352.2,0.701951,0.701648,2.77725,41,0.054979,10,0.00194865,-2.55639,0.0798161,0.7392,0.700426,
2,1,0,1,0,27356,0.720928,0.720639,4.5508,41,0.0687398,10,0.00327949,-2.34191,0.0917527,0.643033,0.718637,
2,1,0,1,0,27359.8,0.739905,0.73965,6.92689,41,0.0903757,10,0.00512348,-2.15946,0.104636,0.56386,0.736602,
2,1,0,0,0,27363.6,0.758883,0.758619,9.93197,41,0.122202,10,0.00753458,-2.00296,0.118893,0.496243,0.754249,
2,1,0,1,0,27367.4,0.77786,0.777603,13.7949,41,0.166932,10,0.0107269,-1.86028,0.119155,0.495153,0.771533,
2,1,0,0,0,27371.2,0.796837,0.796571,18.8603,41,0.228629,10,0.0150235,-1.72445,0.114457,0.515478,0.788273,
2,1,0,1,0,27375,0.815814,0.815568,25.5369,41,0.312729,10,0.0208271,-1.59283,0.132977,0.443687,0.804332,
2,1,0,0,0,27378.8,0.834791,0.834547,33.0673,41,0.423933,10,0.0275962,-1.4806,0.156178,0.377775,0.819997,
2,1,0,0,0,27382.5,0.846727,0.846486,37.1664,41,0.559026,10,0.0314608,-1.42985,0.121046,0.487419,0.830132,
2,1,0,1,0,27386.3,0.827749,0.827479,28.0811,41,0.681909,10,0.0232365,-1.55159,0.129936,0.454068,0.815124,
2,1,0,1,0,27390.1,0.808772,0.80852,20.8612,41,0.774494,10,0.0168667,-1.68066,0.115643,0.510192,0.799341,
2,1,0,1,0,27393.8,0.789795,0.789533,15.0296,41,0.842146,10,0.0118663,-1.82305,0.110966,0.531696,0.78292,
2,1,0,1,0,27397.6,0.770818,0.770532,10.4957,41,0.890128,10,0.00808728,-1.97899,0.10557,0.558871,0.765914,
2,1,0,1,0,27401.4,0.751841,0.751552,7.03554,41,0.923084,10,0.00528757,-2.1527,0.0982506,0.600506,0.748456,
2,1,0,1,0,27405.2,0.732865,0.732643,4.52124,41,0.944737,10,0.00331245,-2.34474,0.0866166,0.681163,0.730654,
2,1,0,0,0,27409,0.713887,0.713638,2.70418,41,0.958207,10,0.0019298,-2.56796,0.0746147,0.790729,0.712448,
2,1,0,1,0,27412.8,0.69491,0.694674,1.46063,41,0.965902,10,0.00101466,-2.83546,0.0625007,0.943989,0.694031,
2,1,0,0,0,27416.6,0.675933,0.675664,0.683848,41,0.969798,10,0.000462051,-3.16504,0.0509411,1.1582,0.675363,
2,1,0,1,0,27420.4,0.656956,0.656682,0.25762,41,0.971452,10,0.000169175,-3.58902,0.0368125,1.60272,0.656569,
2,1,0,0,0,27424.2,0.637979,0.637706,0.0511541,41,0.971943,10,3.26213e-05,-4.29112,0.0163088,3.61768,0.637684,
2,0,0,1,0,27428,0.619002,0.618726,-0.0394672,41,0.971896,10,-2.44194e-05,-4.40376,-0.032199,-1.83235,0.618744,
2,0,0,0,0,27431.8,0.600025,0.599763,-0.0787011,41,0.971618,10,-4.7202e-05,-4.10402,-0.14963,-0.394306,0.599798,
2,0,0,1,0,27435.6,0.581047,0.580746,-0.0971165,41,0.971236,10,-5.64001e-05,-4.01271,-0.267871,-0.220255,0.580789,
2,0,0,1,0,27439.4,0.56207,0.561773,-0.106515,41,0.970806,10,-5.98374e-05,-3.97259,-0.855728,-0.0689471,0.56182,
2,0,0,1,0,27443.2,0.543093,0.542775,-0.112634,41,0.970348,10,-6.11347e-05,-3.94833,-0.843347,-0.0699593,0.542824,
2,0,0,1,0,27447,0.524116,0.523856,-0.116878,41,0.969869,10,-6.12271e-05,-3.93227,-1.29633,-0.0455132,0.523907,
2,0,0,1,0,27450.8,0.505139,0.504861,-0.121954,41,0.969371,10,-6.15698e-05,-3.9138,-2.13344,-0.0276549,0.504915,
2,0,0,1,0,27454.6,0.486162,0.485831,-0.127052,41,0.968854,10,-6.17257e-05,-3.89602,-0.785245,-0.0751358,0.485887,
2,0,0,1,0,27458.4,0.467185,0.46694,-0.133211,41,0.968315,10,-6.22015e-05,-3.87546,-1.37811,-0.0428121,0.466999,
2,0,0,1,0,27462.2,0.448208,0.44788,-0.140387,41,0.967752,10,-6.28766e-05,-3.85267,-1.73729,-0.0339609,0.447942,
2,0,0,0,0,27466,0.429231,0.428963,-0.148345,41,0.967159,10,-6.36345e-05,-3.82873,-49.7926,-0.00118492,0.429029,
2,0,0,1,0,27469.8,0.410254,0.409932,-0.156591,41,0.966535,10,-6.41918e-05,-3.80523,-0.704918,-0.0836977,0.410001,
2,0,0,0,0,27473.6,0.391277,0.390959,-0.165932,41,0.965874,10,-6.48725e-05,-3.78007,-0.846975,-0.0696596,0.391032,
2,0,0,1,0,27477.3,0.3723,0.371957,-0.176606,41,0.965176,10,-6.56896e-05,-3.753,-0.493205,-0.119626,0.372035,
2,0,0,1,0,27481.1,0.353322,0.353035,-0.185267,41,0.964437,10,-6.54055e-05,-3.7322,-0.691881,-0.0852748,0.353116,
2,0,0,1,0,27484.9,0.334345,0.334,-0.196595,41,0.963658,10,-6.5663e-05,-3.70643,-0.567348,-0.103993,0.334087,
2,0,0,1,0,27488.7,0.315368,0.315073,-0.207203,41,0.962836,10,-6.52841e-05,-3.6836,-1.02627,-0.0574899,0.315165,
2,0,0,1,0,27492.5,0.296391,0.296074,-0.221332,41,0.961969,10,-6.55307e-05,-3.65496,-0.977373,-0.0603659,0.296172,
2,0,0,1,0,27496.3,0.277414,0.277069,-0.23218,41,0.961055,10,-6.43297e-05,-3.63418,-0.631203,-0.0934723,0.277171,
2,0,0,1,0,27500.1,0.258437,0.258096,-0.2452,41,0.960094,10,-6.3285e-05,-3.61048,-0.85545,-0.0689696,0.258204,
2,0,0,1,0,27503.9,0.239461,0.239142,-0.255949,41,0.959089,10,-6.12081e-05,-3.59185,-0.983794,-0.0599719,0.239254,
2,0,0,0,0,27507.7,0.220483,0.22019,-0.268252,41,0.958039,10,-5.90665e-05,-3.57146,-0.651559,-0.090552,0.220308,
2,0,0,1,0,27511.5,0.201506,0.201185,-0.280675,41,0.956939,10,-5.64675e-05,-3.5518,-0.525611,-0.11225,0.201308,
2,0,0,0,0,27515.3,0.182529,0.182226,-0.300854,41,0.955778,10,-5.48234e-05,-3.52164,-0.437976,-0.134711,0.182358,
2,0,0,1,0,27519.1,0.163552,0.163232,-0.338486,41,0.954515,10,-5.52517e-05,-3.47046,-0.285103,-0.206943,0.163381,
2,0,0,0,0,27522.9,0.144575,0.144295,-0.450463,41,0.953,10,-6.49996e-05,-3.34634,-0.0948871,-0.621792,0.144493,
2,0,0,1,0,27526.7,0.125598,0.125271,-0.682983,41,0.950765,10,-8.55582e-05,-3.16559,-0.194187,-0.30383,0.125572,
2,0,0,1,0,27530.5,0.10662,0.106283,-0.717545,41,0.947983,10,-7.6263e-05,-3.14415,1.17701,0.0501268,0.106599,
2,0,0,1,0,27534.3,0.0876433,0.0873214,-0.672068,41,0.945276,10,-5.86859e-05,-3.17259,0.676147,0.0872591,0.0876171,
2,0,0,1,0,27538.1,0.0686664,0.0683507,-0.626114,41,0.942751,10,-4.27953e-05,-3.20335,0.744897,0.0792056,0.0686262,
2,0,0,1,0,27541.9,0.0496895,0.0493527,-0.583252,41,0.940384,10,-2.87851e-05,-3.23414,0.568023,0.103869,0.0496094,
2,0,0,1,0,27545.7,0.0307126,0.0304215,-0.535462,41,0.938194,10,-1.62895e-05,-3.27127,0.524084,0.112577,0.0306571,
2,0,0,1,0,27549.5,0.0117356,0.011418,-0.500628,41,0.936171,10,-5.71615e-06,-3.30049,1.25593,0.0469773,0.0116382,
2,0,0,0,0,27551.8,0.000274105,-0.000115363,-0.501234,41,0.934986,10,5.78238e-08,-3.29996, , ,0.00010518,