Folder: Figs_alphaMnO2_OER_Tafel_sleope/Figure_codes/Fig_3-5/workspace_calculate_alpha_eff (part 27)

File: 20221101_1-115_003_TrumpetPlot_ParaChange_from10_every3_16_CV_C01_45.csv
mode,ox/red,error,control changes,counter inc.,time/s,control/V,Ewe/V,<I>/mA,cycle number,(Q-Qo)/C,I Range,P/W,log(|I|),Tafel slope mV/dec,alpha_eff,E-IR/V,
2,0,0,1,0,30782.1,2.44065e-05,-0.0002108,-0.0440593,46,0.0000000E+000,10,9.28767e-09,-4.35596, , ,-0.000191414,
2,1,0,1,0,30785.8,0.0187763,0.0184572,0.269671,46,0.000903285,10,4.97739e-06,-3.56917,0.159687,0.369473,0.0183386,
2,1,0,0,0,30789.6,0.0377538,0.0373976,0.334818,46,0.00211109,10,1.25214e-05,-3.47519,0.245736,0.240096,0.0372503,
2,1,0,1,0,30793.4,0.0567309,0.0564329,0.395838,46,0.00356406,10,2.23383e-05,-3.40248,0.33831,0.174396,0.0562588,
2,1,0,0,0,30797.2,0.075708,0.0753591,0.439444,46,0.0052182,10,3.31161e-05,-3.3571,0.703421,0.0838758,0.0751657,
2,1,0,1,0,30801,0.0946851,0.0943679,0.493466,46,0.00703144,10,4.65673e-05,-3.30674,0.276388,0.213468,0.0941508,
2,1,0,0,0,30804.8,0.113662,0.113361,0.590701,46,0.00914887,10,6.69623e-05,-3.22863,0.372489,0.158394,0.113101,
2,1,0,1,0,30808.6,0.132639,0.132265,0.637238,46,0.0115545,10,8.42841e-05,-3.1957,-0.866349,-0.0681018,0.131984,
2,1,0,1,0,30812.4,0.151617,0.151328,0.430793,46,0.0137182,10,6.51911e-05,-3.36573,-0.081815,-0.721139,0.151138,
2,1,0,1,0,30816.2,0.170594,0.170269,0.327559,46,0.0151534,10,5.57731e-05,-3.48471,-0.333556,-0.176882,0.170125,
2,1,0,1,0,30820,0.189571,0.189267,0.305172,46,0.0163976,10,5.7759e-05,-3.51546,-0.68192,-0.0865204,0.189133,
2,1,0,1,0,30823.8,0.208547,0.208244,0.295086,46,0.0175852,10,6.14499e-05,-3.53005,-2.04403,-0.0288646,0.208114,
2,1,0,1,0,30827.6,0.227524,0.227204,0.28747,46,0.0187414,10,6.53143e-05,-3.54141,-0.689968,-0.0855112,0.227077,
2,1,0,1,0,30831.4,0.246501,0.246221,0.283498,46,0.0198763,10,6.98032e-05,-3.54745,-1.06247,-0.0555311,0.246096,
2,1,0,1,0,30835.2,0.265479,0.265171,0.278599,46,0.0209952,10,7.38763e-05,-3.55502,-1.97701,-0.029843,0.265048,
2,1,0,0,0,30839,0.284456,0.284152,0.275189,46,0.0220976,10,7.81955e-05,-3.56037,-3.1673,-0.0186278,0.284031,
2,1,0,1,0,30842.8,0.303433,0.303114,0.269865,46,0.0231827,10,8.18e-05,-3.56885,-5.69111,-0.010367,0.302996,
2,1,0,0,0,30846.6,0.32241,0.322158,0.266806,46,0.0242519,10,8.59536e-05,-3.5738,1.87809,0.031415,0.322041,
2,1,0,1,0,30850.3,0.341387,0.341097,0.263581,46,0.0253076,10,8.99068e-05,-3.57909,-2.82377,-0.0208941,0.340981,
2,1,0,0,0,30854.1,0.360364,0.36002,0.262408,46,0.0263515,10,9.44721e-05,-3.58102,-2.72931,-0.0216172,0.359904,
2,1,0,1,0,30857.9,0.379342,0.379029,0.26009,46,0.0273852,10,9.85816e-05,-3.58488,-2.64437,-0.0223115,0.378915,
2,1,0,1,0,30861.7,0.398319,0.398002,0.256329,46,0.0284099,10,0.00010202,-3.5912,-8.40381,-0.00702062,0.397889,
2,1,0,1,0,30865.5,0.417295,0.417012,0.255246,46,0.029426,10,0.000106441,-3.59304,3.54534,0.0166416,0.416899,
2,1,0,1,0,30869.3,0.436272,0.435974,0.25492,46,0.0304361,10,0.000111138,-3.5936,8.79904,0.00670527,0.435861,
2,1,0,1,0,30873.1,0.455249,0.454936,0.254205,46,0.0314434,10,0.000115647,-3.59482,1.38007,0.0427515,0.454824,
2,1,0,1,0,30876.9,0.474226,0.473893,0.255459,46,0.0324529,10,0.00012106,-3.59268,2.79318,0.0211228,0.473781,
2,1,0,1,0,30880.7,0.493203,0.492897,0.258045,46,0.0334674,10,0.00012719,-3.5883,1.33025,0.0443525,0.492783,
2,1,0,1,0,30884.5,0.512181,0.511824,0.26157,46,0.0344914,10,0.000133878,-3.58241,10.2383,0.00576268,0.511709,
2,1,0,0,0,30888.3,0.531158,0.530851,0.266847,46,0.035533,10,0.000141656,-3.57374,2.74596,0.0214861,0.530734,
2,1,0,1,0,30892.1,0.550135,0.549829,0.276663,46,0.0366027,10,0.000152117,-3.55805,0.712889,0.0827619,0.549708,
2,1,0,0,0,30895.9,0.569112,0.568793,0.289935,46,0.0377141,10,0.000164913,-3.5377,0.530878,0.111137,0.568665,
2,1,0,1,0,30899.7,0.588089,0.587745,0.312571,46,0.03889,10,0.000183712,-3.50505,0.476482,0.123824,0.587608,
2,1,0,0,0,30903.5,0.607066,0.606764,0.350143,46,0.0401754,10,0.000212454,-3.45575,0.293699,0.200886,0.60661,
2,1,0,1,0,30907.3,0.626044,0.625766,0.424322,46,0.0416673,10,0.000265526,-3.3723,0.176372,0.33452,0.625579,
2,1,0,1,0,30911.1,0.64502,0.644676,0.576308,46,0.0435708,10,0.000371532,-3.23935,0.119481,0.493802,0.644422,
2,1,0,1,0,30914.9,0.663997,0.663739,0.898024,46,0.0463344,10,0.000596053,-3.04671,0.0855994,0.689257,0.663343,
2,1,0,1,0,30918.7,0.682974,0.682689,1.52678,46,0.0508503,10,0.00104231,-2.81622,0.0788645,0.748119,0.682017,
2,1,0,1,0,30922.5,0.701951,0.701652,2.60856,46,0.0585757,10,0.0018303,-2.5836,0.0825699,0.714546,0.700504,
2,1,0,1,0,30926.3,0.720928,0.720648,4.21456,46,0.0713926,10,0.00303721,-2.37525,0.0934664,0.631243,0.718794,
2,1,0,1,0,30930.1,0.739905,0.739633,6.3527,46,0.0913153,10,0.00469867,-2.19704,0.109536,0.538637,0.736838,
2,1,0,1,0,30933.8,0.758883,0.758574,9.04977,46,0.120392,10,0.00686492,-2.04336,0.122496,0.481648,0.754592,
2,1,0,0,0,30937.6,0.77786,0.777554,12.4517,46,0.160959,10,0.0096819,-1.90477,0.125106,0.471601,0.772075,
2,1,0,1,0,30941.4,0.796837,0.796478,16.8386,46,0.216397,10,0.0134116,-1.77369,0.143593,0.410882,0.789069,
2,1,0,0,0,30945.2,0.815814,0.81553,22.4874,46,0.290752,10,0.0183391,-1.64806,0.141611,0.416633,0.805636,
2,1,0,1,0,30949,0.834791,0.834501,29.5408,46,0.38935,10,0.0246518,-1.52958,0.160187,0.368319,0.821503,
2,1,0,1,0,30952.7,0.846727,0.846474,34.9696,46,0.515123,10,0.0296009,-1.45631,0.114903,0.513476,0.831087,
2,1,0,1,0,30956.5,0.827749,0.827493,26.5755,46,0.631284,10,0.021991,-1.57552,0.123893,0.476216,0.8158,
2,1,0,1,0,30960.3,0.808772,0.808505,19.7822,46,0.718764,10,0.015994,-1.70373,0.117432,0.50242,0.799801,
2,1,0,1,0,30964.1,0.789795,0.789525,14.3033,46,0.782963,10,0.0112928,-1.84456,0.11161,0.528626,0.783231,
2,1,0,1,0,30967.9,0.770818,0.770529,9.99585,46,0.828642,10,0.00770209,-2.00018,0.107481,0.548935,0.766131,
2,1,0,1,0,30971.7,0.751841,0.751524,6.73742,46,0.860096,10,0.00506333,-2.17151,0.0938639,0.62857,0.74856,
2,1,0,1,0,30975.5,0.732865,0.732534,4.34243,46,0.880828,10,0.00318098,-2.36227,0.088389,0.667504,0.730623,
2,1,0,1,0,30979.3,0.713887,0.713632,2.6163,46,0.893805,10,0.00186707,-2.58231,0.0772971,0.763289,0.71248,
2,1,0,0,0,30983.1,0.69491,0.694613,1.42791,46,0.901283,10,0.000991844,-2.8453,0.0649162,0.908865,0.693985,
2,1,0,1,0,30986.9,0.675933,0.675632,0.699115,46,0.905174,10,0.000472344,-3.15545,0.0536386,1.09995,0.675324,
2,1,0,0,0,30990.7,0.656956,0.656669,0.282553,46,0.90691,10,0.000185544,-3.5489,0.0408972,1.44264,0.656544,
2,1,0,1,0,30994.5,0.637979,0.637678,0.0734741,46,0.90749,10,4.68528e-05,-4.13387,0.0233436,2.52746,0.637645,
2,0,0,0,0,30998.3,0.619002,0.618745,-0.0191156,46,0.907525,10,-1.18277e-05,-4.71861,-0.0133932,-4.40522,0.618754,
2,0,0,1,0,31002.1,0.600025,0.599728,-0.0582704,46,0.907323,10,-3.49464e-05,-4.23455,-0.0910906,-0.647707,0.599754,
2,0,0,1,0,31005.9,0.581047,0.580752,-0.0781439,46,0.907015,10,-4.53822e-05,-4.1071,-0.577394,-0.102183,0.580786,
2,0,0,1,0,31009.7,0.56207,0.561808,-0.0878634,46,0.906653,10,-4.93623e-05,-4.05619,-0.59994,-0.0983432,0.561846,
2,0,0,1,0,31013.5,0.543093,0.542784,-0.0957001,46,0.906261,10,-5.19445e-05,-4.01909,-0.551389,-0.107003,0.542826,
2,0,0,1,0,31017.2,0.524116,0.523809,-0.0997705,46,0.905846,10,-5.22607e-05,-4.001,-2.43612,-0.0242189,0.523853,
2,0,0,1,0,31021,0.505139,0.504809,-0.104696,46,0.905412,10,-5.28513e-05,-3.98007,-0.969143,-0.0608785,0.504855,
2,0,0,1,0,31024.8,0.486162,0.485855,-0.110741,46,0.904956,10,-5.38041e-05,-3.95569,-5.1656,-0.0114217,0.485904,
2,0,0,1,0,31028.6,0.467185,0.466908,-0.117663,46,0.904475,10,-5.49377e-05,-3.92936,-1.093,-0.05398,0.46696,
2,0,0,0,0,31032.4,0.448208,0.447887,-0.125355,46,0.903969,10,-5.61449e-05,-3.90186,-0.835996,-0.0705745,0.447942,
2,0,0,1,0,31036.2,0.429231,0.428886,-0.132606,46,0.903432,10,-5.68729e-05,-3.87744,-17.514,-0.00336873,0.428944,
2,0,0,0,0,31040,0.410254,0.409925,-0.141765,46,0.902861,10,-5.81131e-05,-3.84843,-1.76488,-0.03343,0.409987,
2,0,0,1,0,31043.8,0.391277,0.39099,-0.15155,46,0.902254,10,-5.92546e-05,-3.81944,-0.58782,-0.100371,0.391057,
2,0,0,0,0,31047.6,0.3723,0.371974,-0.162292,46,0.901607,10,-6.03682e-05,-3.7897,-0.45294,-0.13026,0.372045,
2,0,0,1,0,31051.4,0.353322,0.352977,-0.172201,46,0.90092,10,-6.07831e-05,-3.76396,-0.603812,-0.0977125,0.353053,
2,0,0,1,0,31055.2,0.334345,0.334001,-0.183486,46,0.90019,10,-6.12847e-05,-3.7364,-0.804404,-0.0733462,0.334082,
2,0,0,1,0,31059,0.315368,0.314994,-0.195123,46,0.899415,10,-6.14627e-05,-3.70969,-0.879859,-0.0670562,0.31508,
2,0,0,1,0,31062.8,0.296391,0.29607,-0.20743,46,0.898595,10,-6.14139e-05,-3.68313,-0.626422,-0.0941857,0.296161,
2,0,0,1,0,31066.6,0.277414,0.277131,-0.219957,46,0.897728,10,-6.0957e-05,-3.65766,-0.925016,-0.0637827,0.277228,
2,0,0,1,0,31070.4,0.258437,0.258137,-0.231453,46,0.896811,10,-5.97466e-05,-3.63554,-0.610411,-0.0966562,0.258239,
2,0,0,1,0,31074.2,0.239461,0.239199,-0.244804,46,0.895845,10,-5.85569e-05,-3.61118,-0.723943,-0.0814981,0.239306,
2,0,0,1,0,31078,0.220483,0.220198,-0.256967,46,0.894835,10,-5.65835e-05,-3.59012,-0.955724,-0.0617333,0.220311,
2,0,0,0,0,31081.8,0.201506,0.201195,-0.271464,46,0.893774,10,-5.46174e-05,-3.56629,-0.532229,-0.110854,0.201315,
2,0,0,1,0,31085.6,0.182529,0.182242,-0.28997,46,0.89265,10,-5.28445e-05,-3.53765,-0.390634,-0.151036,0.182369,
2,0,0,0,0,31089.4,0.163552,0.163201,-0.328081,46,0.891423,10,-5.35432e-05,-3.48402,-0.288551,-0.20447,0.163345,
2,0,0,1,0,31093.2,0.144575,0.144229,-0.440434,46,0.889945,10,-6.35235e-05,-3.35612,-0.0929184,-0.634966,0.144423,
2,0,0,0,0,31096.9,0.125598,0.125266,-0.672305,46,0.887751,10,-8.4217e-05,-3.17243,-0.192745,-0.306104,0.125562,
2,0,0,1,0,31100.7,0.10662,0.106278,-0.708249,46,0.885003,10,-7.52713e-05,-3.14981,1.13574,0.0519485,0.10659,
2,0,0,1,0,31104.5,0.0876433,0.0873478,-0.663482,46,0.882328,10,-5.79538e-05,-3.17817,0.709514,0.0831555,0.0876398,
2,0,0,1,0,31108.3,0.0686664,0.0683231,-0.618985,46,0.87983,10,-4.2291e-05,-3.20832,0.665617,0.0886396,0.0685955,
2,0,0,1,0,31112.1,0.0496895,0.0493398,-0.574693,46,0.877493,10,-2.83553e-05,-3.24056,0.554855,0.106334,0.0495927,
2,0,0,1,0,31115.9,0.0307126,0.0303886,-0.525082,46,0.875334,10,-1.59565e-05,-3.27977,0.547967,0.107671,0.0306196,
2,0,0,1,0,31119.7,0.0117356,0.0113798,-0.493151,46,0.873339,10,-5.61195e-06,-3.30702,1.11092,0.0531089,0.0115968,
2,0,0,1,0,31122,0.000274105,-0.000103433,-0.493924,46,0.872168,10,5.10883e-08,-3.30634, , ,0.000113893,

File: 20221101_1-115_003_TrumpetPlot_ParaChange_from10_every3_16_CV_C01_46.csv
mode,ox/red,error,control changes,counter inc.,time/s,control/V,Ewe/V,<I>/mA,cycle number,(Q-Qo)/C,I Range,P/W,log(|I|),Tafel slope mV/dec,alpha_eff,E-IR/V,
2,0,0,0,0,31152.1,2.44065e-05,-0.000497109,-0.0904896,47,0.0000000E+000,10,4.49832e-08,-4.0434, , ,-0.000457294,
2,1,0,1,0,31155.8,0.0187763,0.0184337,0.223712,47,0.000743946,10,4.12385e-06,-3.65031,0.156868,0.376111,0.0183353,
2,1,0,1,0,31159.6,0.0377538,0.0374432,0.290957,47,0.00178651,10,1.08944e-05,-3.53617,0.181075,0.325832,0.0373152,
2,1,0,0,0,31163.4,0.0567309,0.0563979,0.35131,47,0.003081,10,1.98131e-05,-3.45431,0.299799,0.196799,0.0562434,
2,1,0,1,0,31167.2,0.075708,0.0753919,0.400013,47,0.00458572,10,3.01578e-05,-3.39793,0.417558,0.141298,0.0752159,
2,1,0,0,0,31171,0.0946851,0.094387,0.455578,47,0.00626258,10,4.30006e-05,-3.34144,0.235162,0.250891,0.0941866,
2,1,0,1,0,31174.8,0.113662,0.113357,0.558476,47,0.00825551,10,6.3307e-05,-3.253,0.306557,0.19246,0.113111,
2,1,0,0,0,31178.6,0.132639,0.13228,0.609359,47,0.0105546,10,8.06057e-05,-3.21513,-0.893994,-0.065996,0.132011,
2,1,0,1,0,31182.4,0.151617,0.151264,0.397242,47,0.0126102,10,6.00885e-05,-3.40094,-0.0713197,-0.827261,0.15109,
2,1,0,1,0,31186.2,0.170594,0.170237,0.290456,47,0.0139192,10,4.94464e-05,-3.53692,-0.270718,-0.217939,0.170109,
2,1,0,1,0,31190,0.189571,0.189199,0.269392,47,0.0150353,10,5.09688e-05,-3.56961,-0.749017,-0.0787699,0.189081,
2,1,0,1,0,31193.8,0.208547,0.208239,0.259001,47,0.0160956,10,5.39342e-05,-3.5867,-1.17116,-0.0503773,0.208125,
2,1,0,1,0,31197.6,0.227524,0.227196,0.252377,47,0.0171238,10,5.73392e-05,-3.59795,-0.939762,-0.0627819,0.227085,
2,1,0,1,0,31201.4,0.246501,0.246225,0.246396,47,0.0181289,10,6.0669e-05,-3.60837,-0.688955,-0.0856369,0.246117,
2,1,0,0,0,31205.2,0.265479,0.26515,0.243689,47,0.0191175,10,6.46141e-05,-3.61316,-1.08368,-0.0544443,0.265042,
2,1,0,1,0,31209,0.284456,0.284187,0.240033,47,0.0200909,10,6.82144e-05,-3.61973,-1.63168,-0.0361592,0.284081,
2,1,0,0,0,31212.8,0.303433,0.303129,0.235577,47,0.021048,10,7.14102e-05,-3.62787,-2.77718,-0.0212445,0.303025,
2,1,0,1,0,31216.6,0.32241,0.322109,0.231949,47,0.0219885,10,7.4713e-05,-3.63461,-4.39752,-0.0134166,0.322007,
2,1,0,0,0,31220.3,0.341387,0.341062,0.229334,47,0.0229159,10,7.82172e-05,-3.63953,-1.87818,-0.0314133,0.340961,
2,1,0,1,0,31224.1,0.360364,0.360034,0.227438,47,0.0238333,10,8.18853e-05,-3.64314,-2.52824,-0.0233364,0.359934,
2,1,0,1,0,31227.9,0.379342,0.379032,0.224683,47,0.0247405,10,8.51623e-05,-3.64843,-4.50678,-0.0130914,0.378934,
2,1,0,1,0,31231.7,0.398319,0.398009,0.222279,47,0.0256395,10,8.84692e-05,-3.6531,9.1249,0.00646582,0.397912,
2,1,0,1,0,31235.5,0.417295,0.416963,0.222862,47,0.0265336,10,9.29252e-05,-3.65196,24.5454,0.00240371,0.416865,
2,1,0,1,0,31239.3,0.436272,0.435998,0.221964,47,0.0274245,10,9.6776e-05,-3.65372,10.4811,0.00562919,0.4359,
2,1,0,1,0,31243.1,0.455249,0.454943,0.22196,47,0.0283128,10,0.000100979,-3.65372,1.77222,0.0332915,0.454845,
2,1,0,1,0,31246.9,0.474226,0.473869,0.223427,47,0.0292045,10,0.000105875,-3.65087,1.0145,0.0581567,0.473771,
2,1,0,1,0,31250.7,0.493203,0.492906,0.227401,47,0.0301039,10,0.000112087,-3.64321,1.36942,0.0430838,0.492806,
2,1,0,0,0,31254.5,0.512181,0.511856,0.231731,47,0.0310165,10,0.000118613,-3.63502,4.26723,0.0138263,0.511754,
2,1,0,1,0,31258.3,0.531158,0.530839,0.237286,47,0.0319489,10,0.000125961,-3.62473,1.38009,0.0427509,0.530734,
2,1,0,0,0,31262.1,0.550135,0.549875,0.246647,47,0.03291,10,0.000135625,-3.60792,0.822542,0.0717288,0.549767,
2,1,0,1,0,31265.9,0.569112,0.56882,0.262,47,0.0339143,10,0.000149031,-3.5817,0.701963,0.08405,0.568705,
2,1,0,0,0,31269.7,0.588089,0.587794,0.283281,47,0.0349862,10,0.000166511,-3.54778,0.348582,0.169257,0.587669,
2,1,0,1,0,31273.5,0.607066,0.606794,0.322943,47,0.0361701,10,0.00019596,-3.49087,0.266147,0.221682,0.606652,
2,1,0,1,0,31277.3,0.626044,0.625783,0.39694,47,0.0375598,10,0.000248398,-3.40128,0.156362,0.37733,0.625608,
2,1,0,1,0,31281.1,0.64502,0.64473,0.551301,47,0.0393669,10,0.00035544,-3.25861,0.109566,0.538488,0.644487,
2,1,0,1,0,31284.9,0.663997,0.663704,0.876833,47,0.0420448,10,0.000581957,-3.05708,0.0830189,0.710682,0.663318,
2,1,0,1,0,31288.7,0.682974,0.682698,1.51997,47,0.0465081,10,0.00103768,-2.81817,0.0771475,0.764769,0.68203,
2,1,0,1,0,31292.5,0.701951,0.701664,2.63466,47,0.0542671,10,0.00184864,-2.57928,0.0812324,0.726311,0.700504,
2,1,0,1,0,31296.3,0.720928,0.720617,4.30335,47,0.0672965,10,0.00310107,-2.36619,0.0921279,0.640414,0.718724,
2,1,0,1,0,31300.1,0.739905,0.739623,6.54854,47,0.0877484,10,0.00484345,-2.18386,0.105664,0.558373,0.736741,
2,1,0,0,0,31303.8,0.758883,0.758626,9.41969,47,0.117882,10,0.00714602,-2.02596,0.117047,0.504069,0.754481,
2,1,0,1,0,31307.6,0.77786,0.777602,13.1252,47,0.160387,10,0.0102062,-1.88189,0.1169,0.504706,0.771827,
2,1,0,0,0,31311.4,0.796837,0.796563,18.107,47,0.219267,10,0.0144233,-1.74215,0.1183,0.498733,0.788596,
2,1,0,1,0,31315.2,0.815814,0.815508,24.5047,47,0.299845,10,0.0199838,-1.61075,0.130482,0.452168,0.804726,
2,1,0,0,0,31319,0.834791,0.834553,31.9378,47,0.406785,10,0.0266538,-1.49569,0.151713,0.388892,0.8205,
2,1,0,0,0,31322.7,0.846727,0.846513,35.5087,47,0.537406,10,0.0300586,-1.44966,0.0899608,0.655842,0.830889,
2,1,0,1,0,31326.5,0.827749,0.82752,26.9326,47,0.655357,10,0.0222873,-1.56972,0.120526,0.48952,0.815669,
2,1,0,1,0,31330.3,0.808772,0.808501,19.9832,47,0.743977,10,0.0161564,-1.69934,0.121278,0.486485,0.799708,
2,1,0,1,0,31334.1,0.789795,0.789482,14.3322,47,0.808576,10,0.011315,-1.84369,0.112502,0.524437,0.783175,
2,1,0,1,0,31337.9,0.770818,0.77057,9.99721,47,0.854354,10,0.00770355,-2.00012,0.105367,0.559949,0.766171,
2,1,0,1,0,31341.7,0.751841,0.751574,6.73125,47,0.885722,10,0.00505904,-2.1719,0.099313,0.594081,0.748612,
2,1,0,1,0,31345.5,0.732865,0.732577,4.33496,47,0.906437,10,0.0031757,-2.36301,0.0897614,0.657298,0.73067,
2,1,0,0,0,31349.3,0.713887,0.713573,2.60554,47,0.919377,10,0.00185924,-2.5841,0.0771086,0.765155,0.712427,
2,1,0,1,0,31353.1,0.69491,0.694685,1.41566,47,0.926811,10,0.000983437,-2.84904,0.0637378,0.925668,0.694062,
2,1,0,0,0,31356.9,0.675933,0.675632,0.667575,47,0.930598,10,0.000451035,-3.1755,0.0503931,1.1708,0.675338,
2,1,0,1,0,31360.7,0.656956,0.65668,0.251713,47,0.932212,10,0.000165295,-3.59909,0.0377626,1.56239,0.65657,
2,1,0,0,0,31364.5,0.637979,0.637695,0.0493344,47,0.932691,10,3.14603e-05,-4.30685,0.0158039,3.73325,0.637673,
2,0,0,1,0,31368.3,0.619002,0.618709,-0.0400885,47,0.93264,10,-2.48031e-05,-4.39698,-0.0304438,-1.938,0.618727,
2,0,0,0,0,31372.1,0.600025,0.599703,-0.0790076,47,0.932362,10,-4.7381e-05,-4.10233,-0.126284,-0.467202,0.599737,
2,0,0,1,0,31375.9,0.581047,0.580747,-0.0970982,47,0.931981,10,-5.63895e-05,-4.01279,-0.355888,-0.165783,0.58079,
2,0,0,1,0,31379.7,0.56207,0.561793,-0.10718,47,0.931549,10,-6.02127e-05,-3.96989,-2.23084,-0.0264475,0.56184,
2,0,0,1,0,31383.5,0.543093,0.542781,-0.113366,47,0.93109,10,-6.15328e-05,-3.94552,-0.835574,-0.0706102,0.542831,
2,0,0,1,0,31387.2,0.524116,0.523789,-0.118829,47,0.930608,10,-6.22412e-05,-3.92508,-1.29009,-0.0457332,0.523841,
2,0,0,1,0,31391,0.505139,0.504831,-0.122411,47,0.930108,10,-6.17969e-05,-3.91218,-0.676264,-0.087244,0.504885,
2,0,0,1,0,31394.8,0.486162,0.485816,-0.12811,47,0.929589,10,-6.22378e-05,-3.89242,-0.538416,-0.109581,0.485873,
2,0,0,1,0,31398.6,0.467185,0.466885,-0.134239,47,0.929048,10,-6.26739e-05,-3.87212,-0.70731,-0.0834146,0.466944,
2,0,0,1,0,31402.4,0.448208,0.447899,-0.140855,47,0.928482,10,-6.3089e-05,-3.85123,-0.762382,-0.077389,0.447961,
2,0,0,0,0,31406.2,0.429231,0.428895,-0.148475,47,0.927887,10,-6.368e-05,-3.82835,-1.07677,-0.0547934,0.428961,
2,0,0,1,0,31410,0.410254,0.409922,-0.157017,47,0.92726,10,-6.43646e-05,-3.80405,-16.8126,-0.00350926,0.409991,
2,0,0,0,0,31413.8,0.391277,0.390962,-0.166252,47,0.926599,10,-6.49983e-05,-3.77923,-0.711233,-0.0829546,0.391035,
2,0,0,1,0,31417.6,0.3723,0.371971,-0.176499,47,0.925899,10,-6.56526e-05,-3.75326,-0.985778,-0.0598512,0.372048,
2,0,0,1,0,31421.4,0.353322,0.353022,-0.186837,47,0.925158,10,-6.59575e-05,-3.72854,-0.928525,-0.0635416,0.353104,
2,0,0,1,0,31425.2,0.334345,0.334037,-0.198013,47,0.924376,10,-6.61439e-05,-3.70331,-1.06284,-0.0555118,0.334125,
2,0,0,1,0,31429,0.315368,0.315043,-0.209178,47,0.923551,10,-6.58999e-05,-3.67948,-0.951272,-0.0620222,0.315135,
2,0,0,1,0,31432.8,0.296391,0.296109,-0.22131,47,0.922679,10,-6.5532e-05,-3.655,-0.798004,-0.0739345,0.296206,
2,0,0,1,0,31436.6,0.277414,0.277114,-0.233511,47,0.921762,10,-6.47093e-05,-3.63169,-1.31598,-0.0448335,0.277217,
2,0,0,1,0,31440.4,0.258437,0.258109,-0.24565,47,0.920796,10,-6.34045e-05,-3.60968,-1.00498,-0.0587074,0.258217,
2,0,0,1,0,31444.2,0.239461,0.239167,-0.25696,47,0.919786,10,-6.14562e-05,-3.59014,-0.933573,-0.063198,0.23928,
2,0,0,0,0,31448,0.220483,0.220169,-0.269123,47,0.918732,10,-5.92527e-05,-3.57005,-0.668459,-0.0882628,0.220288,
2,0,0,1,0,31451.8,0.201506,0.201183,-0.282118,47,0.917629,10,-5.67572e-05,-3.54957,-0.491858,-0.119953,0.201307,
2,0,0,0,0,31455.6,0.182529,0.182192,-0.302042,47,0.916465,10,-5.50297e-05,-3.51993,-0.514257,-0.114729,0.182325,
2,0,0,1,0,31459.4,0.163552,0.163218,-0.3382,47,0.915198,10,-5.52004e-05,-3.47083,-0.263774,-0.223676,0.163367,
2,0,0,0,0,31463.2,0.144575,0.144242,-0.448275,47,0.913687,10,-6.46601e-05,-3.34846,-0.0959824,-0.614696,0.144439,
2,0,0,1,0,31466.9,0.125598,0.125246,-0.678956,47,0.91147,10,-8.50365e-05,-3.16816,-0.194798,-0.302878,0.125545,
2,0,0,1,0,31470.7,0.10662,0.106273,-0.71607,47,0.9087,10,-7.60986e-05,-3.14504,0.980418,0.0601784,0.106588,
2,0,0,1,0,31474.5,0.0876433,0.0872852,-0.673071,47,0.905994,10,-5.87491e-05,-3.17194,0.600168,0.0983058,0.0875814,
2,0,0,1,0,31478.3,0.0686664,0.0683326,-0.626757,47,0.90347,10,-4.2828e-05,-3.2029,0.783423,0.0753105,0.0686084,
2,0,0,1,0,31482.1,0.0496895,0.0493274,-0.580795,47,0.901106,10,-2.86491e-05,-3.23598,0.562246,0.104936,0.0495829,
2,0,0,1,0,31485.9,0.0307126,0.0303662,-0.533055,47,0.898922,10,-1.61869e-05,-3.27323,0.523721,0.112655,0.0306007,
2,0,0,1,0,31489.7,0.0117356,0.011417,-0.500664,47,0.896903,10,-5.7161e-06,-3.30045,0.900631,0.0655096,0.0116373,
2,0,0,0,0,31492,0.000274105,-0.000101048,-0.501853,47,0.895718,10,5.0711e-08,-3.29942, , ,0.000119768,