Folder: Figs_alphaMnO2_OER_Tafel_sleope/Figure_codes/Fig_3-5/workspace_calculate_alpha_eff (part 22)

File: 20221101_1-115_003_TrumpetPlot_ParaChange_from10_every3_16_CV_C01_35.csv
mode,ox/red,error,control changes,counter inc.,time/s,control/V,Ewe/V,<I>/mA,cycle number,(Q-Qo)/C,I Range,P/W,log(|I|),Tafel slope mV/dec,alpha_eff,E-IR/V,
2,0,0,0,0,23641.6,2.44065e-05,-0.000363498,-0.102574,36,0.0000000E+000,10,3.72855e-08,-3.98896, , ,-0.000318366,
2,1,0,1,0,23645.3,0.0187763,0.0184605,0.215024,36,0.000712226,10,3.96946e-06,-3.66751,0.15566,0.379032,0.0183659,
2,1,0,1,0,23649.1,0.0377538,0.0374304,0.283114,36,0.00172533,10,1.05971e-05,-3.54804,0.173951,0.339176,0.0373059,
2,1,0,0,0,23652.9,0.0567309,0.0564563,0.346526,36,0.00299541,10,1.95636e-05,-3.46026,0.2493,0.236662,0.0563038,
2,1,0,1,0,23656.7,0.075708,0.0753538,0.397008,36,0.00448337,10,2.99161e-05,-3.4012,0.458561,0.128663,0.0751791,
2,1,0,0,0,23660.5,0.0946851,0.0943403,0.454616,36,0.00615091,10,4.28887e-05,-3.34236,0.222323,0.26538,0.0941403,
2,1,0,1,0,23664.3,0.113662,0.113359,0.558996,36,0.00814409,10,6.33671e-05,-3.25259,0.324148,0.182016,0.113113,
2,1,0,0,0,23668.1,0.132639,0.132304,0.616024,36,0.0104559,10,8.15025e-05,-3.2104,-1.28482,-0.0459209,0.132033,
2,1,0,1,0,23671.9,0.151617,0.151297,0.404379,36,0.0125449,10,6.11814e-05,-3.39321,-0.0714948,-0.825235,0.151119,
2,1,0,1,0,23675.7,0.170594,0.170278,0.288058,36,0.0138569,10,4.905e-05,-3.54052,-0.230683,-0.255762,0.170152,
2,1,0,1,0,23679.5,0.189571,0.189227,0.261851,36,0.0149522,10,4.95493e-05,-3.58195,-0.602595,-0.0979098,0.189112,
2,1,0,1,0,23683.3,0.208547,0.208238,0.250542,36,0.0159821,10,5.21726e-05,-3.60112,-1.5217,-0.0387725,0.208128,
2,1,0,1,0,23687.1,0.227524,0.227225,0.243412,36,0.0169778,10,5.53092e-05,-3.61366,-1.54212,-0.038259,0.227118,
2,1,0,1,0,23690.8,0.246501,0.246187,0.238091,36,0.0179504,10,5.86149e-05,-3.62326,-1.48004,-0.0398637,0.246082,
2,1,0,0,0,23694.6,0.265479,0.265179,0.234236,36,0.0189066,10,6.21144e-05,-3.63035,-0.881577,-0.0669255,0.265076,
2,1,0,1,0,23698.4,0.284456,0.284164,0.230492,36,0.0198468,10,6.54973e-05,-3.63735,-2.35559,-0.0250468,0.284062,
2,1,0,0,0,23702.2,0.303433,0.303208,0.226525,36,0.0207711,10,6.86841e-05,-3.64488,4.0354,0.0146206,0.303108,
2,1,0,1,0,23706,0.32241,0.322118,0.222897,36,0.0216797,10,7.17992e-05,-3.65189,-11.5598,-0.0051039,0.32202,
2,1,0,0,0,23709.8,0.341387,0.341015,0.220961,36,0.0225762,10,7.53512e-05,-3.65568,-20.7538,-0.00284286,0.340918,
2,1,0,1,0,23713.6,0.360364,0.360069,0.218928,36,0.0234635,10,7.88292e-05,-3.6597,-2.34297,-0.0251818,0.359972,
2,1,0,1,0,23717.4,0.379342,0.379042,0.217403,36,0.0243417,10,8.24049e-05,-3.66273,-1.55224,-0.0380095,0.378946,
2,1,0,1,0,23721.2,0.398319,0.398028,0.214684,36,0.0252125,10,8.54502e-05,-3.6682,-2.71747,-0.0217113,0.397934,
2,1,0,1,0,23725,0.417295,0.417005,0.215114,36,0.026079,10,8.97034e-05,-3.66733,10.258,0.00575164,0.41691,
2,1,0,1,0,23728.8,0.436272,0.435976,0.215086,36,0.0269435,10,9.37721e-05,-3.66739,-6.89555,-0.00855625,0.435881,
2,1,0,1,0,23732.6,0.455249,0.454989,0.215773,36,0.0278087,10,9.81742e-05,-3.666,1.32701,0.0444608,0.454894,
2,1,0,1,0,23736.4,0.474226,0.473954,0.217372,36,0.0286764,10,0.000103024,-3.6628,2.64841,0.0222776,0.473858,
2,1,0,1,0,23740.2,0.493203,0.492944,0.219963,36,0.0295523,10,0.000108429,-3.65765,1.08199,0.0545293,0.492847,
2,1,0,0,0,23744,0.512181,0.511924,0.224655,36,0.0304428,10,0.000115006,-3.64848,1.36522,0.0432166,0.511825,
2,1,0,1,0,23747.8,0.531158,0.53088,0.232043,36,0.0313536,10,0.000123187,-3.63443,1.98476,0.0297266,0.530778,
2,1,0,0,0,23751.6,0.550135,0.549879,0.241038,36,0.0322938,10,0.000132542,-3.61792,0.693356,0.0850934,0.549773,
2,1,0,1,0,23755.4,0.569112,0.568838,0.256157,36,0.0332791,10,0.000145712,-3.59149,0.457355,0.129003,0.568726,
2,1,0,0,0,23759.2,0.588089,0.587828,0.280483,36,0.0343366,10,0.000164876,-3.55209,0.390589,0.151054,0.587705,
2,1,0,1,0,23763,0.607066,0.606785,0.322564,36,0.0355159,10,0.000195727,-3.49138,0.265616,0.222125,0.606643,
2,1,0,1,0,23766.8,0.626044,0.625792,0.404213,36,0.0369187,10,0.000252953,-3.39339,0.147294,0.400559,0.625615,
2,1,0,1,0,23770.6,0.64502,0.644735,0.574658,36,0.0387807,10,0.000370502,-3.24059,0.105911,0.557072,0.644482,
2,1,0,1,0,23774.3,0.663997,0.663689,0.941236,36,0.0416194,10,0.000624687,-3.0263,0.0786384,0.75027,0.663274,
2,1,0,1,0,23778.1,0.682974,0.682708,1.66795,36,0.0464729,10,0.00113872,-2.77782,0.0721499,0.817742,0.681974,
2,1,0,1,0,23781.9,0.701951,0.701689,2.92841,36,0.0550541,10,0.00205484,-2.53337,0.0789583,0.74723,0.700401,
2,1,0,1,0,23785.7,0.720928,0.720643,4.80087,36,0.0695702,10,0.00345971,-2.31868,0.0919996,0.641307,0.71853,
2,1,0,1,0,23789.5,0.739905,0.739641,7.28424,36,0.0923548,10,0.00538772,-2.13762,0.107038,0.551207,0.736436,
2,1,0,0,0,23793.3,0.758883,0.758574,10.4078,36,0.125746,10,0.00789508,-1.98264,0.119317,0.494482,0.753994,
2,1,0,1,0,23797.1,0.77786,0.777553,14.4058,36,0.172544,10,0.0112013,-1.84146,0.123466,0.477865,0.771214,
2,1,0,0,0,23800.9,0.796837,0.796564,19.7708,36,0.236978,10,0.0157487,-1.70397,0.123947,0.476009,0.787865,
2,1,0,1,0,23804.7,0.815814,0.815576,26.4175,36,0.324389,10,0.0215454,-1.57811,0.13357,0.441716,0.803952,
2,1,0,0,0,23808.5,0.834791,0.834562,33.9764,36,0.438957,10,0.0283554,-1.46882,0.161609,0.36508,0.819613,
2,1,0,0,0,23812.2,0.846727,0.846518,37.9067,36,0.576976,10,0.0320887,-1.42128,0.123435,0.477983,0.829839,
2,1,0,1,0,23816,0.827749,0.827497,29.0879,36,0.703485,10,0.0240702,-1.53629,0.128917,0.457657,0.814699,
2,1,0,1,0,23819.8,0.808772,0.808484,21.8489,36,0.799641,10,0.0176645,-1.66057,0.122903,0.480055,0.79887,
2,1,0,1,0,23823.6,0.789795,0.789578,15.9905,36,0.870657,10,0.0126258,-1.79614,0.119871,0.492195,0.782542,
2,1,0,1,0,23827.4,0.770818,0.770591,11.2058,36,0.921819,10,0.00863508,-1.95056,0.104506,0.564559,0.765661,
2,1,0,1,0,23831.2,0.751841,0.751576,7.56654,36,0.957056,10,0.00568683,-2.1211,0.0982483,0.600519,0.748247,
2,1,0,1,0,23835,0.732865,0.732586,4.85312,36,0.9803,10,0.00355532,-2.31398,0.0875716,0.673735,0.73045,
2,1,0,0,0,23838.8,0.713887,0.713614,2.91312,36,0.994767,10,0.00207884,-2.53564,0.0763882,0.77237,0.712332,
2,1,0,1,0,23842.6,0.69491,0.694639,1.57006,36,1.00305,10,0.00109062,-2.80408,0.0625945,0.942575,0.693948,
2,1,0,0,0,23846.4,0.675933,0.675665,0.735227,36,1.00724,10,0.000496767,-3.13358,0.0505078,1.16814,0.675341,
2,1,0,1,0,23850.2,0.656956,0.656663,0.277905,36,1.00902,10,0.00018249,-3.5561,0.037868,1.55804,0.656541,
2,1,0,0,0,23854,0.637979,0.637734,0.0575822,36,1.00956,10,3.67221e-05,-4.23971,0.016514,3.57272,0.637709,
2,0,0,1,0,23857.7,0.619002,0.618785,-0.0385867,36,1.00952,10,-2.38769e-05,-4.41356,-0.0282804,-2.08625,0.618802,
2,0,0,0,0,23861.5,0.600025,0.599747,-0.0809941,36,1.00924,10,-4.8576e-05,-4.09155,-0.127543,-0.462587,0.599783,
2,0,0,1,0,23865.3,0.581047,0.580762,-0.0991792,36,1.00884,10,-5.75995e-05,-4.00358,-1.18556,-0.0497654,0.580806,
2,0,0,1,0,23869.1,0.56207,0.561725,-0.109757,36,1.0084,10,-6.16534e-05,-3.95957,-1.51587,-0.0389217,0.561773,
2,0,0,1,0,23872.9,0.543093,0.54278,-0.11559,36,1.00792,10,-6.27399e-05,-3.93708,-1.20416,-0.0489969,0.542831,
2,0,0,1,0,23876.7,0.524116,0.523803,-0.120771,36,1.00743,10,-6.32601e-05,-3.91804,-0.946993,-0.0623025,0.523856,
2,0,0,1,0,23880.5,0.505139,0.504845,-0.124643,36,1.00691,10,-6.29256e-05,-3.90433,-0.742335,-0.0794789,0.5049,
2,0,0,1,0,23884.3,0.486162,0.485837,-0.130651,36,1.00638,10,-6.3475e-05,-3.88389,-0.669701,-0.088099,0.485895,
2,0,0,1,0,23888.1,0.467185,0.466872,-0.136129,36,1.00583,10,-6.35547e-05,-3.86605,-0.583161,-0.101173,0.466932,
2,0,0,1,0,23891.9,0.448208,0.447869,-0.142693,36,1.00525,10,-6.39077e-05,-3.8456,-2.75616,-0.0214066,0.447932,
2,0,0,0,0,23895.7,0.429231,0.428924,-0.150182,36,1.00464,10,-6.44168e-05,-3.82338,-1.32653,-0.0444769,0.42899,
2,0,0,1,0,23899.5,0.410254,0.409941,-0.159713,36,1.004,10,-6.54727e-05,-3.79666,-1.34504,-0.0438649,0.410011,
2,0,0,0,0,23903.3,0.391277,0.390933,-0.168274,36,1.00333,10,-6.57838e-05,-3.77398,-0.447769,-0.131764,0.391007,
2,0,0,1,0,23907.1,0.3723,0.371969,-0.177958,36,1.00262,10,-6.61948e-05,-3.74968,-0.82442,-0.0715655,0.372047,
2,0,0,1,0,23910.9,0.353322,0.352992,-0.188439,36,1.00186,10,-6.65174e-05,-3.72483,-0.639545,-0.0922531,0.353075,
2,0,0,1,0,23914.7,0.334345,0.334002,-0.200387,36,1.00107,10,-6.69297e-05,-3.69813,-1.0892,-0.054168,0.33409,
2,0,0,1,0,23918.5,0.315368,0.315034,-0.212054,36,1.00023,10,-6.68041e-05,-3.67355,-0.855051,-0.0690018,0.315127,
2,0,0,1,0,23922.3,0.296391,0.296085,-0.224756,36,0.999346,10,-6.65467e-05,-3.64829,-0.871593,-0.0676921,0.296184,
2,0,0,1,0,23926.1,0.277414,0.277129,-0.235061,36,0.998416,10,-6.51423e-05,-3.62882,-0.607442,-0.0971286,0.277233,
2,0,0,1,0,23929.9,0.258437,0.258131,-0.247777,36,0.997439,10,-6.39588e-05,-3.60594,-1.18534,-0.0497747,0.25824,
2,0,0,1,0,23933.7,0.239461,0.239133,-0.259398,36,0.996419,10,-6.20306e-05,-3.58603,-0.868305,-0.0679484,0.239247,
2,0,0,0,0,23937.5,0.220483,0.22018,-0.271168,36,0.995354,10,-5.97058e-05,-3.56676,-0.799419,-0.0738036,0.220299,
2,0,0,1,0,23941.2,0.201506,0.2012,-0.283902,36,0.994238,10,-5.7121e-05,-3.54683,-0.600744,-0.0982115,0.201325,
2,0,0,0,0,23945,0.182529,0.182243,-0.303893,36,0.993058,10,-5.53823e-05,-3.51728,-0.398731,-0.14797,0.182376,
2,0,0,1,0,23948.8,0.163552,0.163199,-0.344833,36,0.991772,10,-5.62764e-05,-3.46239,-0.252203,-0.233939,0.163351,
2,0,0,0,0,23952.6,0.144575,0.144265,-0.464004,36,0.99022,10,-6.69397e-05,-3.33348,-0.087597,-0.673539,0.14447,
2,0,0,1,0,23956.4,0.125598,0.125293,-0.704274,36,0.987907,10,-8.82403e-05,-3.15226,-0.197465,-0.298787,0.125602,
2,0,0,1,0,23960.2,0.10662,0.106316,-0.730094,36,0.985057,10,-7.76209e-05,-3.13662,0.863603,0.0683184,0.106637,
2,0,0,1,0,23964,0.0876433,0.0873203,-0.679143,36,0.982309,10,-5.9303e-05,-3.16804,0.582802,0.101235,0.0876192,
2,0,0,1,0,23967.8,0.0686664,0.0683655,-0.632525,36,0.979761,10,-4.32429e-05,-3.19892,0.635503,0.0928399,0.0686438,
2,0,0,1,0,23971.6,0.0496895,0.0493803,-0.583492,36,0.977379,10,-2.8813e-05,-3.23396,0.642185,0.0918738,0.049637,
2,0,0,1,0,23975.4,0.0307126,0.0304129,-0.533455,36,0.975183,10,-1.62239e-05,-3.2729,0.567146,0.10403,0.0306476,
2,0,0,1,0,23979.2,0.0117356,0.0113946,-0.500019,36,0.97316,10,-5.69753e-06,-3.30101,1.23578,0.047743,0.0116146,
2,0,0,0,0,23981.5,0.000274105,-0.000105819,-0.500626,36,0.971974,10,5.29759e-08,-3.30049, , ,0.000114456,

File: 20221101_1-115_003_TrumpetPlot_ParaChange_from10_every3_16_CV_C01_36.csv
mode,ox/red,error,control changes,counter inc.,time/s,control/V,Ewe/V,<I>/mA,cycle number,(Q-Qo)/C,I Range,P/W,log(|I|),Tafel slope mV/dec,alpha_eff,E-IR/V,
2,0,0,1,0,24871.7,2.44065e-05,-0.000268062,-0.0415151,37,0.0000000E+000,10,1.11286e-08,-4.38179, , ,-0.000249795,
2,1,0,1,0,24875.4,0.0187763,0.0184506,0.272676,37,0.000923773,10,5.03104e-06,-3.56435,0.167481,0.352278,0.0183306,
2,1,0,0,0,24879.2,0.0377538,0.0374336,0.338629,37,0.00215186,10,1.26761e-05,-3.47028,0.24157,0.244235,0.0372846,
2,1,0,1,0,24883,0.0567309,0.0563523,0.399212,37,0.00362919,10,2.24965e-05,-3.3988,0.331457,0.178002,0.0561767,
2,1,0,0,0,24886.8,0.075708,0.075393,0.444195,37,0.00530879,10,3.34892e-05,-3.35243,0.573746,0.102833,0.0751976,
2,1,0,1,0,24890.6,0.0946851,0.0944071,0.499321,37,0.00715064,10,4.71395e-05,-3.30162,0.243822,0.24198,0.0941874,
2,1,0,0,0,24894.4,0.113662,0.113367,0.59762,37,0.00930597,10,6.77506e-05,-3.22357,0.374511,0.157539,0.113104,
2,1,0,1,0,24898.2,0.132639,0.132321,0.649246,37,0.0117588,10,8.59088e-05,-3.18759,-1.01927,-0.0578843,0.132035,
2,1,0,1,0,24902,0.151617,0.151297,0.437357,37,0.013965,10,6.61709e-05,-3.35916,-0.0805164,-0.73277,0.151105,
2,1,0,1,0,24905.8,0.170594,0.170293,0.329749,37,0.0154219,10,5.6154e-05,-3.48182,-0.328068,-0.179841,0.170148,
2,1,0,1,0,24909.6,0.189571,0.18923,0.304687,37,0.0166776,10,5.76559e-05,-3.51615,-0.813007,-0.0725701,0.189096,
2,1,0,1,0,24913.4,0.208547,0.208197,0.294904,37,0.0178727,10,6.13981e-05,-3.53032,-1.24573,-0.0473617,0.208067,
2,1,0,1,0,24917.2,0.227524,0.227243,0.287609,37,0.0190334,10,6.53572e-05,-3.5412,-1.8703,-0.0315458,0.227116,
2,1,0,1,0,24921,0.246501,0.246171,0.281008,37,0.020172,10,6.9176e-05,-3.55128,-1.1472,-0.0514294,0.246047,
2,1,0,1,0,24924.8,0.265479,0.265154,0.277861,37,0.0212931,10,7.36759e-05,-3.55617,-1.03516,-0.0569958,0.265032,
2,1,0,0,0,24928.6,0.284456,0.28418,0.27425,37,0.0223979,10,7.79362e-05,-3.56185,-3.28759,-0.0179463,0.284059,
2,1,0,1,0,24932.4,0.303433,0.303178,0.269644,37,0.0234861,10,8.17502e-05,-3.56921,-8.03544,-0.00734248,0.303059,
2,1,0,0,0,24936.2,0.32241,0.322178,0.266502,37,0.0245589,10,8.58613e-05,-3.5743,-1.94442,-0.0303432,0.322061,
2,1,0,1,0,24940,0.341387,0.341125,0.26325,37,0.0256181,10,8.98011e-05,-3.57963,-4.92512,-0.0119794,0.341009,
2,1,0,0,0,24943.8,0.360364,0.360054,0.260791,37,0.0266655,10,9.38989e-05,-3.58371,-5.196,-0.0113549,0.359939,
2,1,0,1,0,24947.5,0.379342,0.37907,0.258332,37,0.0277025,10,9.79259e-05,-3.58782,17.9712,0.00328304,0.378956,
2,1,0,1,0,24951.3,0.398319,0.398016,0.256154,37,0.0287307,10,0.000101953,-3.5915,-4.70058,-0.0125516,0.397903,
2,1,0,1,0,24955.1,0.417295,0.417004,0.254427,37,0.0297514,10,0.000106097,-3.59444,1.12323,0.0525272,0.416892,
2,1,0,1,0,24958.9,0.436272,0.435954,0.254284,37,0.0307664,10,0.000110856,-3.59468,9.43613,0.00625256,0.435842,
2,1,0,1,0,24962.7,0.455249,0.454996,0.253514,37,0.0317787,10,0.000115348,-3.596,10.3247,0.00571446,0.454884,
2,1,0,1,0,24966.5,0.474226,0.473886,0.254508,37,0.0327916,10,0.000120608,-3.5943,2.0769,0.0284077,0.473774,
2,1,0,1,0,24970.3,0.493203,0.49292,0.25659,37,0.0338094,10,0.000126478,-3.59076,1.72277,0.0342473,0.492807,
2,1,0,1,0,24974.1,0.512181,0.511905,0.261217,37,0.0348381,10,0.000133718,-3.583,1.49325,0.0395111,0.51179,
2,1,0,0,0,24977.9,0.531158,0.530882,0.266635,37,0.0358855,10,0.000141552,-3.57408,1.69481,0.0348121,0.530765,
2,1,0,1,0,24981.7,0.550135,0.54982,0.275507,37,0.0369609,10,0.000151479,-3.55987,0.827897,0.0712649,0.549699,
2,1,0,0,0,24985.5,0.569112,0.568832,0.290554,37,0.0380795,10,0.000165276,-3.53677,0.686877,0.0858961,0.568704,
2,1,0,1,0,24989.3,0.588089,0.587779,0.314563,37,0.0392666,10,0.000184893,-3.50229,0.453482,0.130104,0.587641,
2,1,0,0,0,24993.1,0.607066,0.606769,0.355539,37,0.0405724,10,0.00021573,-3.44911,0.258164,0.228537,0.606613,
2,1,0,1,0,24996.9,0.626044,0.625772,0.437668,37,0.042104,10,0.00027388,-3.35886,0.173645,0.339774,0.625579,
2,1,0,1,0,25000.7,0.64502,0.644738,0.605933,37,0.0440901,10,0.000390668,-3.21758,0.107103,0.55087,0.644472,
2,1,0,1,0,25004.5,0.663997,0.66369,0.968178,37,0.0470423,10,0.00064257,-3.01404,0.0827333,0.713135,0.663264,
2,1,0,1,0,25008.3,0.682974,0.682698,1.68262,37,0.0519784,10,0.00114872,-2.77401,0.075047,0.786174,0.681958,
2,1,0,1,0,25012.1,0.701951,0.701694,2.92617,37,0.0605863,10,0.00205327,-2.5337,0.0795949,0.741254,0.700407,
2,1,0,1,0,25015.9,0.720928,0.720646,4.77898,37,0.0750564,10,0.00344395,-2.32066,0.0922844,0.639328,0.718543,
2,1,0,1,0,25019.7,0.739905,0.739642,7.24792,37,0.0977311,10,0.00536087,-2.13979,0.106884,0.551999,0.736453,
2,1,0,1,0,25023.5,0.758883,0.758625,10.3365,37,0.130941,10,0.00784156,-1.98562,0.121265,0.486537,0.754076,
2,1,0,0,0,25027.3,0.77786,0.777577,14.2763,37,0.177339,10,0.0111009,-1.84538,0.12143,0.485877,0.771296,
2,1,0,1,0,25031,0.796837,0.796592,19.5408,37,0.241091,10,0.0155661,-1.70906,0.120364,0.490179,0.787994,
2,1,0,0,0,25034.8,0.815814,0.815558,26.0482,37,0.327376,10,0.0212438,-1.58422,0.145119,0.406564,0.804097,
2,1,0,1,0,25038.6,0.834791,0.83453,33.2691,37,0.43976,10,0.0277641,-1.47796,0.158949,0.371187,0.819891,
2,1,0,1,0,25042.3,0.846727,0.846487,37.0176,37,0.57472,10,0.0313349,-1.43159,0.125105,0.471604,0.830199,
2,1,0,1,0,25046.1,0.827749,0.827473,28.5665,37,0.698402,10,0.023638,-1.54414,0.133202,0.442938,0.814904,
2,1,0,1,0,25049.9,0.808772,0.808521,21.5874,37,0.793273,10,0.0174539,-1.6658,0.120527,0.489517,0.799022,
2,1,0,1,0,25053.7,0.789795,0.789512,15.7003,37,0.863331,10,0.0123956,-1.80409,0.112152,0.526073,0.782604,
2,1,0,1,0,25057.5,0.770818,0.770544,10.9576,37,0.913485,10,0.0084433,-1.96028,0.102617,0.574956,0.765722,
2,1,0,1,0,25061.3,0.751841,0.751593,7.39379,37,0.947937,10,0.00555713,-2.13113,0.0968282,0.609326,0.74834,
2,1,0,1,0,25065.1,0.732865,0.732577,4.75172,37,0.97068,10,0.003481,-2.32315,0.0861914,0.684523,0.730486,
2,1,0,1,0,25068.9,0.713887,0.713619,2.83606,37,0.984816,10,0.00202386,-2.54729,0.0754458,0.782018,0.712371,
2,1,0,0,0,25072.7,0.69491,0.694632,1.53656,37,0.992893,10,0.00106735,-2.81345,0.0637582,0.925371,0.693956,
2,1,0,1,0,25076.5,0.675933,0.675669,0.72964,37,0.997011,10,0.000492995,-3.13689,0.0528854,1.11562,0.675348,
2,1,0,0,0,25080.3,0.656956,0.656639,0.289771,37,0.998805,10,0.000190275,-3.53795,0.0411429,1.43402,0.656511,
2,1,0,1,0,25084.1,0.637979,0.637701,0.0769649,37,0.999402,10,4.90806e-05,-4.11371,0.0236506,2.49465,0.637667,
2,0,0,0,0,25087.9,0.619002,0.618729,-0.0172811,37,0.999443,10,-1.06924e-05,-4.76243,-0.0131577,-4.48405,0.618737,
2,0,0,1,0,25091.7,0.600025,0.599747,-0.0570595,37,0.999244,10,-3.42212e-05,-4.24367,-0.093973,-0.62784,0.599772,
2,0,0,1,0,25095.5,0.581047,0.580744,-0.075107,37,0.998942,10,-4.36179e-05,-4.12432,-0.391343,-0.150763,0.580777,
2,0,0,1,0,25099.3,0.56207,0.561755,-0.0860427,37,0.998586,10,-4.8335e-05,-4.06529,-0.473088,-0.124713,0.561793,
2,0,0,1,0,25103.1,0.543093,0.542796,-0.0929054,37,0.998198,10,-5.04286e-05,-4.03196,-0.950601,-0.062066,0.542836,
2,0,0,1,0,25106.9,0.524116,0.523809,-0.098187,37,0.997788,10,-5.14313e-05,-4.00795,-1.22289,-0.0482464,0.523853,
2,0,0,1,0,25110.6,0.505139,0.504871,-0.102965,37,0.997355,10,-5.1984e-05,-3.98731,-1.04199,-0.0566225,0.504916,
2,0,0,1,0,25114.4,0.486162,0.485864,-0.109722,37,0.996901,10,-5.33102e-05,-3.9597,-0.915229,-0.0644647,0.485912,
2,0,0,1,0,25118.2,0.467185,0.466884,-0.11545,37,0.996424,10,-5.39015e-05,-3.93761,-0.636186,-0.0927402,0.466935,
2,0,0,0,0,25122,0.448208,0.447892,-0.12322,37,0.995919,10,-5.51893e-05,-3.90932,-2.31653,-0.0254692,0.447946,
2,0,0,1,0,25125.8,0.429231,0.428953,-0.130601,37,0.995385,10,-5.60216e-05,-3.88405,-1.55172,-0.0380222,0.42901,
2,0,0,0,0,25129.6,0.410254,0.409936,-0.140546,37,0.994817,10,-5.7615e-05,-3.85218,-0.496565,-0.118816,0.409998,
2,0,0,1,0,25133.4,0.391277,0.390993,-0.149788,37,0.994211,10,-5.8566e-05,-3.82452,-0.813209,-0.0725521,0.391059,
2,0,0,0,0,25137.2,0.3723,0.371971,-0.15991,37,0.993567,10,-5.94816e-05,-3.79613,-0.7802,-0.0756216,0.372041,
2,0,0,1,0,25141,0.353322,0.353064,-0.1707,37,0.992883,10,-6.02679e-05,-3.76777,-0.628859,-0.0938207,0.353139,
2,0,0,1,0,25144.8,0.334345,0.334005,-0.182058,37,0.992153,10,-6.08081e-05,-3.73979,-0.735285,-0.080241,0.334085,
2,0,0,1,0,25148.6,0.315368,0.315081,-0.19258,37,0.99138,10,-6.06783e-05,-3.71539,-0.975659,-0.0604719,0.315165,
2,0,0,1,0,25152.4,0.296391,0.296092,-0.20573,37,0.990562,10,-6.09151e-05,-3.6867,-0.493579,-0.119535,0.296183,
2,0,0,1,0,25156.2,0.277414,0.277105,-0.218266,37,0.989696,10,-6.04824e-05,-3.66101,-0.77023,-0.0766005,0.277201,
2,0,0,1,0,25160,0.258437,0.258104,-0.230345,37,0.98878,10,-5.9453e-05,-3.63762,-0.884123,-0.0667328,0.258206,
2,0,0,1,0,25163.8,0.239461,0.23914,-0.242698,37,0.987818,10,-5.80389e-05,-3.61493,-0.884274,-0.0667214,0.239247,
2,0,0,1,0,25167.6,0.220483,0.22019,-0.255194,37,0.98681,10,-5.61913e-05,-3.59313,-0.686893,-0.085894,0.220303,
2,0,0,0,0,25171.4,0.201506,0.201174,-0.268795,37,0.98575,10,-5.40746e-05,-3.57058,-0.448047,-0.131682,0.201292,
2,0,0,1,0,25175.2,0.182529,0.182238,-0.288955,37,0.984625,10,-5.26587e-05,-3.53917,-0.36815,-0.160261,0.182366,
2,0,0,0,0,25179,0.163552,0.163213,-0.328722,37,0.983392,10,-5.36516e-05,-3.48317,-0.262853,-0.22446,0.163357,
2,0,0,1,0,25182.8,0.144575,0.144241,-0.447973,37,0.981896,10,-6.46161e-05,-3.34875,-0.0861421,-0.684915,0.144438,
2,0,0,0,0,25186.6,0.125598,0.12527,-0.684309,37,0.97965,10,-8.57236e-05,-3.16475,-0.194178,-0.303845,0.125571,
2,0,0,1,0,25190.4,0.10662,0.106319,-0.713146,37,0.976862,10,-7.58212e-05,-3.14682,0.798468,0.0738915,0.106633,
2,0,0,1,0,25194.1,0.0876433,0.0873434,-0.665175,37,0.974169,10,-5.80987e-05,-3.17706,0.638176,0.0924509,0.0876361,
2,0,0,1,0,25197.9,0.0686664,0.0683487,-0.620687,37,0.971664,10,-4.24232e-05,-3.20713,0.607126,0.0971792,0.0686218,
2,0,0,1,0,25201.7,0.0496895,0.0493812,-0.575938,37,0.969318,10,-2.84405e-05,-3.23962,0.542709,0.108714,0.0496346,
2,0,0,1,0,25205.5,0.0307126,0.0304204,-0.526661,37,0.967149,10,-1.60212e-05,-3.27847,0.441562,0.133616,0.0306521,
2,0,0,1,0,25209.3,0.0117356,0.0114255,-0.492615,37,0.965146,10,-5.62836e-06,-3.30749,1.11384,0.0529699,0.0116422,
2,0,0,1,0,25211.6,0.000274105,-8.6732e-05,-0.493643,37,0.963973,10,4.28146e-08,-3.30659, , ,0.000130471,