Folder: Figs_alphaMnO2_OER_Tafel_sleope/Figure_codes/Fig_3-5/workspace_calculate_alpha_eff (part 44)

File: 20221101_1-115_003_TrumpetPlot_ParaChange_from10_every3_16_CV_C01_79.csv
mode,ox/red,error,control changes,counter inc.,time/s,control/V,Ewe/V,<I>/mA,cycle number,(Q-Qo)/C,I Range,P/W,log(|I|),Tafel slope mV/dec,alpha_eff,E-IR/V,
2,0,0,0,0,52823.5,2.44065e-05,-0.000382585,-0.10003,80,0.0000000E+000,10,3.82701e-08,-3.99987, , ,-0.000338572,
2,1,0,1,0,52827.3,0.0187763,0.0184232,0.213777,80,0.000694219,10,3.93846e-06,-3.67004,0.139394,0.423261,0.0183291,
2,1,0,1,0,52831.1,0.0377538,0.0374156,0.276477,80,0.00167974,10,1.03446e-05,-3.55834,0.197585,0.298606,0.037294,
2,1,0,0,0,52834.9,0.0567309,0.0563651,0.337632,80,0.00290731,10,1.90306e-05,-3.47156,0.309151,0.190845,0.0562165,
2,1,0,1,0,52838.6,0.075708,0.0753612,0.382656,80,0.00433466,10,2.88374e-05,-3.41719,0.487495,0.121027,0.0751928,
2,1,0,0,0,52842.4,0.094685,0.094335,0.43397,80,0.00592484,10,4.09386e-05,-3.36254,0.251276,0.234802,0.0941441,
2,1,0,1,0,52846.2,0.113662,0.113343,0.527539,80,0.00780301,10,5.97927e-05,-3.27775,0.335027,0.176105,0.113111,
2,1,0,0,0,52850,0.132639,0.132315,0.562633,80,0.00995007,10,7.44445e-05,-3.24977,-0.646602,-0.0912462,0.132067,
2,1,0,1,0,52853.8,0.151617,0.151288,0.372962,80,0.0118469,10,5.64246e-05,-3.42834,-0.0786269,-0.75038,0.151124,
2,1,0,1,0,52857.6,0.170594,0.170272,0.284109,80,0.0130936,10,4.83757e-05,-3.54652,-0.337859,-0.174629,0.170147,
2,1,0,1,0,52861.4,0.189571,0.18926,0.266097,80,0.0141808,10,5.03617e-05,-3.57496,-0.931306,-0.0633519,0.189143,
2,1,0,1,0,52865.2,0.208547,0.208268,0.259231,80,0.0152251,10,5.39895e-05,-3.58631,-2.8563,-0.0206561,0.208154,
2,1,0,1,0,52869,0.227524,0.227243,0.253291,80,0.0162434,10,5.75586e-05,-3.59638,-1.02723,-0.0574362,0.227131,
2,1,0,1,0,52872.8,0.246501,0.246201,0.249453,80,0.0172433,10,6.14154e-05,-3.60301,-0.757816,-0.0778553,0.246091,
2,1,0,0,0,52876.6,0.265479,0.265145,0.245387,80,0.0182298,10,6.50631e-05,-3.61015,-1.39835,-0.0421927,0.265037,
2,1,0,1,0,52880.4,0.284456,0.284105,0.24223,80,0.0192006,10,6.88189e-05,-3.61577,-1.92003,-0.0307287,0.283999,
2,1,0,0,0,52884.2,0.303433,0.303097,0.237165,80,0.0201536,10,7.18842e-05,-3.62495,-3.88217,-0.0151977,0.302993,
2,1,0,1,0,52888,0.32241,0.322104,0.233944,80,0.0210913,10,7.53543e-05,-3.63089,-6.73902,-0.00875498,0.322001,
2,1,0,0,0,52891.8,0.341387,0.341074,0.230988,80,0.0220162,10,7.87838e-05,-3.63641,-2.52611,-0.0233561,0.340972,
2,1,0,1,0,52895.6,0.360364,0.36003,0.230129,80,0.02293,10,8.28536e-05,-3.63803,-7.32058,-0.00805947,0.359929,
2,1,0,1,0,52899.4,0.379342,0.379034,0.227369,80,0.0238347,10,8.61808e-05,-3.64327,-2.12067,-0.0278214,0.378934,
2,1,0,1,0,52903.2,0.398319,0.398051,0.225545,80,0.024732,10,8.97784e-05,-3.64677,3.41445,0.0172795,0.397951,
2,1,0,1,0,52907,0.417295,0.417016,0.225036,80,0.0256238,10,9.38434e-05,-3.64775,4.8794,0.0120917,0.416917,
2,1,0,1,0,52910.8,0.436272,0.435975,0.223964,80,0.0265124,10,9.76428e-05,-3.64982,-6.37243,-0.00925863,0.435876,
2,1,0,1,0,52914.6,0.455249,0.454921,0.223634,80,0.0273981,10,0.000101736,-3.65046,4.69,0.01258,0.454822,
2,1,0,1,0,52918.3,0.474226,0.473974,0.225021,80,0.0282847,10,0.000106654,-3.64778,1.61023,0.0366407,0.473875,
2,1,0,1,0,52922.1,0.493203,0.492921,0.227966,80,0.0291777,10,0.000112369,-3.64213,-52.8386,-0.00111661,0.492821,
2,1,0,0,0,52925.9,0.512181,0.511796,0.231528,80,0.0300823,10,0.000118495,-3.6354,1.9025,0.0310118,0.511694,
2,1,0,1,0,52929.7,0.531158,0.530833,0.238011,80,0.0310045,10,0.000126344,-3.6234,4.11011,0.0143549,0.530729,
2,1,0,0,0,52933.5,0.550135,0.549858,0.245893,80,0.031953,10,0.000135206,-3.60925,1.09186,0.0540362,0.54975,
2,1,0,1,0,52937.3,0.569112,0.568819,0.258094,80,0.0329397,10,0.000146809,-3.58822,0.719996,0.0819449,0.568706,
2,1,0,0,0,52941.1,0.588089,0.587724,0.277419,80,0.0339843,10,0.000163046,-3.55686,0.454799,0.129728,0.587602,
2,1,0,1,0,52944.9,0.607066,0.606772,0.309836,80,0.0351226,10,0.000188,-3.50887,0.329696,0.178953,0.606636,
2,1,0,1,0,52948.7,0.626044,0.625781,0.367794,80,0.0364261,10,0.000230159,-3.4344,0.19557,0.301682,0.62562,
2,1,0,1,0,52952.5,0.64502,0.644741,0.485701,80,0.0380504,10,0.000313151,-3.31363,0.129832,0.454433,0.644528,
2,1,0,1,0,52956.3,0.663997,0.663695,0.72376,80,0.0403229,10,0.000480356,-3.14041,0.0939648,0.627895,0.663376,
2,1,0,1,0,52960.1,0.682974,0.682703,1.18491,80,0.0438893,10,0.00080894,-2.92632,0.0838239,0.703857,0.682181,
2,1,0,1,0,52963.9,0.701951,0.701695,1.99285,80,0.0497949,10,0.00139837,-2.70053,0.0790028,0.746809,0.700819,
2,1,0,1,0,52967.7,0.720928,0.720656,3.16795,80,0.0594874,10,0.002283,-2.49922,0.0969639,0.608474,0.719262,
2,1,0,1,0,52971.5,0.739905,0.73961,4.75853,80,0.0744259,10,0.00351946,-2.32253,0.110494,0.533966,0.737516,
2,1,0,0,0,52975.3,0.758883,0.758585,6.81676,80,0.0962592,10,0.0051711,-2.16642,0.121351,0.486194,0.755586,
2,1,0,1,0,52979.1,0.77786,0.777561,9.44821,80,0.126946,10,0.00734656,-2.02465,0.127669,0.462132,0.773404,
2,1,0,0,0,52982.9,0.796837,0.796562,12.9457,80,0.169128,10,0.0103121,-1.88787,0.12535,0.470682,0.790865,
2,1,0,1,0,52986.7,0.815814,0.815502,17.6313,80,0.22682,10,0.0143784,-1.75371,0.129073,0.457107,0.807744,
2,1,0,0,0,52990.5,0.834791,0.834577,23.3426,80,0.304395,10,0.0194812,-1.63185,0.147561,0.399835,0.824306,
2,1,0,0,0,52994.2,0.846726,0.846499,26.5665,80,0.400932,10,0.0224885,-1.57567,0.102422,0.576051,0.83481,
2,1,0,1,0,52998,0.827749,0.827486,19.3375,80,0.487092,10,0.0160015,-1.7136,0.111591,0.528718,0.818977,
2,1,0,1,0,53001.7,0.808772,0.808487,14.0701,80,0.549912,10,0.0113755,-1.8517,0.118569,0.497602,0.802296,
2,1,0,1,0,53005.5,0.789795,0.789491,10.0582,80,0.59529,10,0.00794087,-1.99748,0.116181,0.50783,0.785065,
2,1,0,1,0,53009.3,0.770818,0.770531,7.03082,80,0.627415,10,0.00541746,-2.15299,0.111209,0.530533,0.767437,
2,1,0,1,0,53013.1,0.751841,0.751564,4.80117,80,0.649624,10,0.00360838,-2.31865,0.105024,0.561775,0.749451,
2,1,0,1,0,53016.9,0.732865,0.732587,3.14407,80,0.664517,10,0.00230331,-2.50251,0.0919621,0.641569,0.731203,
2,1,0,0,0,53020.7,0.713887,0.713625,1.92048,80,0.673977,10,0.0013705,-2.71659,0.0797025,0.740252,0.71278,
2,1,0,1,0,53024.5,0.69491,0.694622,1.06108,80,0.679512,10,0.000737051,-2.97425,0.0644761,0.915068,0.694155,
2,1,0,0,0,53028.3,0.675933,0.675637,0.49889,80,0.682354,10,0.000337068,-3.302,0.0504124,1.17035,0.675418,
2,1,0,1,0,53032.1,0.656956,0.656644,0.178272,80,0.683541,10,0.000117061,-3.74892,0.0333594,1.76862,0.656566,
2,1,0,0,0,53035.9,0.637979,0.637666,0.0165404,80,0.683841,10,1.05473e-05,-4.78145,0.00536775,10.9916,0.637659,
2,0,0,1,0,53039.7,0.619002,0.618717,-0.0535865,80,0.683722,10,-3.31549e-05,-4.27094,-0.0592561,-0.995678,0.61874,
2,0,0,0,0,53043.5,0.600024,0.599714,-0.0854034,80,0.683418,10,-5.12176e-05,-4.06852,-0.188892,-0.312349,0.599752,
2,0,0,1,0,53047.3,0.581047,0.580739,-0.101224,80,0.68303,10,-5.87847e-05,-3.99472,-0.373263,-0.158066,0.580783,
2,0,0,1,0,53051.1,0.56207,0.561738,-0.108959,80,0.682599,10,-6.12065e-05,-3.96274,-1.10745,-0.0532754,0.561786,
2,0,0,1,0,53054.9,0.543093,0.542767,-0.114847,80,0.682143,10,-6.23349e-05,-3.93988,5.11695,0.0115303,0.542818,
2,0,0,1,0,53058.7,0.524116,0.523765,-0.119159,80,0.681668,10,-6.24115e-05,-3.92387,94.6953,0.000623051,0.523817,
2,0,0,1,0,53062.5,0.505139,0.504821,-0.123188,80,0.681175,10,-6.21879e-05,-3.90943,-0.80215,-0.0735523,0.504875,
2,0,0,1,0,53066.3,0.486162,0.48578,-0.12838,80,0.680664,10,-6.23646e-05,-3.8915,-1.46344,-0.0403159,0.485837,
2,0,0,1,0,53070.1,0.467185,0.466837,-0.134348,80,0.68013,10,-6.27188e-05,-3.87177,-1.57664,-0.0374214,0.466896,
2,0,0,1,0,53073.9,0.448208,0.447946,-0.141677,80,0.679572,10,-6.34636e-05,-3.8487,-0.785489,-0.0751125,0.448008,
2,0,0,0,0,53077.7,0.429231,0.428932,-0.148979,80,0.678985,10,-6.39021e-05,-3.82687,-1.13663,-0.0519078,0.428998,
2,0,0,1,0,53081.5,0.410254,0.409893,-0.157598,80,0.678365,10,-6.45984e-05,-3.80245,-2.24777,-0.0262482,0.409962,
2,0,0,0,0,53085.2,0.391277,0.390947,-0.167857,80,0.67771,10,-6.56232e-05,-3.77506,-0.826571,-0.0713792,0.39102,
2,0,0,1,0,53089,0.3723,0.371926,-0.177598,80,0.677018,10,-6.60534e-05,-3.75056,-1.10194,-0.053542,0.372004,
2,0,0,1,0,53092.8,0.353322,0.353023,-0.186301,80,0.676288,10,-6.57684e-05,-3.72979,-0.937877,-0.062908,0.353105,
2,0,0,1,0,53096.6,0.334345,0.334033,-0.197957,80,0.675516,10,-6.61243e-05,-3.70343,-0.69731,-0.0846109,0.33412,
2,0,0,1,0,53100.4,0.315368,0.315048,-0.208853,80,0.674702,10,-6.57987e-05,-3.68016,-1.02315,-0.0576648,0.31514,
2,0,0,1,0,53104.2,0.296391,0.296027,-0.221295,80,0.673842,10,-6.55091e-05,-3.65503,-0.609695,-0.0967697,0.296124,
2,0,0,1,0,53108,0.277414,0.277072,-0.233151,80,0.672936,10,-6.45997e-05,-3.63236,-0.918324,-0.0642475,0.277174,
2,0,0,1,0,53111.8,0.258437,0.258136,-0.245084,80,0.671983,10,-6.3265e-05,-3.61069,-0.782609,-0.0753888,0.258244,
2,0,0,1,0,53115.6,0.239461,0.239114,-0.256648,80,0.670985,10,-6.1368e-05,-3.59066,-1.12935,-0.0522426,0.239227,
2,0,0,0,0,53119.4,0.220483,0.220181,-0.268043,80,0.669944,10,-5.90179e-05,-3.5718,-0.581476,-0.101466,0.220299,
2,0,0,1,0,53123.2,0.201506,0.201189,-0.280151,80,0.668856,10,-5.63633e-05,-3.55261,-0.631709,-0.0933974,0.201312,
2,0,0,0,0,53127,0.182529,0.182175,-0.298238,80,0.667711,10,-5.43315e-05,-3.52544,-0.507698,-0.116211,0.182306,
2,0,0,1,0,53130.8,0.163552,0.163197,-0.327856,80,0.666478,10,-5.35051e-05,-3.48432,-0.348754,-0.169174,0.163341,
2,0,0,0,0,53134.6,0.144575,0.144238,-0.411346,80,0.665054,10,-5.93316e-05,-3.38579,-0.119007,-0.495769,0.144419,
2,0,0,1,0,53138.4,0.125598,0.125269,-0.610656,80,0.663071,10,-7.64964e-05,-3.2142,-0.150541,-0.39192,0.125538,
2,0,0,1,0,53142.2,0.10662,0.106277,-0.674608,80,0.660517,10,-7.16953e-05,-3.17095,6.05635,0.00974184,0.106574,
2,0,0,1,0,53146,0.0876433,0.0873425,-0.652654,80,0.657929,10,-5.70044e-05,-3.18532,0.818563,0.0720775,0.0876296,
2,0,0,1,0,53149.8,0.0686664,0.0682976,-0.615909,80,0.655466,10,-4.20651e-05,-3.21048,0.641245,0.0920086,0.0685686,
2,0,0,1,0,53153.6,0.0496895,0.049342,-0.574084,80,0.653147,10,-2.83265e-05,-3.24102,0.594692,0.099211,0.0495946,
2,0,0,1,0,53157.4,0.0307126,0.0303589,-0.528007,80,0.650998,10,-1.60297e-05,-3.27736,0.592968,0.0994994,0.0305913,
2,0,0,1,0,53161.2,0.0117356,0.0113904,-0.498436,80,0.649003,10,-5.6774e-06,-3.30239,1.13782,0.0518535,0.0116097,
2,0,0,0,0,53163.4,0.000274105,-0.000135643,-0.499249,80,0.647829,10,6.77198e-08,-3.30168, , ,8.40265e-05,

File: 20221101_1-115_003_TrumpetPlot_ParaChange_from10_every3_16_CV_C01_80.csv
mode,ox/red,error,control changes,counter inc.,time/s,control/V,Ewe/V,<I>/mA,cycle number,(Q-Qo)/C,I Range,P/W,log(|I|),Tafel slope mV/dec,alpha_eff,E-IR/V,
2,0,0,0,0,53193.5,2.44065e-05,-0.000306236,-0.104482,81,0.0000000E+000,10,3.19963e-08,-3.98096, , ,-0.000260264,
2,1,0,1,0,53197.3,0.0187763,0.018419,0.203888,81,0.000654905,10,3.75541e-06,-3.69061,0.145222,0.406276,0.0183293,
2,1,0,1,0,53201.1,0.0377538,0.0373647,0.266426,81,0.00160098,10,9.95492e-06,-3.57442,0.167727,0.351763,0.0372475,
2,1,0,0,0,53204.9,0.0567309,0.056381,0.327517,81,0.00278927,10,1.84657e-05,-3.48477,0.258055,0.228633,0.0562369,
2,1,0,1,0,53208.6,0.075708,0.0753877,0.372431,81,0.00418039,10,2.80767e-05,-3.42895,0.428188,0.13779,0.0752238,
2,1,0,0,0,53212.4,0.094685,0.0943562,0.425319,81,0.00573908,10,4.01315e-05,-3.37129,0.254863,0.231497,0.0941691,
2,1,0,1,0,53216.2,0.113662,0.113344,0.518699,81,0.00758718,10,5.87914e-05,-3.28508,0.32142,0.183561,0.113116,
2,1,0,0,0,53220,0.132639,0.132269,0.554957,81,0.00970476,10,7.34036e-05,-3.25574,-0.576823,-0.102284,0.132025,
2,1,0,1,0,53223.8,0.151617,0.15128,0.364967,81,0.0115679,10,5.52123e-05,-3.43775,-0.0778541,-0.757828,0.15112,
2,1,0,1,0,53227.6,0.170594,0.17026,0.274363,81,0.0127789,10,4.67133e-05,-3.56167,-0.285866,-0.20639,0.17014,
2,1,0,1,0,53231.4,0.189571,0.189221,0.255951,81,0.0138278,10,4.84314e-05,-3.59184,-1.52067,-0.0387986,0.189109,
2,1,0,1,0,53235.2,0.208547,0.208181,0.249253,81,0.0148326,10,5.18899e-05,-3.60336,-1.56366,-0.0377321,0.208072,
2,1,0,1,0,53239,0.227524,0.227168,0.243666,81,0.0158139,10,5.5353e-05,-3.61321,-1.14748,-0.051417,0.22706,
2,1,0,1,0,53242.8,0.246501,0.246149,0.239628,81,0.0167777,10,5.89841e-05,-3.62046,-1.48281,-0.0397894,0.246043,
2,1,0,0,0,53246.6,0.265479,0.265192,0.236397,81,0.0177276,10,6.26906e-05,-3.62636,-1.70176,-0.03467,0.265088,
2,1,0,1,0,53250.4,0.284456,0.284131,0.231625,81,0.0186628,10,6.58119e-05,-3.63521,59.9746,0.00098375,0.284029,
2,1,0,0,0,53254.2,0.303433,0.303075,0.228416,81,0.0195805,10,6.92271e-05,-3.64127,-2.49034,-0.0236915,0.302975,
2,1,0,1,0,53258,0.32241,0.322072,0.225976,81,0.0204827,10,7.27806e-05,-3.64594,-3.92362,-0.0150371,0.321973,
2,1,0,0,0,53261.8,0.341387,0.341039,0.222316,81,0.0213728,10,7.58183e-05,-3.65303,-3.90332,-0.0151153,0.340941,
2,1,0,1,0,53265.6,0.360364,0.359993,0.220412,81,0.0222526,10,7.93469e-05,-3.65676,-2.98077,-0.0197936,0.359896,
2,1,0,1,0,53269.4,0.379342,0.378985,0.218689,81,0.0231239,10,8.28797e-05,-3.66017,-1.86189,-0.0316882,0.378888,
2,1,0,1,0,53273.2,0.398319,0.397991,0.2169,81,0.0239881,10,8.63244e-05,-3.66374,-3.53058,-0.0167111,0.397896,
2,1,0,1,0,53277,0.417295,0.416979,0.216183,81,0.0248469,10,9.01437e-05,-3.66518,-1.71563,-0.0343897,0.416884,
2,1,0,1,0,53280.8,0.436272,0.435911,0.215601,81,0.0257012,10,9.39828e-05,-3.66635,7.66346,0.00769887,0.435816,
2,1,0,1,0,53284.6,0.455249,0.454932,0.216752,81,0.026554,10,9.86073e-05,-3.66404,-6.71827,-0.00878203,0.454837,
2,1,0,1,0,53288.4,0.474226,0.473854,0.217228,81,0.0274092,10,0.000102934,-3.66309,1.2822,0.0460148,0.473759,
2,1,0,1,0,53292.1,0.493203,0.49288,0.219964,81,0.0282711,10,0.000108416,-3.65765,2.07092,0.0284898,0.492783,
2,1,0,0,0,53295.9,0.512181,0.511827,0.22355,81,0.029144,10,0.000114419,-3.65063,1.71078,0.0344871,0.511728,
2,1,0,1,0,53299.7,0.531158,0.530808,0.228871,81,0.0300336,10,0.000121486,-3.64041,2.34773,0.0251306,0.530707,
2,1,0,0,0,53303.5,0.550135,0.549786,0.237329,81,0.0309486,10,0.00013048,-3.62465,0.910797,0.0647784,0.549682,
2,1,0,1,0,53307.3,0.569112,0.568771,0.249543,81,0.0319012,10,0.000141933,-3.60285,0.666146,0.0885692,0.568662,
2,1,0,0,0,53311.1,0.588089,0.587725,0.268483,81,0.0329102,10,0.000157794,-3.57108,0.614568,0.0960024,0.587607,
2,1,0,1,0,53314.9,0.607066,0.606688,0.298766,81,0.0340097,10,0.000181258,-3.52467,0.324519,0.181808,0.606557,
2,1,0,1,0,53318.7,0.626044,0.625708,0.353419,81,0.0352664,10,0.000221137,-3.45171,0.203788,0.289517,0.625553,
2,1,0,1,0,53322.5,0.64502,0.644654,0.464299,81,0.0368256,10,0.000299312,-3.3332,0.132258,0.446098,0.64445,
2,1,0,1,0,53326.3,0.663997,0.663688,0.690501,81,0.038996,10,0.000458277,-3.16084,0.0963474,0.612368,0.663384,
2,1,0,1,0,53330.1,0.682974,0.68261,1.12737,81,0.042392,10,0.000769555,-2.94793,0.0846972,0.696599,0.682114,
2,1,0,1,0,53333.9,0.701951,0.701614,1.87747,81,0.0480121,10,0.00131726,-2.72643,0.0852277,0.692263,0.700788,
2,1,0,1,0,53337.7,0.720928,0.720586,2.99252,81,0.0571622,10,0.00215637,-2.52396,0.0974267,0.605584,0.71927,
2,1,0,1,0,53341.5,0.739905,0.739595,4.49904,81,0.0712788,10,0.00332747,-2.34688,0.10962,0.538223,0.737616,
2,1,0,0,0,53345.3,0.758883,0.758519,6.45538,81,0.0919441,10,0.00489653,-2.19008,0.121235,0.486656,0.755678,
2,1,0,1,0,53349.1,0.77786,0.777514,8.96413,81,0.12104,10,0.00696973,-2.04749,0.128307,0.459834,0.773569,
2,1,0,0,0,53352.9,0.796837,0.796523,12.2466,81,0.161004,10,0.00975473,-1.91198,0.128606,0.458766,0.791135,
2,1,0,1,0,53356.7,0.815814,0.815485,16.5556,81,0.21532,10,0.0135008,-1.78105,0.126984,0.464625,0.8082,
2,1,0,0,0,53360.5,0.834791,0.834497,22.0209,81,0.288312,10,0.0183764,-1.65716,0.143307,0.411705,0.824807,
2,1,0,0,0,53364.2,0.846726,0.846431,25.2272,81,0.379633,10,0.0213531,-1.59813,0.107019,0.551305,0.835332,
2,1,0,1,0,53368,0.827749,0.827441,18.5557,81,0.462083,10,0.0153537,-1.73152,0.117602,0.501692,0.819277,
2,1,0,1,0,53371.8,0.808772,0.80845,13.4547,81,0.522388,10,0.0108774,-1.87113,0.118971,0.495919,0.802529,
2,1,0,1,0,53375.5,0.789795,0.789477,9.62208,81,0.565804,10,0.00759641,-2.01673,0.114939,0.513314,0.785243,
2,1,0,1,0,53379.3,0.770818,0.770455,6.72738,81,0.596487,10,0.00518314,-2.17215,0.112544,0.524238,0.767495,
2,1,0,1,0,53383.1,0.751841,0.751516,4.59888,81,0.617764,10,0.00345613,-2.33735,0.105446,0.55953,0.749492,
2,1,0,1,0,53386.9,0.732865,0.732568,3.00319,81,0.632011,10,0.00220004,-2.52242,0.0931785,0.633193,0.731246,
2,1,0,0,0,53390.7,0.713887,0.713583,1.82658,81,0.641031,10,0.00130341,-2.73836,0.0767839,0.76839,0.712779,
2,1,0,1,0,53394.5,0.69491,0.69457,0.99618,81,0.646257,10,0.000691916,-3.00166,0.0635308,0.928683,0.694131,
2,1,0,0,0,53398.3,0.675933,0.675604,0.460092,81,0.648906,10,0.00031084,-3.33716,0.0487364,1.21059,0.675402,
2,1,0,1,0,53402.1,0.656956,0.656636,0.155711,81,0.649984,10,0.000102245,-3.80768,0.0313416,1.88248,0.656567,
2,1,0,0,0,53405.9,0.637979,0.637661,0.00442197,81,0.65022,10,2.81972e-06,-5.35438,0.0107922,5.46694,0.637659,
2,0,0,1,0,53409.7,0.619002,0.618631,-0.0618225,81,0.650063,10,-3.82453e-05,-4.20885,-0.0618369,-0.954123,0.618658,
2,0,0,0,0,53413.5,0.600024,0.599631,-0.0919888,81,0.649732,10,-5.51594e-05,-4.03627,-0.235115,-0.250941,0.599672,
2,0,0,1,0,53417.3,0.581047,0.580684,-0.106616,81,0.649321,10,-6.19099e-05,-3.97218,-0.409433,-0.144102,0.580731,
2,0,0,1,0,53421.1,0.56207,0.56172,-0.11403,81,0.64887,10,-6.4053e-05,-3.94298,-2.2559,-0.0261536,0.56177,
2,0,0,1,0,53424.9,0.543093,0.54274,-0.119165,81,0.648395,10,-6.46758e-05,-3.92385,-1.25068,-0.0471744,0.542792,
2,0,0,1,0,53428.7,0.524116,0.523764,-0.123916,81,0.647903,10,-6.49027e-05,-3.90687,-0.57339,-0.102897,0.523818,
2,0,0,1,0,53432.5,0.505139,0.504801,-0.127506,81,0.647394,10,-6.43651e-05,-3.89447,-1.24224,-0.0474949,0.504857,
2,0,0,1,0,53436.3,0.486162,0.485807,-0.133083,81,0.646867,10,-6.46527e-05,-3.87588,9.00799,0.00654974,0.485865,
2,0,0,1,0,53440.1,0.467185,0.466792,-0.139248,81,0.646319,10,-6.49998e-05,-3.85621,-1.35823,-0.0434389,0.466853,
2,0,0,1,0,53443.9,0.448208,0.447842,-0.145692,81,0.645745,10,-6.52469e-05,-3.83656,-1.90002,-0.0310522,0.447906,
2,0,0,0,0,53447.7,0.429231,0.428858,-0.153128,81,0.645143,10,-6.56704e-05,-3.81494,-2.19866,-0.0268346,0.428926,
2,0,0,1,0,53451.5,0.410254,0.409862,-0.161222,81,0.644509,10,-6.60786e-05,-3.79258,-1.0874,-0.0542578,0.409933,
2,0,0,0,0,53455.2,0.391277,0.390895,-0.170328,81,0.643841,10,-6.65802e-05,-3.76871,-0.667023,-0.0884527,0.39097,
2,0,0,1,0,53459,0.3723,0.371965,-0.180576,81,0.643136,10,-6.7168e-05,-3.74334,-0.476155,-0.123909,0.372045,
2,0,0,1,0,53462.8,0.353322,0.352969,-0.191088,81,0.642391,10,-6.7448e-05,-3.71877,-0.774755,-0.0761531,0.353053,
2,0,0,1,0,53466.6,0.334345,0.334002,-0.201774,81,0.641606,10,-6.73929e-05,-3.69514,-0.944677,-0.0624552,0.334091,
2,0,0,1,0,53470.4,0.315368,0.314966,-0.212795,81,0.640778,10,-6.70233e-05,-3.67204,-2.69283,-0.02191,0.31506,
2,0,0,1,0,53474.2,0.296391,0.296014,-0.224666,81,0.639906,10,-6.65042e-05,-3.64846,-0.661706,-0.0891635,0.296113,
2,0,0,1,0,53478,0.277414,0.27708,-0.236843,81,0.638988,10,-6.56244e-05,-3.62554,-0.858754,-0.0687042,0.277184,
2,0,0,1,0,53481.8,0.258437,0.25806,-0.248291,81,0.638023,10,-6.40739e-05,-3.60504,-0.628835,-0.0938243,0.258169,
2,0,0,1,0,53485.6,0.239461,0.23913,-0.260604,81,0.637013,10,-6.23181e-05,-3.58402,-1.21954,-0.0483787,0.239244,
2,0,0,0,0,53489.4,0.220483,0.220165,-0.270914,81,0.63596,10,-5.96457e-05,-3.56717,-0.573248,-0.102922,0.220284,
2,0,0,1,0,53493.2,0.201506,0.201138,-0.283836,81,0.634861,10,-5.70902e-05,-3.54693,-0.5079,-0.116165,0.201263,
2,0,0,0,0,53497,0.182529,0.18219,-0.301063,81,0.633703,10,-5.48506e-05,-3.52134,-0.589139,-0.100146,0.182322,
2,0,0,1,0,53500.8,0.163552,0.163201,-0.33199,81,0.632459,10,-5.41812e-05,-3.47887,-0.325546,-0.181234,0.163347,
2,0,0,0,0,53504.6,0.144575,0.144196,-0.415305,81,0.631023,10,-5.98854e-05,-3.38163,-0.119917,-0.492006,0.144379,
2,0,0,1,0,53508.4,0.125598,0.125194,-0.613965,81,0.629025,10,-7.68647e-05,-3.21186,-0.154649,-0.381509,0.125464,
2,0,0,1,0,53512.2,0.10662,0.106244,-0.677503,81,0.626465,10,-7.19808e-05,-3.16909,-16.1287,-0.00365808,0.106542,
2,0,0,1,0,53516,0.0876433,0.087278,-0.655375,81,0.623873,10,-5.71998e-05,-3.18351,0.743424,0.0793625,0.0875663,
2,0,0,1,0,53519.8,0.0686664,0.0683126,-0.616596,81,0.621408,10,-4.21213e-05,-3.21,0.688773,0.0856596,0.0685839,
2,0,0,1,0,53523.6,0.0496895,0.0492902,-0.571883,81,0.619095,10,-2.81882e-05,-3.24269,0.568945,0.103701,0.0495418,
2,0,0,1,0,53527.4,0.0307126,0.0303386,-0.5259,81,0.616955,10,-1.59551e-05,-3.2791,0.536153,0.110043,0.03057,
2,0,0,1,0,53531.2,0.0117356,0.011398,-0.496682,81,0.61497,10,-5.66117e-06,-3.30392,1.15292,0.0511745,0.0116165,
2,0,0,0,0,53533.4,0.000274105,-0.000148766,-0.498386,81,0.6138,10,7.41429e-08,-3.30243, , ,7.05242e-05,