Folder: Figs_alphaMnO2_OER_Tafel_sleope/Figure_codes/Fig_3-5/workspace_calculate_alpha_eff (part 11)

File: 20221101_1-115_003_TrumpetPlot_ParaChange_from10_every3_16_CV_C01_13.csv
mode,ox/red,error,control changes,counter inc.,time/s,control/V,Ewe/V,<I>/mA,cycle number,(Q-Qo)/C,I Range,P/W,log(|I|),Tafel slope mV/dec,alpha_eff,E-IR/V,
2,0,0,0,0,9480.64,2.44065e-05,-0.000325324,-0.105118,14,0.0000000E+000,10,3.41975e-08,-3.97832, , ,-0.000279071,
2,1,0,1,0,9484.39,0.0187763,0.018452,0.226919,14,0.000778421,10,4.18711e-06,-3.64413,0.135269,0.436167,0.0183522,
2,1,0,1,0,9488.19,0.0377538,0.0374008,0.294366,14,0.00185041,10,1.10095e-05,-3.53111,0.198675,0.296968,0.0372712,
2,1,0,0,0,9491.98,0.0567309,0.0564011,0.361307,14,0.00318412,10,2.03781e-05,-3.44212,0.293544,0.200992,0.0562421,
2,1,0,1,0,9495.78,0.075708,0.0754026,0.417476,14,0.00475224,10,3.14788e-05,-3.37937,0.393425,0.149965,0.0752189,
2,1,0,0,0,9499.57,0.0946851,0.0944019,0.480922,14,0.00652365,10,4.53999e-05,-3.31793,0.241654,0.24415,0.0941903,
2,1,0,1,0,9503.37,0.113662,0.113365,0.595837,14,0.00864779,10,6.75472e-05,-3.22487,0.316304,0.18653,0.113103,
2,1,0,0,0,9507.16,0.132639,0.13238,0.676253,14,0.0111528,10,8.95226e-05,-3.16989,11.2206,0.00525817,0.132083,
2,1,0,1,0,9510.96,0.151617,0.151272,0.462586,14,0.0135041,10,6.99762e-05,-3.33481,-0.0703064,-0.839184,0.151068,
2,1,0,1,0,9514.75,0.170594,0.17029,0.312007,14,0.0149807,10,5.31316e-05,-3.50584,-0.186588,-0.316205,0.170153,
2,1,0,1,0,9518.55,0.189571,0.189286,0.273757,14,0.0161552,10,5.18184e-05,-3.56264,-0.575291,-0.102557,0.189166,
2,1,0,1,0,9522.35,0.208547,0.208246,0.257688,14,0.0172353,10,5.36624e-05,-3.58891,-0.852419,-0.0692148,0.208132,
2,1,0,1,0,9526.14,0.227524,0.227243,0.248424,14,0.0182679,10,5.64526e-05,-3.60481,-0.878282,-0.0671766,0.227134,
2,1,0,1,0,9529.94,0.246501,0.246196,0.240672,14,0.0192712,10,5.92524e-05,-3.61857,-0.739039,-0.0798334,0.24609,
2,1,0,0,0,9533.73,0.265479,0.265177,0.237747,14,0.0202551,10,6.30451e-05,-3.62388,-1.10819,-0.0532398,0.265073,
2,1,0,1,0,9537.53,0.284456,0.284162,0.235274,14,0.0212234,10,6.68557e-05,-3.62843,-1.27017,-0.0464504,0.284058,
2,1,0,0,0,9541.32,0.303433,0.303119,0.229084,14,0.022175,10,6.94396e-05,-3.64001,-23.2273,-0.00254012,0.303018,
2,1,0,1,0,9545.12,0.32241,0.322109,0.225418,14,0.0231105,10,7.26092e-05,-3.64701,-8.683,-0.00679488,0.32201,
2,1,0,0,0,9548.91,0.341387,0.34112,0.223055,14,0.0240332,10,7.60886e-05,-3.65159,-4.26467,-0.0138346,0.341022,
2,1,0,1,0,9552.71,0.360364,0.360036,0.221391,14,0.0249456,10,7.97088e-05,-3.65484,-2.73124,-0.0216019,0.359938,
2,1,0,1,0,9556.5,0.379342,0.379049,0.218812,14,0.0258475,10,8.29404e-05,-3.65993,-0.897324,-0.0657511,0.378953,
2,1,0,1,0,9560.3,0.398319,0.39799,0.216949,14,0.0267422,10,8.63436e-05,-3.66364,-1.26183,-0.0467575,0.397895,
2,1,0,1,0,9564.09,0.417295,0.417023,0.216504,14,0.027632,10,9.02873e-05,-3.66453,-2.23123,-0.0264428,0.416928,
2,1,0,1,0,9567.89,0.436272,0.436,0.216893,14,0.0285196,10,9.45653e-05,-3.66375,1.27946,0.0461133,0.435905,
2,1,0,1,0,9571.69,0.455249,0.455,0.217439,14,0.029407,10,9.89349e-05,-3.66266,3.26259,0.0180838,0.454905,
2,1,0,1,0,9575.48,0.474226,0.473939,0.218362,14,0.0302977,10,0.00010349,-3.66082,1.54499,0.038188,0.473843,
2,1,0,1,0,9579.28,0.493203,0.492906,0.221829,14,0.0311979,10,0.000109341,-3.65398,0.864522,0.0682458,0.492809,
2,1,0,0,0,9583.07,0.512181,0.511902,0.227297,14,0.0321138,10,0.000116354,-3.64341,2.74316,0.021508,0.511802,
2,1,0,1,0,9586.87,0.531158,0.5309,0.235861,14,0.033053,10,0.000125219,-3.62734,0.950941,0.0620438,0.530796,
2,1,0,0,0,9590.66,0.550135,0.549849,0.245745,14,0.0340258,10,0.000135122,-3.60952,0.522283,0.112965,0.54974,
2,1,0,1,0,9594.46,0.569112,0.568803,0.264796,14,0.0350526,10,0.000150617,-3.57709,0.495671,0.119031,0.568687,
2,1,0,0,0,9598.25,0.588089,0.587813,0.295003,14,0.0361687,10,0.000173407,-3.53017,0.295702,0.199525,0.587683,
2,1,0,1,0,9602.05,0.607066,0.606779,0.349477,14,0.0374404,10,0.000212055,-3.45658,0.203133,0.29045,0.606625,
2,1,0,1,0,9605.84,0.626044,0.625763,0.461173,14,0.0390159,10,0.000288585,-3.33614,0.126906,0.464911,0.62556,
2,1,0,1,0,9609.64,0.64502,0.644742,0.701917,14,0.0412296,10,0.000452556,-3.15371,0.0883816,0.667559,0.644434,
2,1,0,1,0,9613.44,0.663997,0.663715,1.23424,14,0.0448465,10,0.000819181,-2.9086,0.070223,0.840181,0.663172,
2,1,0,1,0,9617.23,0.682974,0.682716,2.31716,14,0.0514308,10,0.00158196,-2.63504,0.0669172,0.881687,0.681697,
2,1,0,1,0,9621.03,0.701951,0.701639,4.21739,14,0.0636073,10,0.00295909,-2.37496,0.0737835,0.799637,0.699784,
2,1,0,1,0,9624.82,0.720928,0.720651,7.0325,14,0.0847388,10,0.00506798,-2.15289,0.0869288,0.678716,0.717557,
2,1,0,1,0,9628.62,0.739905,0.739667,10.6787,14,0.118167,10,0.00789867,-1.97148,0.104218,0.566123,0.734969,
2,1,0,0,0,9632.41,0.758883,0.758645,15.2008,14,0.166991,10,0.011532,-1.81813,0.115236,0.511991,0.751956,
2,1,0,1,0,9636.21,0.77786,0.777603,20.9247,14,0.235193,10,0.0162711,-1.67934,0.115359,0.511445,0.768396,
2,1,0,0,0,9640,0.796837,0.796545,28.2498,14,0.328198,10,0.0225023,-1.54898,0.125164,0.471382,0.784115,
2,1,0,1,0,9643.8,0.815814,0.815544,36.3217,14,0.450966,10,0.029622,-1.43983,0.157114,0.375524,0.799562,
2,1,0,0,0,9647.59,0.834791,0.834541,44.5207,14,0.604634,10,0.0371544,-1.35144,0.201999,0.292081,0.814952,
2,1,0,0,0,9651.29,0.846727,0.846429,48.0675,14,0.781451,10,0.0406858,-1.31815,0.16032,0.368014,0.82528,
2,1,0,1,0,9655.09,0.827749,0.827528,38.7885,14,0.94557,10,0.0320986,-1.4113,0.116395,0.506895,0.810461,
2,1,0,1,0,9658.88,0.808772,0.808514,30.0048,14,1.07511,10,0.0242593,-1.52281,0.127193,0.463864,0.795312,
2,1,0,1,0,9662.68,0.789795,0.7895,22.3096,14,1.17403,10,0.0176134,-1.65151,0.108064,0.545971,0.779684,
2,1,0,1,0,9666.47,0.770818,0.770533,15.2017,14,1.24461,10,0.0117134,-1.81811,0.107855,0.547028,0.763844,
2,1,0,1,0,9670.27,0.751841,0.75159,10.3952,14,1.29277,10,0.00781296,-1.98317,0.095934,0.615006,0.747016,
2,1,0,1,0,9674.06,0.732865,0.732615,6.67004,14,1.32475,10,0.00488658,-2.17587,0.0841444,0.701175,0.729681,
2,1,0,0,0,9677.86,0.713887,0.713646,3.95344,14,1.34455,10,0.00282136,-2.40302,0.0737383,0.800127,0.711907,
2,1,0,1,0,9681.65,0.69491,0.694625,2.12175,14,1.35577,10,0.00147382,-2.6733,0.0622885,0.947206,0.693691,
2,1,0,0,0,9685.45,0.675933,0.675726,0.998263,14,1.36143,10,0.000674553,-3.00076,0.052218,1.12988,0.675287,
2,1,0,1,0,9689.24,0.656956,0.656698,0.39611,14,1.36389,10,0.000260125,-3.40218,0.0418426,1.41005,0.656524,
2,1,0,0,0,9693.04,0.637979,0.637686,0.111542,14,1.36473,10,7.11287e-05,-3.95256,0.0262096,2.25109,0.637637,
2,0,0,1,0,9696.84,0.619002,0.618725,-0.0135018,14,1.36483,10,-8.35388e-06,-4.86961,-0.00597433,-9.87559,0.618731,
2,0,0,0,0,9700.63,0.600025,0.599739,-0.0643304,14,1.36461,10,-3.85814e-05,-4.19158,-0.0805444,-0.732516,0.599767,
2,0,0,1,0,9704.43,0.581047,0.580762,-0.0898598,14,1.36426,10,-5.21872e-05,-4.04643,-0.193632,-0.304702,0.580802,
2,0,0,1,0,9708.22,0.56207,0.561785,-0.101777,14,1.36384,10,-5.71766e-05,-3.99235,-0.800457,-0.0737079,0.56183,
2,0,0,1,0,9712.02,0.543093,0.5428,-0.109765,14,1.36338,10,-5.95806e-05,-3.95953,-0.896635,-0.0658016,0.542848,
2,0,0,1,0,9715.81,0.524116,0.52381,-0.114852,14,1.3629,10,-6.01609e-05,-3.93986,3.4533,0.0170851,0.523861,
2,0,0,1,0,9719.61,0.505139,0.504902,-0.11928,14,1.3624,10,-6.02245e-05,-3.92343,-0.686358,-0.0859609,0.504955,
2,0,0,1,0,9723.4,0.486162,0.485859,-0.124505,14,1.36189,10,-6.04919e-05,-3.90481,3.19057,0.018492,0.485913,
2,0,0,1,0,9727.2,0.467185,0.46689,-0.130446,14,1.36135,10,-6.09039e-05,-3.88457,-0.560888,-0.10519,0.466947,
2,0,0,1,0,9730.99,0.448208,0.447938,-0.139389,14,1.36078,10,-6.24377e-05,-3.85577,-2.61225,-0.0225859,0.448,
2,0,0,0,0,9734.79,0.429231,0.428934,-0.145378,14,1.36019,10,-6.23576e-05,-3.8375,1.88697,0.031267,0.428998,
2,0,0,1,0,9738.58,0.410254,0.409909,-0.154337,14,1.35956,10,-6.32642e-05,-3.81153,-3.02482,-0.0195053,0.409977,
2,0,0,0,0,9742.38,0.391277,0.390959,-0.163863,14,1.3589,10,-6.40638e-05,-3.78552,-0.495021,-0.119187,0.391031,
2,0,0,1,0,9746.18,0.3723,0.37203,-0.173974,14,1.3582,10,-6.47235e-05,-3.75952,-0.572753,-0.103011,0.372107,
2,0,0,1,0,9749.97,0.353322,0.35299,-0.184393,14,1.35746,10,-6.50889e-05,-3.73426,-0.673999,-0.0875372,0.353071,
2,0,0,1,0,9753.77,0.334345,0.334053,-0.194937,14,1.35668,10,-6.51194e-05,-3.71011,-0.518346,-0.113824,0.334139,
2,0,0,1,0,9757.56,0.315368,0.315048,-0.208176,14,1.35585,10,-6.55854e-05,-3.68157,-0.467368,-0.126239,0.31514,
2,0,0,1,0,9761.36,0.296391,0.296036,-0.219363,14,1.35498,10,-6.49393e-05,-3.65884,-0.450858,-0.130861,0.296133,
2,0,0,1,0,9765.15,0.277414,0.277112,-0.231523,14,1.35406,10,-6.41578e-05,-3.63541,-0.597709,-0.0987102,0.277214,
2,0,0,1,0,9768.95,0.258437,0.25816,-0.243611,14,1.35309,10,-6.28904e-05,-3.6133,-1.62222,-0.03637,0.258267,
2,0,0,1,0,9772.74,0.239461,0.239196,-0.256945,14,1.35208,10,-6.146e-05,-3.59016,-2.12729,-0.0277348,0.239309,
2,0,0,0,0,9776.54,0.220483,0.220221,-0.268926,14,1.35102,10,-5.92232e-05,-3.57037,-0.545739,-0.10811,0.22034,
2,0,0,1,0,9780.33,0.201506,0.201211,-0.283332,14,1.34991,10,-5.70097e-05,-3.5477,-0.460428,-0.128142,0.201336,
2,0,0,0,0,9784.13,0.182529,0.182216,-0.308198,14,1.34873,10,-5.61587e-05,-3.51117,-0.375668,-0.157053,0.182352,
2,0,0,1,0,9787.93,0.163552,0.163248,-0.360861,14,1.34741,10,-5.89097e-05,-3.44266,-0.197091,-0.299354,0.163406,
2,0,0,0,0,9791.72,0.144575,0.144256,-0.524271,14,1.34572,10,-7.56291e-05,-3.28044,-0.0788555,-0.748204,0.144486,
2,0,0,1,0,9795.52,0.125598,0.125282,-0.778252,14,1.34311,10,-9.75009e-05,-3.10888,-0.350256,-0.168448,0.125624,
2,0,0,1,0,9799.31,0.10662,0.106314,-0.765192,14,1.34006,10,-8.13507e-05,-3.11623,0.60211,0.0979888,0.106651,
2,0,0,1,0,9803.11,0.0876433,0.0872864,-0.691387,14,1.33723,10,-6.03487e-05,-3.16028,0.449808,0.131167,0.0875906,
2,0,0,1,0,9806.9,0.0686664,0.0684038,-0.637671,14,1.33465,10,-4.36191e-05,-3.1954,0.677476,0.0870879,0.0686844,
2,0,0,1,0,9810.7,0.0496895,0.0493656,-0.588866,14,1.33225,10,-2.90697e-05,-3.22998,0.491205,0.120113,0.0496247,
2,0,0,1,0,9814.49,0.0307126,0.0304054,-0.536063,14,1.33004,10,-1.62992e-05,-3.27078,0.488837,0.120695,0.0306413,
2,0,0,1,0,9818.29,0.0117356,0.0113777,-0.500898,14,1.32801,10,-5.69906e-06,-3.30025,1.09829,0.0537198,0.0115981,
2,0,0,0,0,9820.58,0.000274105,-7.36095e-05,-0.49996,14,1.32682,10,3.68018e-08,-3.30106, , ,0.000146373,

File: 20221101_1-115_003_TrumpetPlot_ParaChange_from10_every3_16_CV_C01_14.csv
mode,ox/red,error,control changes,counter inc.,time/s,control/V,Ewe/V,<I>/mA,cycle number,(Q-Qo)/C,I Range,P/W,log(|I|),Tafel slope mV/dec,alpha_eff,E-IR/V,
2,0,0,0,0,9850.64,2.44065e-05,-0.000363498,-0.0885815,15,0.0000000E+000,10,3.21992e-08,-4.05266, , ,-0.000324522,
2,1,0,1,0,9854.39,0.0187763,0.0184168,0.219946,15,0.000734624,10,4.05069e-06,-3.65768,0.145215,0.406295,0.01832,
2,1,0,1,0,9858.19,0.0377538,0.0374262,0.287578,15,0.00176632,10,1.0763e-05,-3.54124,0.173418,0.340219,0.0372997,
2,1,0,0,0,9861.98,0.0567309,0.0564096,0.35343,15,0.0030592,10,1.99368e-05,-3.4517,0.269931,0.218574,0.0562541,
2,1,0,1,0,9865.78,0.075708,0.0753877,0.410702,15,0.004585,10,3.09619e-05,-3.38647,0.345774,0.170632,0.075207,
2,1,0,0,0,9869.57,0.0946851,0.0943669,0.47327,15,0.00631628,10,4.4661e-05,-3.32489,0.241371,0.244437,0.0941586,
2,1,0,1,0,9873.37,0.113662,0.11334,0.586351,15,0.00839687,10,6.64569e-05,-3.23184,0.280258,0.21052,0.113082,
2,1,0,0,0,9877.16,0.132639,0.132249,0.664548,15,0.0108488,10,8.78857e-05,-3.17747,-18.4674,-0.00319483,0.131956,
2,1,0,1,0,9880.96,0.151617,0.151322,0.455357,15,0.0131511,10,6.89054e-05,-3.34165,-0.0697431,-0.845962,0.151121,
2,1,0,1,0,9884.76,0.170594,0.170285,0.306124,15,0.0145921,10,5.21282e-05,-3.5141,-0.172329,-0.342369,0.17015,
2,1,0,1,0,9888.55,0.189571,0.189264,0.267224,15,0.0157334,10,5.05758e-05,-3.57312,-0.667851,-0.0883431,0.189146,
2,1,0,1,0,9892.35,0.208547,0.208224,0.251968,15,0.0167808,10,5.24656e-05,-3.59866,-0.768985,-0.0767245,0.208113,
2,1,0,1,0,9896.14,0.227524,0.22719,0.242081,15,0.017781,10,5.49985e-05,-3.61604,-0.746889,-0.0789944,0.227083,
2,1,0,1,0,9899.94,0.246501,0.246209,0.236703,15,0.0187546,10,5.82784e-05,-3.6258,-1.3443,-0.0438891,0.246105,
2,1,0,0,0,9903.73,0.265479,0.265174,0.232416,15,0.0197094,10,6.16306e-05,-3.63373,-2.22632,-0.0265011,0.265072,
2,1,0,1,0,9907.53,0.284456,0.284192,0.229328,15,0.0206473,10,6.51734e-05,-3.63954,-5.74237,-0.0102745,0.284091,
2,1,0,0,0,9911.32,0.303433,0.30314,0.22543,15,0.0215688,10,6.83367e-05,-3.64699,-2.0396,-0.0289272,0.303041,
2,1,0,1,0,9915.12,0.32241,0.322083,0.221801,15,0.0224759,10,7.14382e-05,-3.65404,-22.708,-0.0025982,0.321985,
2,1,0,0,0,9918.91,0.341387,0.341056,0.218498,15,0.0233709,10,7.452e-05,-3.66055,-1.0896,-0.0541485,0.340959,
2,1,0,1,0,9922.71,0.360364,0.360064,0.217447,15,0.0242546,10,7.82949e-05,-3.66265,-2.3319,-0.0253012,0.359969,
2,1,0,1,0,9926.5,0.379342,0.37905,0.214617,15,0.0251283,10,8.13506e-05,-3.66834,80.7087,0.000731024,0.378956,
2,1,0,1,0,9930.3,0.398319,0.397981,0.212374,15,0.0259954,10,8.45208e-05,-3.6729,-2.84672,-0.0207256,0.397887,
2,1,0,1,0,9934.1,0.417295,0.417008,0.212419,15,0.0268582,10,8.85804e-05,-3.67281,2.51828,0.0234287,0.416915,
2,1,0,1,0,9937.89,0.436272,0.435989,0.210338,15,0.0277174,10,9.17053e-05,-3.67708,1.88361,0.0313228,0.435897,
2,1,0,1,0,9941.69,0.455249,0.454979,0.211954,15,0.0285767,10,9.64346e-05,-3.67376,6.55873,0.00899565,0.454886,
2,1,0,1,0,9945.48,0.474226,0.473919,0.215048,15,0.0294408,10,0.000101915,-3.66747,1.02686,0.0574569,0.473824,
2,1,0,1,0,9949.28,0.493203,0.492901,0.217953,15,0.0303148,10,0.000107429,-3.66164,1.28535,0.0459019,0.492805,
2,1,0,0,0,9953.07,0.512181,0.511874,0.22321,15,0.0312045,10,0.000114255,-3.65129,1.23422,0.0478036,0.511776,
2,1,0,1,0,9956.87,0.531158,0.530836,0.229972,15,0.0321167,10,0.000122077,-3.63833,1.04234,0.0566032,0.530734,
2,1,0,0,0,9960.66,0.550135,0.549844,0.24022,15,0.0330628,10,0.000132084,-3.61939,0.682177,0.0864878,0.549739,
2,1,0,1,0,9964.46,0.569112,0.568795,0.259278,15,0.0340627,10,0.000147476,-3.58623,0.447824,0.131748,0.568681,
2,1,0,0,0,9968.25,0.588089,0.587788,0.288429,15,0.0351489,10,0.000169535,-3.53996,0.356525,0.165486,0.587661,
2,1,0,1,0,9972.05,0.607066,0.60678,0.341915,15,0.0363869,10,0.000207467,-3.46608,0.19697,0.299538,0.606629,
2,1,0,1,0,9975.85,0.626044,0.625806,0.451335,15,0.03792,10,0.000282448,-3.3455,0.128253,0.460027,0.625607,
2,1,0,1,0,9979.64,0.64502,0.644781,0.683418,15,0.0400699,10,0.000440655,-3.16531,0.0890691,0.662407,0.64448,
2,1,0,1,0,9983.44,0.663997,0.663745,1.19262,15,0.0435673,10,0.000791593,-2.9235,0.0693641,0.850584,0.66322,
2,1,0,1,0,9987.23,0.682974,0.682686,2.2205,15,0.0498958,10,0.0015159,-2.65355,0.0673726,0.875727,0.681709,
2,1,0,1,0,9991.03,0.701951,0.701666,4.00627,15,0.061505,10,0.00281106,-2.39726,0.0745441,0.791478,0.699903,
2,1,0,1,0,9994.82,0.720928,0.720679,6.61919,15,0.0814725,10,0.00477031,-2.1792,0.0900921,0.654885,0.717766,
2,1,0,1,0,9998.62,0.739905,0.739641,9.9447,15,0.112759,10,0.0073555,-2.00241,0.107432,0.549185,0.735265,
2,1,0,0,0,10002.4,0.758883,0.758622,14.0607,15,0.15807,10,0.0106667,-1.85199,0.117522,0.502032,0.752436,
2,1,0,1,0,10006.2,0.77786,0.777624,19.3101,15,0.221032,10,0.015016,-1.71422,0.122474,0.481734,0.769127,
2,1,0,0,0,10010,0.796837,0.796527,25.8842,15,0.306518,10,0.0206174,-1.58697,0.130877,0.450804,0.785138,
2,1,0,1,0,10013.8,0.815814,0.815572,33.4096,15,0.419039,10,0.027248,-1.47613,0.163896,0.359985,0.800871,
2,1,0,0,0,10017.6,0.834791,0.834545,41.0393,15,0.560232,10,0.0342491,-1.3868,0.138887,0.424805,0.816488,
2,1,0,0,0,10021.3,0.846727,0.846497,44.6119,15,0.725301,10,0.0377638,-1.35055,0.125689,0.469413,0.826868,
2,1,0,1,0,10025.1,0.827749,0.827495,35.9979,15,0.877978,10,0.029788,-1.44372,0.154798,0.381143,0.811655,
2,1,0,1,0,10028.9,0.808772,0.80849,28.1113,15,0.999377,10,0.0227277,-1.55112,0.131467,0.448781,0.796121,
2,1,0,1,0,10032.7,0.789795,0.789513,21.1201,15,1.09237,10,0.0166746,-1.6753,0.119564,0.49346,0.78022,
2,1,0,1,0,10036.5,0.770818,0.77056,15.0888,15,1.16061,10,0.0116268,-1.82135,0.103756,0.568644,0.763921,
2,1,0,1,0,10040.3,0.751841,0.751582,10.1568,15,1.20801,10,0.00763369,-1.99324,0.0963082,0.612617,0.747113,
2,1,0,1,0,10044.1,0.732865,0.732559,6.48061,15,1.23915,10,0.00474743,-2.18838,0.0857806,0.687801,0.729708,
2,1,0,0,0,10047.9,0.713887,0.713624,3.82966,15,1.25836,10,0.00273294,-2.41684,0.0723712,0.815242,0.711939,
2,1,0,1,0,10051.7,0.69491,0.69463,2.09226,15,1.26926,10,0.00145334,-2.67939,0.0622938,0.947125,0.69371,
2,1,0,0,0,10055.4,0.675933,0.675646,0.989023,15,1.27486,10,0.000668229,-3.00479,0.0520011,1.13459,0.67521,
2,1,0,1,0,10059.2,0.656956,0.656692,0.391727,15,1.27729,10,0.000257244,-3.40702,0.0401031,1.47121,0.65652,
2,1,0,0,0,10063,0.637979,0.637692,0.108013,15,1.27811,10,6.88788e-05,-3.96653,0.0255409,2.31002,0.637644,
2,0,0,1,0,10066.8,0.619002,0.618718,-0.0166171,15,1.2782,10,-1.02813e-05,-4.77944,-0.00842382,-7.00395,0.618725,
2,0,0,0,0,10070.6,0.600025,0.599728,-0.0686011,15,1.27796,10,-4.1142e-05,-4.16367,-0.0951876,-0.619829,0.599758,
2,0,0,1,0,10074.4,0.581047,0.580781,-0.0934439,15,1.27759,10,-5.42705e-05,-4.02945,-0.325716,-0.181139,0.580823,
2,0,0,1,0,10078.2,0.56207,0.561771,-0.10527,15,1.27716,10,-5.91379e-05,-3.97769,-1.09683,-0.0537915,0.561818,
2,0,0,1,0,10082,0.543093,0.542801,-0.112645,15,1.27669,10,-6.11438e-05,-3.94829,-0.647353,-0.0911404,0.542851,
2,0,0,1,0,10085.8,0.524116,0.523836,-0.117161,15,1.27619,10,-6.13733e-05,-3.93122,-0.97878,-0.0602791,0.523888,
2,0,0,1,0,10089.6,0.505139,0.504815,-0.122429,15,1.27568,10,-6.18042e-05,-3.91211,-0.51854,-0.113781,0.504869,
2,0,0,1,0,10093.4,0.486162,0.485863,-0.127656,15,1.27515,10,-6.20233e-05,-3.89396,-0.862884,-0.0683754,0.485919,
2,0,0,1,0,10097.2,0.467185,0.466815,-0.134182,15,1.27459,10,-6.26383e-05,-3.8723,-0.751725,-0.0784862,0.466874,
2,0,0,1,0,10101,0.448208,0.447905,-0.140521,15,1.27402,10,-6.29402e-05,-3.85226,-1.17698,-0.0501284,0.447967,
2,0,0,0,0,10104.8,0.429231,0.428952,-0.147416,15,1.27341,10,-6.32343e-05,-3.83146,-8.39262,-0.00702999,0.429016,
2,0,0,1,0,10108.6,0.410254,0.409907,-0.157143,15,1.27277,10,-6.44141e-05,-3.8037,-0.672876,-0.0876833,0.409976,
2,0,0,0,0,10112.4,0.391277,0.390988,-0.167398,15,1.27209,10,-6.54506e-05,-3.77625,-0.982261,-0.0600655,0.391062,
2,0,0,1,0,10116.2,0.3723,0.372,-0.176582,15,1.27138,10,-6.56886e-05,-3.75305,-1.24847,-0.0472578,0.372078,
2,0,0,1,0,10120,0.353322,0.353005,-0.188779,15,1.27063,10,-6.66398e-05,-3.72405,-1.04171,-0.0566375,0.353088,
2,0,0,1,0,10123.8,0.334345,0.334062,-0.198437,15,1.26983,10,-6.62903e-05,-3.70238,-0.689897,-0.08552,0.334149,
2,0,0,1,0,10127.6,0.315368,0.315088,-0.21157,15,1.26899,10,-6.66631e-05,-3.67455,-0.56649,-0.10415,0.315181,
2,0,0,1,0,10131.4,0.296391,0.296084,-0.223142,15,1.2681,10,-6.60689e-05,-3.65142,-1.37365,-0.0429513,0.296182,
2,0,0,1,0,10135.2,0.277414,0.277077,-0.234925,15,1.26717,10,-6.50923e-05,-3.62907,-1.09486,-0.0538881,0.277181,
2,0,0,1,0,10138.9,0.258437,0.258127,-0.247015,15,1.26619,10,-6.37612e-05,-3.60728,-0.727058,-0.081149,0.258235,
2,0,0,1,0,10142.7,0.239461,0.239194,-0.2587,15,1.26517,10,-6.18796e-05,-3.5872,-0.614658,-0.0959883,0.239308,
2,0,0,0,0,10146.5,0.220483,0.220162,-0.271444,15,1.2641,10,-5.97615e-05,-3.56632,-0.63899,-0.0923333,0.220281,
2,0,0,1,0,10150.3,0.201506,0.201194,-0.286464,15,1.26297,10,-5.76349e-05,-3.54293,-0.433405,-0.136131,0.20132,
2,0,0,0,0,10154.1,0.182529,0.182218,-0.309131,15,1.26178,10,-5.63294e-05,-3.50986,-0.296148,-0.199224,0.182354,
2,0,0,1,0,10157.9,0.163552,0.163264,-0.362359,15,1.26045,10,-5.91601e-05,-3.44086,-0.203589,-0.2898,0.163423,
2,0,0,0,0,10161.7,0.144575,0.144217,-0.525647,15,1.25876,10,-7.58071e-05,-3.27931,-0.0812153,-0.726464,0.144448,
2,0,0,1,0,10165.5,0.125598,0.125252,-0.780259,15,1.25614,10,-9.77292e-05,-3.10776,-0.359184,-0.164261,0.125596,
2,0,0,1,0,10169.3,0.10662,0.106353,-0.7653,15,1.25308,10,-8.13922e-05,-3.11617,0.57291,0.102983,0.10669,
2,0,0,1,0,10173.1,0.0876433,0.0873137,-0.690462,15,1.25025,10,-6.02867e-05,-3.16086,0.496411,0.118853,0.0876175,
2,0,0,1,0,10176.9,0.0686664,0.0683232,-0.636837,15,1.24766,10,-4.35107e-05,-3.19597,0.607409,0.097134,0.0686034,
2,0,0,1,0,10180.7,0.0496895,0.0493865,-0.587568,15,1.24526,10,-2.90179e-05,-3.23094,0.524733,0.112438,0.049645,
2,0,0,1,0,10184.5,0.0307126,0.0304371,-0.533628,15,1.24305,10,-1.62421e-05,-3.27276,0.544262,0.108404,0.0306719,
2,0,0,1,0,10188.3,0.0117356,0.0114043,-0.499879,15,1.24103,10,-5.70077e-06,-3.30113,1.32489,0.0445319,0.0116242,
2,0,0,0,0,10190.6,0.000274105,-0.00011417,-0.499514,15,1.23984,10,5.70296e-08,-3.30145, , ,0.000105616,