Folder: Figs_alphaMnO2_OER_Tafel_sleope/Figure_codes/Fig_3-5/workspace_calculate_alpha_eff (part 50)

File: 20221101_1-115_003_TrumpetPlot_ParaChange_from10_every3_16_CV_C01_91.csv
mode,ox/red,error,control changes,counter inc.,time/s,control/V,Ewe/V,<I>/mA,cycle number,(Q-Qo)/C,I Range,P/W,log(|I|),Tafel slope mV/dec,alpha_eff,E-IR/V,
2,0,0,0,0,60704,2.44065e-05,-0.000306236,-0.0866734,92,0.0000000E+000,10,2.65425e-08,-4.06211, , ,-0.0002681,
2,1,0,1,0,60707.8,0.0187763,0.0183778,0.213549,92,0.000690466,10,3.92457e-06,-3.6705,0.158135,0.3731,0.0182839,
2,1,0,1,0,60711.6,0.0377538,0.0374092,0.276467,92,0.00167075,10,1.03424e-05,-3.55836,0.190718,0.309357,0.0372876,
2,1,0,0,0,60715.4,0.0567309,0.0563948,0.335285,92,0.00288869,10,1.89083e-05,-3.47459,0.319097,0.184897,0.0562472,
2,1,0,1,0,60719.2,0.075708,0.07534,0.377755,92,0.00430113,10,2.84601e-05,-3.42279,0.547492,0.107764,0.0751738,
2,1,0,0,0,60723,0.094685,0.0943329,0.42944,92,0.00587335,10,4.05103e-05,-3.3671,0.266478,0.221407,0.094144,
2,1,0,1,0,60726.8,0.113662,0.113328,0.521352,92,0.00772997,10,5.90838e-05,-3.28287,0.284915,0.20708,0.113099,
2,1,0,0,0,60730.6,0.132639,0.132285,0.552793,92,0.00984715,10,7.31261e-05,-3.25744,-0.531922,-0.110919,0.132042,
2,1,0,1,0,60734.3,0.151617,0.151281,0.363533,92,0.011695,10,5.49958e-05,-3.43946,-0.0822528,-0.717301,0.151121,
2,1,0,1,0,60738.1,0.170594,0.170276,0.280771,92,0.0129172,10,4.78086e-05,-3.55165,-0.346104,-0.170469,0.170153,
2,1,0,1,0,60741.9,0.189571,0.189194,0.265663,92,0.0139937,10,5.02619e-05,-3.57567,-1.38722,-0.0425312,0.189077,
2,1,0,1,0,60745.7,0.208547,0.208199,0.258482,92,0.0150315,10,5.38158e-05,-3.58757,-1.7267,-0.0341693,0.208085,
2,1,0,1,0,60749.5,0.227524,0.227193,0.253925,92,0.0160464,10,5.769e-05,-3.59529,-1.06518,-0.0553895,0.227081,
2,1,0,1,0,60753.3,0.246501,0.246152,0.249617,92,0.0170447,10,6.14438e-05,-3.60273,-0.951522,-0.0620059,0.246042,
2,1,0,0,0,60757.1,0.265479,0.265155,0.245959,92,0.0180284,10,6.52173e-05,-3.60914,-0.768807,-0.0767422,0.265047,
2,1,0,1,0,60760.9,0.284456,0.284152,0.24243,92,0.0189965,10,6.88871e-05,-3.61541,-1.1692,-0.0504617,0.284045,
2,1,0,0,0,60764.7,0.303433,0.303081,0.237369,92,0.0199458,10,7.1942e-05,-3.62458,-1.21337,-0.048625,0.302977,
2,1,0,1,0,60768.5,0.32241,0.322097,0.233918,92,0.0208792,10,7.5344e-05,-3.63094,-10.4592,-0.00564099,0.321994,
2,1,0,0,0,60772.3,0.341387,0.341051,0.230914,92,0.0218002,10,7.87536e-05,-3.63655,-15.7075,-0.00375616,0.34095,
2,1,0,1,0,60776.1,0.360364,0.36001,0.229767,92,0.0227111,10,8.27185e-05,-3.63871,10.6331,0.00554872,0.359909,
2,1,0,1,0,60779.9,0.379342,0.378988,0.227255,92,0.0236128,10,8.61269e-05,-3.64349,-3.52382,-0.0167432,0.378888,
2,1,0,1,0,60783.7,0.398319,0.397967,0.225096,92,0.0245063,10,8.95807e-05,-3.64763,-5.78711,-0.0101951,0.397868,
2,1,0,1,0,60787.5,0.417295,0.41694,0.224066,92,0.0253942,10,9.34221e-05,-3.64962,-7.32082,-0.0080592,0.416842,
2,1,0,1,0,60791.3,0.436272,0.435919,0.22359,92,0.0262774,10,9.7467e-05,-3.65055,2.71985,0.0216924,0.43582,
2,1,0,1,0,60795.1,0.455249,0.454939,0.223075,92,0.0271567,10,0.000101485,-3.65155,3.11808,0.0189219,0.454841,
2,1,0,1,0,60798.9,0.474226,0.473883,0.224616,92,0.028037,10,0.000106442,-3.64856,1.23727,0.0476856,0.473784,
2,1,0,1,0,60802.7,0.493203,0.492879,0.227097,92,0.0289242,10,0.000111931,-3.64379,1.53086,0.0385405,0.492779,
2,1,0,0,0,60806.5,0.512181,0.511829,0.230933,92,0.029822,10,0.000118198,-3.63651,1.24507,0.047387,0.511727,
2,1,0,1,0,60810.3,0.531158,0.53083,0.236326,92,0.030736,10,0.000125449,-3.62649,1.67984,0.0351225,0.530726,
2,1,0,0,0,60814.1,0.550135,0.54983,0.243305,92,0.0316738,10,0.000133776,-3.61385,1.02808,0.0573886,0.549723,
2,1,0,1,0,60817.8,0.569112,0.568814,0.255166,92,0.0326473,10,0.000145142,-3.59318,0.909514,0.0648698,0.568702,
2,1,0,0,0,60821.6,0.588089,0.587778,0.272556,92,0.0336737,10,0.000160203,-3.56454,0.523227,0.112762,0.587658,
2,1,0,1,0,60825.4,0.607066,0.606757,0.301839,92,0.0347853,10,0.000183143,-3.52022,0.335499,0.175858,0.606625,
2,1,0,1,0,60829.2,0.626044,0.625774,0.35381,92,0.0360448,10,0.000221405,-3.45123,0.217718,0.270993,0.625619,
2,1,0,1,0,60833,0.64502,0.644667,0.456302,92,0.0375863,10,0.000294163,-3.34075,0.140271,0.420615,0.644466,
2,1,0,1,0,60836.8,0.663997,0.663674,0.661717,92,0.0396897,10,0.000439164,-3.17933,0.100281,0.58835,0.663383,
2,1,0,1,0,60840.6,0.682974,0.682659,1.058,92,0.0429051,10,0.000722252,-2.97552,0.0869976,0.678179,0.682194,
2,1,0,1,0,60844.4,0.701951,0.701622,1.7334,92,0.0481288,10,0.00121619,-2.7611,0.088216,0.668813,0.70086,
2,1,0,1,0,60848.2,0.720928,0.720624,2.74145,92,0.0565381,10,0.00197556,-2.56202,0.098326,0.600045,0.719418,
2,1,0,1,0,60852,0.739905,0.739597,4.1026,92,0.0694319,10,0.00303427,-2.38694,0.110784,0.532566,0.737792,
2,1,0,0,0,60855.8,0.758883,0.758568,5.87421,92,0.0882465,10,0.00445599,-2.23105,0.122141,0.483049,0.755984,
2,1,0,1,0,60859.6,0.77786,0.777542,8.16012,92,0.114721,10,0.00634484,-2.0883,0.129365,0.456073,0.773952,
2,1,0,0,0,60863.4,0.796837,0.796516,11.1571,92,0.151146,10,0.00888683,-1.95245,0.130752,0.451237,0.791607,
2,1,0,1,0,60867.2,0.815814,0.815473,15.1736,92,0.200783,10,0.0123737,-1.81891,0.13053,0.452002,0.808797,
2,1,0,0,0,60871,0.834791,0.83451,20.272,92,0.267804,10,0.0169172,-1.6931,0.142246,0.414776,0.825591,
2,1,0,0,0,60874.7,0.846726,0.846454,23.2935,92,0.352159,10,0.0197169,-1.63276,0.100528,0.586903,0.836205,
2,1,0,1,0,60878.5,0.827749,0.827473,16.8968,92,0.427705,10,0.0139817,-1.77219,0.118249,0.498948,0.820038,
2,1,0,1,0,60882.3,0.808772,0.808458,12.1954,92,0.482436,10,0.00985947,-1.9138,0.116793,0.505168,0.803092,
2,1,0,1,0,60886.1,0.789795,0.78946,8.66473,92,0.521647,10,0.00684046,-2.06224,0.115473,0.510942,0.785648,
2,1,0,1,0,60889.9,0.770818,0.770509,6.06315,92,0.549318,10,0.00467171,-2.2173,0.114424,0.515628,0.767841,
2,1,0,1,0,60893.7,0.751841,0.751554,4.13979,92,0.568478,10,0.00311128,-2.38302,0.105314,0.560227,0.749733,
2,1,0,1,0,60897.5,0.732865,0.732556,2.71362,92,0.581321,10,0.00198788,-2.56645,0.0928501,0.635433,0.731362,
2,1,0,0,0,60901.2,0.713887,0.713555,1.65586,92,0.589484,10,0.00118155,-2.78098,0.0796181,0.741038,0.712827,
2,1,0,1,0,60905,0.69491,0.694596,0.906387,92,0.594228,10,0.000629573,-3.04269,0.0635395,0.928557,0.694197,
2,1,0,0,0,60908.8,0.675933,0.67558,0.419456,92,0.59664,10,0.000283376,-3.37731,0.0484446,1.21789,0.675395,
2,1,0,1,0,60912.6,0.656956,0.656673,0.141398,92,0.59762,10,9.28525e-05,-3.84956,0.0305197,1.93318,0.656611,
2,1,0,0,0,60916.4,0.637979,0.637656,0.00138021,92,0.59783,10,8.80098e-07,-5.86006,0.0298928,1.97372,0.637655,
2,0,0,1,0,60920.2,0.619002,0.618674,-0.0608376,92,0.597675,10,-3.76386e-05,-4.21583,-0.0615681,-0.958288,0.618701,
2,0,0,0,0,60924,0.600024,0.599683,-0.0877819,92,0.597358,10,-5.26414e-05,-4.05659,-0.216689,-0.27228,0.599722,
2,0,0,1,0,60927.8,0.581047,0.580732,-0.101655,92,0.596967,10,-5.90341e-05,-3.99287,-0.297035,-0.19863,0.580776,
2,0,0,1,0,60931.6,0.56207,0.561713,-0.109376,92,0.596538,10,-6.14379e-05,-3.96108,-1.22612,-0.0481193,0.561761,
2,0,0,1,0,60935.4,0.543093,0.542732,-0.11434,92,0.596086,10,-6.20558e-05,-3.9418,-0.960769,-0.0614091,0.542782,
2,0,0,1,0,60939.2,0.524116,0.523751,-0.118697,92,0.595616,10,-6.21678e-05,-3.92556,-1.5172,-0.0388875,0.523803,
2,0,0,1,0,60943,0.505139,0.504794,-0.123016,92,0.595129,10,-6.20978e-05,-3.91004,-0.897488,-0.065739,0.504848,
2,0,0,1,0,60946.8,0.486162,0.485813,-0.127833,92,0.594622,10,-6.21029e-05,-3.89336,-1.33794,-0.0440975,0.485869,
2,0,0,1,0,60950.6,0.467185,0.466854,-0.134406,92,0.594094,10,-6.27481e-05,-3.87158,-1.03733,-0.0568766,0.466913,
2,0,0,1,0,60954.4,0.448208,0.4479,-0.140844,92,0.593541,10,-6.30838e-05,-3.85126,-1.62102,-0.0363968,0.447962,
2,0,0,0,0,60958.2,0.429231,0.428856,-0.147992,92,0.59296,10,-6.34671e-05,-3.82976,-1.24703,-0.0473124,0.428921,
2,0,0,1,0,60962,0.410254,0.409889,-0.157843,92,0.592348,10,-6.46979e-05,-3.80178,-1.09792,-0.0537381,0.409958,
2,0,0,0,0,60965.8,0.391277,0.390939,-0.166241,92,0.5917,10,-6.499e-05,-3.77926,-1.01147,-0.0583309,0.391012,
2,0,0,1,0,60969.6,0.3723,0.371975,-0.176138,92,0.591015,10,-6.55191e-05,-3.75415,-1.01256,-0.0582679,0.372052,
2,0,0,1,0,60973.4,0.353322,0.352933,-0.186554,92,0.590291,10,-6.58409e-05,-3.7292,-1.129,-0.0522588,0.353015,
2,0,0,1,0,60977.2,0.334345,0.333972,-0.197445,92,0.589524,10,-6.5941e-05,-3.70455,-0.704781,-0.083714,0.334059,
2,0,0,1,0,60981,0.315368,0.314979,-0.208844,92,0.588715,10,-6.57815e-05,-3.68018,-0.888488,-0.066405,0.315071,
2,0,0,1,0,60984.7,0.296391,0.29607,-0.220168,92,0.587862,10,-6.5185e-05,-3.65725,-0.644494,-0.0915447,0.296167,
2,0,0,1,0,60988.5,0.277414,0.277097,-0.232051,92,0.586962,10,-6.43007e-05,-3.63442,-0.758306,-0.077805,0.2772,
2,0,0,1,0,60992.3,0.258437,0.258106,-0.24419,92,0.586015,10,-6.30268e-05,-3.61227,-0.821442,-0.0718249,0.258213,
2,0,0,1,0,60996.1,0.239461,0.239084,-0.256055,92,0.585024,10,-6.12187e-05,-3.59167,-0.676836,-0.0871703,0.239197,
2,0,0,0,0,60999.9,0.220483,0.220134,-0.267299,92,0.583989,10,-5.88417e-05,-3.573,-0.831893,-0.0709226,0.220252,
2,0,0,1,0,61003.7,0.201506,0.201142,-0.278997,92,0.582908,10,-5.6118e-05,-3.5544,-0.536705,-0.10993,0.201265,
2,0,0,0,0,61007.5,0.182529,0.182183,-0.295879,92,0.581771,10,-5.39043e-05,-3.52889,-0.548513,-0.107564,0.182314,
2,0,0,1,0,61011.3,0.163552,0.163196,-0.324766,92,0.580552,10,-5.30004e-05,-3.48843,-0.367928,-0.160357,0.163339,
2,0,0,0,0,61015.1,0.144575,0.144195,-0.40114,92,0.579156,10,-5.78425e-05,-3.3967,-0.13087,-0.450829,0.144372,
2,0,0,1,0,61018.9,0.125598,0.125259,-0.58912,92,0.577243,10,-7.37924e-05,-3.2298,-0.14915,-0.395575,0.125518,
2,0,0,1,0,61022.7,0.10662,0.106289,-0.663891,92,0.574758,10,-7.05642e-05,-3.1779,-3.08487,-0.0191256,0.106581,
2,0,0,1,0,61026.5,0.0876433,0.0872555,-0.647083,92,0.572211,10,-5.64615e-05,-3.18904,0.981422,0.0601168,0.0875402,
2,0,0,1,0,61030.3,0.0686664,0.0683275,-0.611621,92,0.569763,10,-4.17905e-05,-3.21352,0.817571,0.072165,0.0685966,
2,0,0,1,0,61034.1,0.0496895,0.049324,-0.57225,92,0.567458,10,-2.82257e-05,-3.24241,0.603794,0.0977154,0.0495758,
2,0,0,1,0,61037.9,0.0307126,0.0303238,-0.527594,92,0.565319,10,-1.59987e-05,-3.2777,0.577729,0.102124,0.0305559,
2,0,0,1,0,61041.7,0.0117356,0.0113904,-0.496461,92,0.563332,10,-5.65489e-06,-3.30412,1.17313,0.0502928,0.0116088,
2,0,0,0,0,61044,0.000274105,-0.000155924,-0.498113,92,0.562163,10,7.76676e-08,-3.30267, , ,6.32462e-05,

File: 20221101_1-115_003_TrumpetPlot_ParaChange_from10_every3_16_CV_C01_92.csv
mode,ox/red,error,control changes,counter inc.,time/s,control/V,Ewe/V,<I>/mA,cycle number,(Q-Qo)/C,I Range,P/W,log(|I|),Tafel slope mV/dec,alpha_eff,E-IR/V,
2,0,0,0,0,61074,2.44065e-05,-0.000382585,-0.098122,93,0.0000000E+000,10,3.754e-08,-4.00823, , ,-0.000339412,
2,1,0,1,0,61077.8,0.0187763,0.0184083,0.202701,93,0.000649204,10,3.73139e-06,-3.69314,0.148738,0.396671,0.0183191,
2,1,0,1,0,61081.6,0.0377538,0.0373541,0.265067,93,0.00158806,10,9.90134e-06,-3.57664,0.189629,0.311133,0.0372375,
2,1,0,0,0,61085.4,0.0567309,0.0563693,0.324562,93,0.00276356,10,1.82954e-05,-3.4887,0.279767,0.21089,0.0562265,
2,1,0,1,0,61089.2,0.075708,0.0753294,0.3696,93,0.00413723,10,2.78417e-05,-3.43227,0.501293,0.117696,0.0751667,
2,1,0,0,0,61093,0.094685,0.0943276,0.421607,93,0.00567352,10,3.97692e-05,-3.37509,0.245682,0.240148,0.0941421,
2,1,0,1,0,61096.8,0.113662,0.113278,0.512529,93,0.00749261,10,5.80583e-05,-3.29028,0.330107,0.17873,0.113053,
2,1,0,0,0,61100.6,0.132639,0.132291,0.544252,93,0.0095726,10,7.19998e-05,-3.2642,-0.584185,-0.100995,0.132052,
2,1,0,1,0,61104.4,0.151617,0.151231,0.356883,93,0.0113905,10,5.39719e-05,-3.44747,-0.0793893,-0.743173,0.151074,
2,1,0,1,0,61108.1,0.170594,0.170228,0.272543,93,0.012583,10,4.63944e-05,-3.56456,-0.303527,-0.194382,0.170108,
2,1,0,1,0,61111.9,0.189571,0.189201,0.25593,93,0.0136252,10,4.84223e-05,-3.59188,-1.31313,-0.0449308,0.189089,
2,1,0,1,0,61115.7,0.208547,0.208186,0.24971,93,0.014627,10,5.19862e-05,-3.60256,-1.55873,-0.0378514,0.208077,
2,1,0,1,0,61119.5,0.227524,0.227213,0.244565,93,0.0156069,10,5.55684e-05,-3.61161,-1.03874,-0.0567995,0.227106,
2,1,0,1,0,61123.3,0.246501,0.246153,0.240557,93,0.0165704,10,5.92137e-05,-3.61878,-1.91456,-0.0308165,0.246047,
2,1,0,0,0,61127.1,0.265479,0.265105,0.238408,93,0.0175188,10,6.32032e-05,-3.62268,-1.4702,-0.0401306,0.265,
2,1,0,1,0,61130.9,0.284456,0.284141,0.234805,93,0.0184528,10,6.67179e-05,-3.62929,-8.04236,-0.00733616,0.284038,
2,1,0,0,0,61134.7,0.303433,0.303103,0.229783,93,0.0193717,10,6.96479e-05,-3.63868,-2.33519,-0.0252656,0.303001,
2,1,0,1,0,61138.5,0.32241,0.322063,0.226203,93,0.0202745,10,7.28514e-05,-3.6455,135.607,0.00043508,0.321963,
2,1,0,0,0,61142.3,0.341387,0.341075,0.224115,93,0.0211647,10,7.644e-05,-3.64953,2.90035,0.0203424,0.340976,
2,1,0,1,0,61146.1,0.360364,0.360062,0.222043,93,0.0220457,10,7.99495e-05,-3.65356,-10.9118,-0.00540698,0.359965,
2,1,0,1,0,61149.9,0.379342,0.378984,0.219768,93,0.0229181,10,8.32883e-05,-3.65804,-1.47509,-0.0399974,0.378887,
2,1,0,1,0,61153.7,0.398319,0.398008,0.218009,93,0.0237829,10,8.67694e-05,-3.66153,-7.99226,-0.00738214,0.397912,
2,1,0,1,0,61157.5,0.417295,0.416962,0.216865,93,0.0246416,10,9.04242e-05,-3.66381,7.68449,0.00767781,0.416866,
2,1,0,1,0,61161.3,0.436272,0.435933,0.216712,93,0.0254966,10,9.44721e-05,-3.66412,339.297,0.000173889,0.435838,
2,1,0,1,0,61165.1,0.455249,0.454891,0.217073,93,0.0263504,10,9.87448e-05,-3.66339,-9.79768,-0.00602183,0.454796,
2,1,0,1,0,61168.9,0.474226,0.473905,0.217332,93,0.0272049,10,0.000102995,-3.66288,1.78264,0.0330971,0.473809,
2,1,0,1,0,61172.7,0.493203,0.492857,0.220835,93,0.0280648,10,0.00010884,-3.65593,1.64162,0.03594,0.49276,
2,1,0,0,0,61176.5,0.512181,0.511879,0.223087,93,0.0289358,10,0.000114194,-3.65153,10.1198,0.00583016,0.51178,
2,1,0,1,0,61180.3,0.531158,0.530826,0.228756,93,0.0298233,10,0.000121429,-3.64063,3.5607,0.0165698,0.530725,
2,1,0,0,0,61184.1,0.550135,0.549822,0.236375,93,0.0307336,10,0.000129964,-3.6264,1.15777,0.0509601,0.549718,
2,1,0,1,0,61187.8,0.569112,0.568793,0.248315,93,0.0316792,10,0.00014124,-3.605,0.715831,0.0824217,0.568683,
2,1,0,0,0,61191.6,0.588089,0.587752,0.266449,93,0.0326797,10,0.000156606,-3.57439,0.604889,0.0975385,0.587634,
2,1,0,1,0,61195.4,0.607066,0.606721,0.293968,93,0.0337646,10,0.000178357,-3.5317,0.352704,0.167279,0.606592,
2,1,0,1,0,61199.2,0.626044,0.625744,0.344658,93,0.0349925,10,0.000215668,-3.46261,0.219266,0.26908,0.625593,
2,1,0,1,0,61203,0.64502,0.644745,0.444698,93,0.0364929,10,0.000286717,-3.35193,0.137116,0.430291,0.644549,
2,1,0,1,0,61206.8,0.663997,0.663672,0.644225,93,0.038542,10,0.000427554,-3.19096,0.100176,0.588964,0.663388,
2,1,0,1,0,61210.6,0.682974,0.682687,1.03184,93,0.0416762,10,0.000704422,-2.98639,0.0879855,0.670565,0.682233,
2,1,0,1,0,61214.4,0.701951,0.701616,1.69103,93,0.0467718,10,0.00118645,-2.77185,0.0868266,0.679516,0.700872,
2,1,0,1,0,61218.2,0.720928,0.720624,2.67703,93,0.054982,10,0.00192913,-2.57235,0.098577,0.598517,0.719447,
2,1,0,1,0,61222,0.739905,0.739571,4.00935,93,0.0675803,10,0.0029652,-2.39693,0.109865,0.537023,0.737806,
2,1,0,0,0,61225.8,0.758883,0.758594,5.74175,93,0.0859697,10,0.00435566,-2.24096,0.12097,0.487726,0.756067,
2,1,0,1,0,61229.6,0.77786,0.777572,7.9786,93,0.111854,10,0.00620394,-2.09807,0.129411,0.455913,0.774061,
2,1,0,0,0,61233.4,0.796837,0.796505,10.8834,93,0.147438,10,0.00866872,-1.96323,0.133152,0.443101,0.791717,
2,1,0,1,0,61237.2,0.815814,0.815515,14.7602,93,0.195768,10,0.0120372,-1.83091,0.12931,0.456268,0.809021,
2,1,0,0,0,61241,0.834791,0.834533,19.7175,93,0.260879,10,0.0164549,-1.70515,0.135155,0.436535,0.825857,
2,1,0,0,0,61244.7,0.846726,0.846459,22.6693,93,0.342936,10,0.0191886,-1.64456,0.104893,0.562476,0.836484,
2,1,0,1,0,61248.5,0.827749,0.827484,16.5259,93,0.416691,10,0.0136749,-1.78183,0.120497,0.489637,0.820212,
2,1,0,1,0,61252.3,0.808772,0.808494,11.8666,93,0.47013,10,0.00959408,-1.92567,0.119314,0.494495,0.803273,
2,1,0,1,0,61256.1,0.789795,0.789496,8.45714,93,0.508369,10,0.00667688,-2.07278,0.113476,0.519932,0.785775,
2,1,0,1,0,61259.9,0.770818,0.770565,5.92726,93,0.53539,10,0.00456734,-2.22715,0.114097,0.517103,0.767957,
2,1,0,1,0,61263.7,0.751841,0.7515,4.05703,93,0.554138,10,0.00304886,-2.39179,0.108223,0.545173,0.749715,
2,1,0,1,0,61267.5,0.732865,0.732513,2.65827,93,0.566736,10,0.00194722,-2.5754,0.0939591,0.627932,0.731344,
2,1,0,0,0,61271.2,0.713887,0.713533,1.62319,93,0.574735,10,0.0011582,-2.78963,0.0790429,0.74643,0.712819,
2,1,0,1,0,61275,0.69491,0.694596,0.886471,93,0.579385,10,0.00061574,-3.05234,0.0624,0.945513,0.694206,
2,1,0,0,0,61278.8,0.675933,0.675604,0.406828,93,0.581738,10,0.000274855,-3.39059,0.0475769,1.2401,0.675425,
2,1,0,1,0,61282.6,0.656956,0.656694,0.131256,93,0.58268,10,8.61949e-05,-3.88188,0.0290419,2.03155,0.656636,
2,0,0,0,0,61286.4,0.637979,0.637676,-0.0051347,93,0.58286,10,-3.27427e-06,-5.28948,-0.0084025,-7.02172,0.637678,
2,0,0,1,0,61290.2,0.619002,0.618683,-0.0661305,93,0.582683,10,-4.09138e-05,-4.1796,-0.0724638,-0.814199,0.618712,
2,0,0,0,0,61294,0.600024,0.599717,-0.0940574,93,0.582345,10,-5.64078e-05,-4.02661,-0.202439,-0.291446,0.599759,
2,0,0,1,0,61297.8,0.581047,0.580718,-0.107101,93,0.581934,10,-6.21954e-05,-3.97021,-0.545934,-0.108072,0.580765,
2,0,0,1,0,61301.6,0.56207,0.561722,-0.114083,93,0.581486,10,-6.40831e-05,-3.94278,-1.02405,-0.0576146,0.561772,
2,0,0,1,0,61305.4,0.543093,0.54273,-0.11891,93,0.581016,10,-6.4536e-05,-3.92478,-1.07383,-0.0549437,0.542782,
2,0,0,1,0,61309.2,0.524116,0.523766,-0.123224,93,0.580529,10,-6.45404e-05,-3.90931,-11.415,-0.00516862,0.52382,
2,0,0,1,0,61313,0.505139,0.504821,-0.127563,93,0.580025,10,-6.43962e-05,-3.89428,-1.21754,-0.0484584,0.504877,
2,0,0,1,0,61316.8,0.486162,0.485846,-0.132198,93,0.579503,10,-6.4228e-05,-3.87877,-1.00503,-0.0587047,0.485904,
2,0,0,1,0,61320.6,0.467185,0.466824,-0.138938,93,0.578959,10,-6.48597e-05,-3.85718,-3.74633,-0.0157487,0.466886,
2,0,0,1,0,61324.4,0.448208,0.447873,-0.145396,93,0.57839,10,-6.5119e-05,-3.83745,-1.61255,-0.0365881,0.447937,
2,0,0,0,0,61328.2,0.429231,0.428878,-0.154094,93,0.577791,10,-6.60877e-05,-3.81221,-1.66099,-0.0355209,0.428946,
2,0,0,1,0,61332,0.410254,0.409928,-0.162139,93,0.577161,10,-6.64653e-05,-3.79011,-1.10628,-0.0533317,0.409999,
2,0,0,0,0,61335.8,0.391277,0.390917,-0.170694,93,0.576496,10,-6.67273e-05,-3.76778,-0.536075,-0.110059,0.390992,
2,0,0,1,0,61339.6,0.3723,0.371953,-0.180773,93,0.575795,10,-6.72391e-05,-3.74287,-0.639339,-0.0922828,0.372032,
2,0,0,1,0,61343.4,0.353322,0.352999,-0.190962,93,0.575054,10,-6.74094e-05,-3.71905,-0.667221,-0.0884264,0.353083,
2,0,0,1,0,61347.2,0.334345,0.334025,-0.202119,93,0.574273,10,-6.75129e-05,-3.69439,-0.879162,-0.0671093,0.334114,
2,0,0,1,0,61351,0.315368,0.315035,-0.212974,93,0.573448,10,-6.70942e-05,-3.67167,-0.897846,-0.0657128,0.315129,
2,0,0,1,0,61354.7,0.296391,0.296056,-0.224593,93,0.57258,10,-6.64923e-05,-3.6486,-1.05018,-0.0561809,0.296155,
2,0,0,1,0,61358.5,0.277414,0.277067,-0.236684,93,0.571666,10,-6.55772e-05,-3.62583,-0.984026,-0.0599578,0.277171,
2,0,0,1,0,61362.3,0.258437,0.258061,-0.248353,93,0.570706,10,-6.40901e-05,-3.60493,-0.832555,-0.0708662,0.25817,
2,0,0,1,0,61366.1,0.239461,0.239053,-0.259245,93,0.569702,10,-6.19734e-05,-3.58629,-0.790678,-0.0746195,0.239168,
2,0,0,0,0,61369.9,0.220483,0.220154,-0.270871,93,0.568655,10,-5.96334e-05,-3.56724,-0.706116,-0.0835557,0.220274,
2,0,0,1,0,61373.7,0.201506,0.20113,-0.283564,93,0.567561,10,-5.7033e-05,-3.54735,-0.561086,-0.105153,0.201254,
2,0,0,0,0,61377.5,0.182529,0.182177,-0.300221,93,0.566412,10,-5.46934e-05,-3.52256,-0.45474,-0.129745,0.182309,
2,0,0,1,0,61381.3,0.163552,0.163231,-0.329964,93,0.565179,10,-5.38603e-05,-3.48153,-0.337307,-0.174915,0.163376,
2,0,0,0,0,61385.1,0.144575,0.144262,-0.405352,93,0.563768,10,-5.84769e-05,-3.39217,-0.132261,-0.446088,0.144441,
2,0,0,1,0,61388.9,0.125598,0.125238,-0.593794,93,0.561838,10,-7.43659e-05,-3.22636,-0.147389,-0.400302,0.1255,
2,0,0,1,0,61392.7,0.10662,0.106256,-0.664581,93,0.559343,10,-7.06157e-05,-3.17745,-2.26174,-0.0260861,0.106548,
2,0,0,1,0,61396.5,0.0876433,0.0873097,-0.650078,93,0.556787,10,-5.67581e-05,-3.18703,0.868258,0.0679522,0.0875957,
2,0,0,1,0,61400.3,0.0686664,0.0683179,-0.613543,93,0.55434,10,-4.1916e-05,-3.21215,0.692048,0.0852541,0.0685878,
2,0,0,1,0,61404.1,0.0496895,0.0493612,-0.571074,93,0.552039,10,-2.81889e-05,-3.24331,0.530667,0.111181,0.0496125,
2,0,0,1,0,61407.9,0.0307126,0.0303991,-0.525992,93,0.549906,10,-1.59897e-05,-3.27902,0.571418,0.103252,0.0306306,
2,0,0,1,0,61411.7,0.0117356,0.0114307,-0.496857,93,0.547924,10,-5.67942e-06,-3.30377,1.68034,0.035112,0.0116493,
2,0,0,0,0,61414,0.000274105,-0.000101048,-0.497484,93,0.546758,10,5.02695e-08,-3.30322, , ,0.000117845,