Folder: Figs_alphaMnO2_OER_Tafel_sleope/Figure_codes/Fig_3-5/workspace_calculate_alpha_eff (part 39)

File: 20221101_1-115_003_TrumpetPlot_ParaChange_from10_every3_16_CV_C01_69.csv
mode,ox/red,error,control changes,counter inc.,time/s,control/V,Ewe/V,<I>/mA,cycle number,(Q-Qo)/C,I Range,P/W,log(|I|),Tafel slope mV/dec,alpha_eff,E-IR/V,
2,0,0,1,0,46543.1,2.44065e-05,-0.000287149,-0.0338828,70,0.0000000E+000,10,9.7294e-09,-4.47002, , ,-0.00027224,
2,1,0,1,0,46546.9,0.0187763,0.0184764,0.262722,70,0.000880504,10,4.85417e-06,-3.5805,0.168524,0.350098,0.0183608,
2,1,0,0,0,46550.7,0.0377538,0.0374464,0.327286,70,0.00205663,10,1.22557e-05,-3.48507,0.223448,0.264043,0.0373024,
2,1,0,1,0,46554.5,0.0567309,0.0563831,0.386259,70,0.00347241,10,2.17785e-05,-3.41312,0.345245,0.170893,0.0562131,
2,1,0,0,0,46558.3,0.075708,0.0754195,0.429134,70,0.00508474,10,3.23651e-05,-3.36741,0.587462,0.100432,0.0752307,
2,1,0,1,0,46562,0.094685,0.094334,0.479579,70,0.00685083,10,4.52406e-05,-3.31914,0.241208,0.244603,0.094123,
2,1,0,0,0,46565.8,0.113662,0.113375,0.571555,70,0.00890611,10,6.47998e-05,-3.24294,0.399971,0.147511,0.113123,
2,1,0,1,0,46569.6,0.132639,0.132333,0.607732,70,0.0112244,10,8.04227e-05,-3.21629,-0.736178,-0.0801437,0.132065,
2,1,0,1,0,46573.4,0.151617,0.151307,0.409077,70,0.0132767,10,6.1896e-05,-3.3882,-0.0866281,-0.681072,0.151127,
2,1,0,1,0,46577.2,0.170594,0.170268,0.319666,70,0.0146607,10,5.44288e-05,-3.4953,-0.390471,-0.1511,0.170127,
2,1,0,1,0,46581,0.189571,0.189273,0.301531,70,0.0158836,10,5.70718e-05,-3.52067,-0.666771,-0.0884862,0.189141,
2,1,0,1,0,46584.8,0.208547,0.208219,0.294194,70,0.0170619,10,6.12568e-05,-3.53137,-0.964477,-0.061173,0.20809,
2,1,0,1,0,46588.6,0.227524,0.227227,0.289287,70,0.0182159,10,6.57338e-05,-3.53867,-1.23849,-0.0476385,0.2271,
2,1,0,1,0,46592.4,0.246501,0.246167,0.284354,70,0.0193529,10,6.99985e-05,-3.54614,-1.47656,-0.0399577,0.246042,
2,1,0,1,0,46596.2,0.265479,0.265178,0.28,70,0.0204754,10,7.425e-05,-3.55284,-1.6316,-0.0361609,0.265055,
2,1,0,0,0,46600,0.284456,0.284159,0.276585,70,0.0215818,10,7.85942e-05,-3.55817,-1.30666,-0.0451532,0.284038,
2,1,0,1,0,46603.8,0.303433,0.303073,0.273076,70,0.0226717,10,8.2762e-05,-3.56372,-2.04121,-0.0289044,0.302953,
2,1,0,0,0,46607.6,0.32241,0.322056,0.268966,70,0.0237459,10,8.6622e-05,-3.5703,-3.12305,-0.0188918,0.321938,
2,1,0,1,0,46611.4,0.341387,0.341101,0.266261,70,0.0248059,10,9.08219e-05,-3.57469,-13.7323,-0.00429643,0.340984,
2,1,0,0,0,46615.2,0.360364,0.360028,0.263732,70,0.0258541,10,9.49508e-05,-3.57884,-6.68014,-0.00883216,0.359912,
2,1,0,1,0,46619,0.379342,0.379067,0.261665,70,0.0268914,10,9.91885e-05,-3.58225,-148.784,-0.000396549,0.378952,
2,1,0,1,0,46622.8,0.398319,0.398,0.259782,70,0.0279212,10,0.000103393,-3.58539,9.54696,0.00617998,0.397885,
2,1,0,1,0,46626.6,0.417295,0.416964,0.258046,70,0.0289431,10,0.000107596,-3.5883,-5.21118,-0.0113218,0.41685,
2,1,0,1,0,46630.4,0.436272,0.435986,0.257153,70,0.0299594,10,0.000112115,-3.58981,7.93113,0.00743904,0.435873,
2,1,0,1,0,46634.2,0.455249,0.454944,0.256478,70,0.030972,10,0.000116683,-3.59095,1.5184,0.0388566,0.454831,
2,1,0,1,0,46638,0.474226,0.473912,0.257644,70,0.0319857,10,0.000122101,-3.58898,1.48868,0.0396324,0.473799,
2,1,0,1,0,46641.8,0.493203,0.492877,0.260685,70,0.0330042,10,0.000128486,-3.58388,1.62186,0.036378,0.492762,
2,1,0,1,0,46645.5,0.512181,0.51187,0.263776,70,0.0340332,10,0.000135019,-3.57877,4.22244,0.013973,0.511754,
2,1,0,0,0,46649.3,0.531158,0.530919,0.269033,70,0.0350774,10,0.000142835,-3.57019,1.22249,0.0482623,0.530801,
2,1,0,1,0,46653.1,0.550135,0.549793,0.277031,70,0.0361464,10,0.00015231,-3.55747,0.749981,0.0786687,0.549672,
2,1,0,0,0,46656.9,0.569112,0.568861,0.290025,70,0.037254,10,0.000164984,-3.53756,0.930843,0.0633834,0.568733,
2,1,0,1,0,46660.7,0.588089,0.587816,0.309789,70,0.0384214,10,0.000182099,-3.50893,0.586602,0.100579,0.58768,
2,1,0,0,0,46664.5,0.607066,0.606811,0.345449,70,0.0396889,10,0.000209623,-3.46162,0.343191,0.171916,0.606659,
2,1,0,1,0,46668.3,0.626044,0.625787,0.411458,70,0.0411416,10,0.000257485,-3.38567,0.19417,0.303857,0.625606,
2,1,0,1,0,46672.1,0.64502,0.644755,0.54558,70,0.0429594,10,0.000351765,-3.26314,0.131963,0.447095,0.644515,
2,1,0,1,0,46675.9,0.663997,0.663757,0.820935,70,0.0455227,10,0.000544901,-3.08569,0.0932125,0.632962,0.663395,
2,1,0,1,0,46679.7,0.682974,0.682686,1.3538,70,0.0495806,10,0.000924221,-2.86844,0.0829879,0.710947,0.68209,
2,1,0,1,0,46683.5,0.701951,0.70167,2.25741,70,0.0563339,10,0.00158396,-2.64639,0.0859728,0.686263,0.700677,
2,1,0,1,0,46687.3,0.720928,0.720697,3.58509,70,0.067315,10,0.00258376,-2.4455,0.0960982,0.613955,0.719119,
2,1,0,1,0,46691.1,0.739905,0.739632,5.36017,70,0.0841784,10,0.00396455,-2.27082,0.110575,0.533573,0.737274,
2,1,0,1,0,46694.9,0.758883,0.758613,7.62841,70,0.108689,10,0.00578701,-2.11757,0.123049,0.479485,0.755256,
2,1,0,0,0,46698.7,0.77786,0.777616,10.51,70,0.142911,10,0.00817272,-1.9784,0.130497,0.452118,0.772992,
2,1,0,1,0,46702.5,0.796837,0.796574,14.3572,70,0.189764,10,0.0114366,-1.84293,0.126319,0.467073,0.790257,
2,1,0,0,0,46706.3,0.815814,0.815573,19.396,70,0.253459,10,0.0158189,-1.71229,0.12949,0.455634,0.807038,
2,1,0,1,0,46710.1,0.834791,0.834581,25.3502,70,0.338224,10,0.0211568,-1.59602,0.144502,0.4083,0.823427,
2,1,0,1,0,46713.8,0.846726,0.846487,28.6199,70,0.442157,10,0.0242263,-1.54333,0.105387,0.559842,0.833894,
2,1,0,1,0,46717.6,0.827749,0.827589,21.2333,70,0.535957,10,0.0175725,-1.67298,0.123165,0.479032,0.818246,
2,1,0,1,0,46721.4,0.808772,0.808515,15.6143,70,0.605438,10,0.0126244,-1.80648,0.118868,0.49635,0.801645,
2,1,0,1,0,46725.2,0.789795,0.789514,11.1802,70,0.655814,10,0.00882693,-1.95155,0.117452,0.502331,0.784595,
2,1,0,1,0,46728.9,0.770818,0.770549,7.8494,70,0.691579,10,0.00604835,-2.10516,0.109553,0.538553,0.767095,
2,1,0,1,0,46732.7,0.751841,0.75159,5.36724,70,0.716397,10,0.00403396,-2.27025,0.104393,0.565174,0.749228,
2,1,0,1,0,46736.5,0.732865,0.732561,3.53362,70,0.733056,10,0.00258859,-2.45178,0.0941464,0.626683,0.731007,
2,1,0,1,0,46740.3,0.713887,0.713643,2.16969,70,0.743712,10,0.00154838,-2.6636,0.0790685,0.746188,0.712688,
2,1,0,0,0,46744.1,0.69491,0.694659,1.20336,70,0.749963,10,0.000835924,-2.9196,0.0657743,0.897007,0.694129,
2,1,0,1,0,46747.9,0.675933,0.675652,0.586512,70,0.75324,10,0.000396278,-3.23172,0.0535233,1.10232,0.675394,
2,1,0,0,0,46751.7,0.656956,0.65669,0.230365,70,0.754689,10,0.000151278,-3.63758,0.0397752,1.48334,0.656588,
2,1,0,1,0,46755.5,0.637979,0.637703,0.0521936,70,0.755147,10,3.3284e-05,-4.28238,0.0263914,2.23558,0.63768,
2,0,0,0,0,46759.3,0.619002,0.618757,-0.0277094,70,0.755142,10,-1.71454e-05,-4.55737,-0.0237104,-2.48836,0.618769,
2,0,0,1,0,46763.1,0.600024,0.599757,-0.063549,70,0.754926,10,-3.81139e-05,-4.19689,-0.112873,-0.522711,0.599785,
2,0,0,1,0,46766.9,0.581047,0.580757,-0.0807637,70,0.754614,10,-4.69041e-05,-4.09278,-0.247756,-0.238137,0.580792,
2,0,0,1,0,46770.7,0.56207,0.561772,-0.0908908,70,0.754253,10,-5.10599e-05,-4.04148,-0.584614,-0.100921,0.561812,
2,0,0,1,0,46774.5,0.543093,0.542779,-0.0959489,70,0.753863,10,-5.2079e-05,-4.01796,-0.941305,-0.062679,0.542821,
2,0,0,1,0,46778.3,0.524116,0.523792,-0.101929,70,0.753452,10,-5.33894e-05,-3.9917,-0.574433,-0.10271,0.523837,
2,0,0,1,0,46782.1,0.505139,0.504872,-0.107546,70,0.753021,10,-5.42972e-05,-3.9684,-0.50053,-0.117875,0.504919,
2,0,0,1,0,46785.9,0.486162,0.485852,-0.113121,70,0.752568,10,-5.49603e-05,-3.94646,-1.25827,-0.0468896,0.485902,
2,0,0,1,0,46789.7,0.467185,0.466848,-0.119335,70,0.752091,10,-5.57114e-05,-3.92323,-0.381553,-0.154631,0.4669,
2,0,0,0,0,46793.5,0.448208,0.447863,-0.12658,70,0.751585,10,-5.66905e-05,-3.89763,-0.793088,-0.0743927,0.447919,
2,0,0,1,0,46797.3,0.429231,0.428945,-0.134616,70,0.751051,10,-5.77428e-05,-3.8709,-3.32665,-0.0177356,0.429004,
2,0,0,0,0,46801.1,0.410254,0.40995,-0.143762,70,0.750481,10,-5.89351e-05,-3.84236,-0.649777,-0.0908004,0.410013,
2,0,0,1,0,46804.9,0.391277,0.390966,-0.154231,70,0.749874,10,-6.02991e-05,-3.81183,-0.716353,-0.0823616,0.391034,
2,0,0,0,0,46808.7,0.3723,0.371992,-0.164031,70,0.749228,10,-6.10182e-05,-3.78507,-0.863777,-0.0683047,0.372064,
2,0,0,1,0,46812.4,0.353322,0.353004,-0.173961,70,0.748542,10,-6.14089e-05,-3.75955,-0.730032,-0.0808184,0.35308,
2,0,0,1,0,46816.2,0.334345,0.33403,-0.186004,70,0.747814,10,-6.21308e-05,-3.73048,-0.608741,-0.0969213,0.334112,
2,0,0,1,0,46820,0.315368,0.315101,-0.196623,70,0.74704,10,-6.19561e-05,-3.70637,-0.770904,-0.0765335,0.315188,
2,0,0,1,0,46823.8,0.296391,0.296071,-0.209144,70,0.746222,10,-6.19216e-05,-3.67955,-1.87139,-0.0315274,0.296163,
2,0,0,1,0,46827.6,0.277414,0.277127,-0.221589,70,0.745356,10,-6.14082e-05,-3.65445,-1.01278,-0.0582554,0.277225,
2,0,0,1,0,46831.4,0.258437,0.258144,-0.233879,70,0.744442,10,-6.03744e-05,-3.63101,-1.01169,-0.0583183,0.258246,
2,0,0,1,0,46835.2,0.239461,0.239167,-0.246281,70,0.743481,10,-5.89022e-05,-3.60857,-0.872221,-0.0676434,0.239275,
2,0,0,1,0,46839,0.220483,0.220175,-0.25809,70,0.742475,10,-5.68248e-05,-3.58823,-0.729189,-0.0809119,0.220288,
2,0,0,0,0,46842.8,0.201506,0.201211,-0.270974,70,0.741419,10,-5.4523e-05,-3.56707,-0.573227,-0.102926,0.20133,
2,0,0,1,0,46846.6,0.182529,0.182242,-0.289715,70,0.740303,10,-5.27981e-05,-3.53803,-0.48629,-0.121327,0.182369,
2,0,0,0,0,46850.4,0.163552,0.163194,-0.322846,70,0.739093,10,-5.26864e-05,-3.491,-0.313728,-0.188061,0.163336,
2,0,0,1,0,46854.2,0.144575,0.144241,-0.414657,70,0.737675,10,-5.98105e-05,-3.38231,-0.103752,-0.568665,0.144423,
2,0,0,0,0,46858,0.125598,0.125283,-0.625293,70,0.735646,10,-7.83386e-05,-3.20392,-0.164194,-0.359332,0.125558,
2,0,0,1,0,46861.8,0.10662,0.106296,-0.680407,70,0.733052,10,-7.23246e-05,-3.16723,5.18736,0.0113738,0.106595,
2,0,0,1,0,46865.6,0.0876433,0.0873298,-0.652268,70,0.730453,10,-5.69625e-05,-3.18557,0.74035,0.0796921,0.0876168,
2,0,0,1,0,46869.4,0.0686664,0.0683454,-0.612598,70,0.727996,10,-4.18682e-05,-3.21282,0.61394,0.0961006,0.0686149,
2,0,0,1,0,46873.2,0.0496895,0.0493666,-0.568212,70,0.72569,10,-2.80507e-05,-3.24549,0.598281,0.0986158,0.0496166,
2,0,0,1,0,46877,0.0307126,0.0303822,-0.522398,70,0.723557,10,-1.58716e-05,-3.282,0.500304,0.117928,0.0306121,
2,0,0,1,0,46880.8,0.0117356,0.0114062,-0.491915,70,0.721579,10,-5.6109e-06,-3.30811,1.82243,0.0323743,0.0116227,
2,0,0,1,0,46883.1,0.000274105,-7.24165e-05,-0.494347,70,0.720414,10,3.57989e-08,-3.30597, , ,0.000145096,

File: 20221101_1-115_003_TrumpetPlot_ParaChange_from10_every3_16_CV_C01_70.csv
mode,ox/red,error,control changes,counter inc.,time/s,control/V,Ewe/V,<I>/mA,cycle number,(Q-Qo)/C,I Range,P/W,log(|I|),Tafel slope mV/dec,alpha_eff,E-IR/V,
2,0,0,0,0,46913.1,2.44065e-05,-0.000363498,-0.101302,71,0.0000000E+000,10,3.68231e-08,-3.99438, , ,-0.000318925,
2,1,0,1,0,46916.9,0.0187763,0.0184964,0.215152,71,0.000703693,10,3.97954e-06,-3.66725,0.143461,0.411261,0.0184017,
2,1,0,1,0,46920.7,0.0377538,0.0373986,0.278482,71,0.00169984,10,1.04149e-05,-3.5552,0.172253,0.34252,0.0372761,
2,1,0,0,0,46924.5,0.0567309,0.0564446,0.340587,71,0.00294301,10,1.92243e-05,-3.46777,0.259752,0.22714,0.0562947,
2,1,0,1,0,46928.3,0.075708,0.075411,0.387733,71,0.00439183,10,2.92393e-05,-3.41147,0.501663,0.117609,0.0752404,
2,1,0,0,0,46932.1,0.094685,0.09437,0.440819,71,0.00600762,10,4.16001e-05,-3.35574,0.240354,0.245472,0.0941761,
2,1,0,1,0,46935.8,0.113662,0.11333,0.5362,71,0.00791722,10,6.07677e-05,-3.27067,0.322563,0.18291,0.113094,
2,1,0,0,0,46939.6,0.132639,0.132294,0.576739,71,0.0101092,10,7.62993e-05,-3.23902,-0.678136,-0.0870032,0.132041,
2,1,0,1,0,46943.4,0.151617,0.151294,0.380959,71,0.0120548,10,5.76368e-05,-3.41912,-0.0760201,-0.77611,0.151126,
2,1,0,1,0,46947.2,0.170594,0.170264,0.2869,71,0.0133191,10,4.88486e-05,-3.54227,-0.348957,-0.169075,0.170137,
2,1,0,1,0,46951,0.189571,0.189257,0.267723,71,0.0144164,10,5.06685e-05,-3.57231,-1.04928,-0.0562288,0.189139,
2,1,0,1,0,46954.8,0.208547,0.208253,0.259731,71,0.0154692,10,5.40898e-05,-3.58548,-0.765352,-0.0770887,0.208139,
2,1,0,1,0,46958.6,0.227524,0.227236,0.254551,71,0.0164961,10,5.78431e-05,-3.59422,-0.921639,-0.0640164,0.227124,
2,1,0,1,0,46962.4,0.246501,0.246195,0.25004,71,0.017503,10,6.15587e-05,-3.60199,-1.34379,-0.0439056,0.246085,
2,1,0,0,0,46966.2,0.265479,0.265218,0.245821,71,0.018493,10,6.51963e-05,-3.60938,-1.40587,-0.041967,0.26511,
2,1,0,1,0,46970,0.284456,0.284198,0.242211,71,0.019466,10,6.88358e-05,-3.61581,-1.99526,-0.0295701,0.284091,
2,1,0,0,0,46973.8,0.303433,0.303142,0.238092,71,0.0204224,10,7.21755e-05,-3.62326,-1.59393,-0.0370155,0.303037,
2,1,0,1,0,46977.6,0.32241,0.322108,0.233742,71,0.0213627,10,7.52903e-05,-3.63126,-6.483,-0.00910073,0.322005,
2,1,0,0,0,46981.4,0.341387,0.341104,0.231357,71,0.0222904,10,7.8917e-05,-3.63572,-1.59576,-0.0369731,0.341003,
2,1,0,1,0,46985.2,0.360364,0.360075,0.230213,71,0.0232066,10,8.2894e-05,-3.63787,-5.11833,-0.0115272,0.359974,
2,1,0,1,0,46989,0.379342,0.379021,0.228433,71,0.0241143,10,8.65808e-05,-3.64124,-2.40686,-0.0245132,0.37892,
2,1,0,1,0,46992.8,0.398319,0.398052,0.22542,71,0.0250141,10,8.97286e-05,-3.64701,9.12106,0.00646855,0.397952,
2,1,0,1,0,46996.6,0.417295,0.41704,0.225141,71,0.0259096,10,9.38927e-05,-3.64755,-10.5043,-0.00561676,0.416941,
2,1,0,1,0,47000.4,0.436272,0.435963,0.224346,71,0.0268008,10,9.78064e-05,-3.64908,1.75224,0.0336712,0.435864,
2,1,0,1,0,47004.2,0.455249,0.454954,0.224414,71,0.0276901,10,0.000102098,-3.64895,1.60846,0.0366811,0.454855,
2,1,0,1,0,47008,0.474226,0.473939,0.226621,71,0.0285814,10,0.000107404,-3.6447,0.851998,0.069249,0.473839,
2,1,0,1,0,47011.8,0.493203,0.49289,0.228935,71,0.0294809,10,0.00011284,-3.64029,1.49384,0.0394956,0.49279,
2,1,0,0,0,47015.5,0.512181,0.511882,0.233114,71,0.0303917,10,0.000119327,-3.63243,1.31319,0.0449288,0.511779,
2,1,0,1,0,47019.3,0.531158,0.530826,0.239406,71,0.0313216,10,0.000127083,-3.62086,3.04429,0.0193805,0.530721,
2,1,0,0,0,47023.1,0.550135,0.549837,0.247785,71,0.0322774,10,0.000136241,-3.60592,0.752279,0.0784283,0.549728,
2,1,0,1,0,47026.9,0.569112,0.568814,0.260794,71,0.0332737,10,0.000148343,-3.5837,0.83928,0.0702983,0.568699,
2,1,0,0,0,47030.7,0.588089,0.587805,0.28191,71,0.0343323,10,0.000165708,-3.54989,0.429124,0.137489,0.587681,
2,1,0,1,0,47034.5,0.607066,0.606761,0.317142,71,0.0354934,10,0.000192429,-3.49875,0.304794,0.193573,0.606621,
2,1,0,1,0,47038.3,0.626044,0.625784,0.381968,71,0.0368358,10,0.000239029,-3.41797,0.188148,0.313583,0.625616,
2,1,0,1,0,47042.1,0.64502,0.644725,0.513793,71,0.0385373,10,0.000331256,-3.28921,0.121675,0.484898,0.644499,
2,1,0,1,0,47045.9,0.663997,0.663701,0.786791,71,0.0409745,10,0.000522194,-3.10414,0.0904078,0.652599,0.663355,
2,1,0,1,0,47049.7,0.682974,0.682725,1.31402,71,0.0448923,10,0.000897114,-2.8814,0.0804705,0.733188,0.682147,
2,1,0,1,0,47053.5,0.701951,0.701682,2.20851,71,0.051479,10,0.00154967,-2.6559,0.0835372,0.706272,0.70071,
2,1,0,1,0,47057.3,0.720928,0.720642,3.52763,71,0.0622611,10,0.00254216,-2.45252,0.0965629,0.611001,0.719089,
2,1,0,1,0,47061.1,0.739905,0.739623,5.29535,71,0.0788909,10,0.00391656,-2.27611,0.110265,0.535074,0.737293,
2,1,0,0,0,47064.9,0.758883,0.758626,7.56123,71,0.103147,10,0.00573614,-2.12141,0.120692,0.488847,0.755299,
2,1,0,1,0,47068.7,0.77786,0.77757,10.4419,71,0.137125,10,0.00811932,-1.98122,0.125132,0.471504,0.772975,
2,1,0,0,0,47072.5,0.796837,0.79656,14.337,71,0.1838,10,0.0114203,-1.84354,0.125803,0.468986,0.790252,
2,1,0,1,0,47076.3,0.815814,0.815581,19.4564,71,0.247585,10,0.0158683,-1.71094,0.129514,0.455549,0.80702,
2,1,0,0,0,47080.1,0.834791,0.834562,25.6158,71,0.332897,10,0.021378,-1.59149,0.148336,0.397745,0.823291,
2,1,0,0,0,47083.8,0.846726,0.846524,29.1425,71,0.438664,10,0.0246698,-1.53547,0.110473,0.534065,0.833701,
2,1,0,1,0,47087.6,0.827749,0.827501,21.8129,71,0.535236,10,0.0180502,-1.66129,0.11728,0.503069,0.817903,
2,1,0,1,0,47091.4,0.808772,0.808476,15.9103,71,0.606321,10,0.0128631,-1.79832,0.119105,0.49536,0.801476,
2,1,0,1,0,47095.2,0.789795,0.789505,11.3704,71,0.657653,10,0.00897701,-1.94422,0.112974,0.522244,0.784502,
2,1,0,1,0,47098.9,0.770818,0.770562,7.94687,71,0.693965,10,0.00612355,-2.0998,0.108028,0.546153,0.767065,
2,1,0,1,0,47102.7,0.751841,0.751577,5.42457,71,0.719063,10,0.00407698,-2.26563,0.101572,0.580871,0.74919,
2,1,0,1,0,47106.5,0.732865,0.732594,3.55111,71,0.735882,10,0.00260152,-2.44964,0.0920195,0.641169,0.731032,
2,1,0,0,0,47110.3,0.713887,0.713614,2.17121,71,0.746566,10,0.00154941,-2.6633,0.0787799,0.748922,0.712659,
2,1,0,1,0,47114.1,0.69491,0.694663,1.19691,71,0.752806,10,0.000831449,-2.92194,0.0644167,0.915912,0.694136,
2,1,0,0,0,47117.9,0.675933,0.675689,0.568401,71,0.756025,10,0.000384062,-3.24535,0.0511072,1.15444,0.675439,
2,1,0,1,0,47121.7,0.656956,0.656676,0.210106,71,0.757396,10,0.000137972,-3.67756,0.0357093,1.65223,0.656584,
2,1,0,0,0,47125.5,0.637979,0.637721,0.0315755,71,0.757777,10,2.01364e-05,-4.50065,0.0112476,5.24555,0.637707,
2,0,0,1,0,47129.3,0.619002,0.618727,-0.0472777,71,0.757691,10,-2.9252e-05,-4.32534,-0.0439687,-1.34186,0.618748,
2,0,0,0,0,47133.1,0.600024,0.599787,-0.0829212,71,0.757399,10,-4.97351e-05,-4.08133,-0.169655,-0.347765,0.599824,
2,0,0,1,0,47136.9,0.581047,0.580774,-0.0998129,71,0.757014,10,-5.79687e-05,-4.00081,-0.752989,-0.0783544,0.580818,
2,0,0,1,0,47140.7,0.56207,0.561776,-0.108379,71,0.756582,10,-6.08847e-05,-3.96505,-0.879955,-0.0670489,0.561823,
2,0,0,1,0,47144.5,0.543093,0.542779,-0.114916,71,0.756125,10,-6.23738e-05,-3.93962,-1.12033,-0.0526629,0.542829,
2,0,0,1,0,47148.3,0.524116,0.523794,-0.119652,71,0.755647,10,-6.26727e-05,-3.92208,-1.06781,-0.0552531,0.523846,
2,0,0,1,0,47152.1,0.505139,0.504869,-0.123535,71,0.755151,10,-6.23691e-05,-3.90821,-2.05126,-0.0287629,0.504924,
2,0,0,1,0,47155.9,0.486162,0.48583,-0.129091,71,0.754637,10,-6.27165e-05,-3.8891,-0.749329,-0.0787372,0.485887,
2,0,0,1,0,47159.7,0.467185,0.466845,-0.134586,71,0.7541,10,-6.28305e-05,-3.871,-2.00023,-0.0294966,0.466904,
2,0,0,1,0,47163.5,0.448208,0.44789,-0.142157,71,0.753538,10,-6.36707e-05,-3.84723,-1.26624,-0.0465946,0.447953,
2,0,0,0,0,47167.3,0.429231,0.428927,-0.149724,71,0.752946,10,-6.42209e-05,-3.82471,-9.46832,-0.00623131,0.428993,
2,0,0,1,0,47171.1,0.410254,0.410005,-0.158451,71,0.752321,10,-6.49657e-05,-3.80011,-1.44406,-0.040857,0.410075,
2,0,0,0,0,47174.9,0.391277,0.390995,-0.167792,71,0.751662,10,-6.56061e-05,-3.77523,-1.16104,-0.0508167,0.391069,
2,0,0,1,0,47178.7,0.3723,0.372031,-0.177867,71,0.750964,10,-6.61722e-05,-3.7499,-0.531192,-0.111071,0.372109,
2,0,0,1,0,47182.4,0.353322,0.353074,-0.187747,71,0.750226,10,-6.62886e-05,-3.72643,-0.658084,-0.0896542,0.353156,
2,0,0,1,0,47186.2,0.334345,0.334044,-0.198461,71,0.749446,10,-6.62945e-05,-3.70233,-0.607706,-0.0970865,0.334131,
2,0,0,1,0,47190,0.315368,0.315084,-0.209522,71,0.748625,10,-6.6017e-05,-3.67877,-0.647912,-0.0910617,0.315176,
2,0,0,1,0,47193.8,0.296391,0.296087,-0.222836,71,0.747758,10,-6.59788e-05,-3.65201,-0.567384,-0.103986,0.296185,
2,0,0,1,0,47197.6,0.277414,0.27712,-0.233988,71,0.746846,10,-6.48427e-05,-3.63081,-0.896146,-0.0658375,0.277223,
2,0,0,1,0,47201.4,0.258437,0.258136,-0.245543,71,0.745885,10,-6.33835e-05,-3.60987,-0.712505,-0.0828064,0.258244,
2,0,0,1,0,47205.2,0.239461,0.239129,-0.257529,71,0.744879,10,-6.15827e-05,-3.58917,-1.15289,-0.051176,0.239242,
2,0,0,0,0,47209,0.220483,0.220168,-0.268922,71,0.743829,10,-5.9208e-05,-3.57037,-0.715607,-0.0824475,0.220286,
2,0,0,1,0,47212.8,0.201506,0.201182,-0.281636,71,0.74273,10,-5.666e-05,-3.55031,-0.490488,-0.120288,0.201305,
2,0,0,0,0,47216.6,0.182529,0.182234,-0.301199,71,0.741572,10,-5.48887e-05,-3.52115,-0.43447,-0.135798,0.182367,
2,0,0,1,0,47220.4,0.163552,0.163202,-0.332604,71,0.740324,10,-5.42817e-05,-3.47807,-0.324128,-0.182027,0.163348,
2,0,0,0,0,47224.2,0.144575,0.144279,-0.423948,71,0.738869,10,-6.11669e-05,-3.37269,-0.113276,-0.520852,0.144466,
2,0,0,1,0,47228,0.125598,0.125281,-0.633079,71,0.736807,10,-7.93127e-05,-3.19854,-0.170572,-0.345895,0.125559,
2,0,0,1,0,47231.8,0.10662,0.106307,-0.687555,71,0.734183,10,-7.30917e-05,-3.16269,-16.9073,-0.00348962,0.106609,
2,0,0,1,0,47235.6,0.0876433,0.0873044,-0.660003,71,0.731553,10,-5.76211e-05,-3.18045,0.765188,0.0771052,0.0875948,
2,0,0,1,0,47239.4,0.0686664,0.0683369,-0.619235,71,0.729066,10,-4.23166e-05,-3.20814,0.705884,0.0835831,0.0686094,
2,0,0,1,0,47243.2,0.0496895,0.0493613,-0.576036,71,0.726731,10,-2.84339e-05,-3.23955,0.515393,0.114476,0.0496147,
2,0,0,1,0,47247,0.0307126,0.0303981,-0.528289,71,0.724571,10,-1.6059e-05,-3.27713,0.508584,0.116008,0.0306306,
2,0,0,1,0,47250.8,0.0117356,0.011383,-0.497859,71,0.722569,10,-5.66712e-06,-3.30289,1.29138,0.0456877,0.011602,
2,0,0,0,0,47253.1,0.000274105,-0.00014638,-0.500339,71,0.721391,10,7.32396e-08,-3.30074, , ,7.37694e-05,