Folder: Figs_alphaMnO2_OER_Tafel_sleope/Figure_codes/Fig_3-5/workspace_calculate_alpha_eff (part 41)

File: 20221101_1-115_003_TrumpetPlot_ParaChange_from10_every3_16_CV_C01_73.csv
mode,ox/red,error,control changes,counter inc.,time/s,control/V,Ewe/V,<I>/mA,cycle number,(Q-Qo)/C,I Range,P/W,log(|I|),Tafel slope mV/dec,alpha_eff,E-IR/V,
2,0,0,0,0,48883.2,2.44065e-05,-0.000344411,-0.0936697,74,0.0000000E+000,10,3.22609e-08,-4.0284, , ,-0.000303196,
2,1,0,1,0,48887,0.0187763,0.0184275,0.212922,74,0.000687435,10,3.92363e-06,-3.67178,0.145493,0.405518,0.0183339,
2,1,0,1,0,48890.8,0.0377538,0.0374124,0.277278,74,0.00166933,10,1.03736e-05,-3.55708,0.170558,0.345923,0.0372904,
2,1,0,0,0,48894.6,0.0567309,0.0564298,0.33664,74,0.00289432,10,1.89965e-05,-3.47283,0.334961,0.17614,0.0562816,
2,1,0,1,0,48898.4,0.075708,0.0753824,0.383472,74,0.00432303,10,2.8907e-05,-3.41627,0.419548,0.140628,0.0752137,
2,1,0,0,0,48902.2,0.094685,0.0943764,0.435962,74,0.00591896,10,4.11445e-05,-3.36055,0.263059,0.224285,0.0941846,
2,1,0,1,0,48906,0.113662,0.113314,0.530127,74,0.00780137,10,6.00709e-05,-3.27562,0.328589,0.179556,0.113081,
2,1,0,0,0,48909.8,0.132639,0.132276,0.570266,74,0.00996224,10,7.54328e-05,-3.24392,-0.832459,-0.0708744,0.132025,
2,1,0,1,0,48913.6,0.151617,0.151305,0.381971,74,0.0118916,10,5.7794e-05,-3.41797,-0.0771506,-0.764738,0.151136,
2,1,0,1,0,48917.4,0.170594,0.170283,0.288309,74,0.0131571,10,4.9094e-05,-3.54014,-0.309502,-0.190629,0.170156,
2,1,0,1,0,48921.2,0.189571,0.18922,0.269143,74,0.0142547,10,5.09274e-05,-3.57002,-0.847417,-0.0696234,0.189102,
2,1,0,1,0,48925,0.208547,0.208221,0.260423,74,0.015303,10,5.42255e-05,-3.58432,-1.24549,-0.0473708,0.208106,
2,1,0,1,0,48928.7,0.227524,0.227185,0.254608,74,0.0163242,10,5.78431e-05,-3.59413,-1.51655,-0.0389042,0.227073,
2,1,0,1,0,48932.5,0.246501,0.24617,0.248768,74,0.0173257,10,6.12392e-05,-3.60421,-1.04336,-0.0565483,0.24606,
2,1,0,0,0,48936.3,0.265479,0.265151,0.245338,74,0.0183106,10,6.50516e-05,-3.61023,-2.00008,-0.0294989,0.265043,
2,1,0,1,0,48940.1,0.284456,0.284144,0.241282,74,0.0192782,10,6.85587e-05,-3.61748,-3.93496,-0.0149938,0.284037,
2,1,0,0,0,48943.9,0.303433,0.303108,0.237666,74,0.0202283,10,7.20384e-05,-3.62403,-5.8805,-0.0100332,0.303003,
2,1,0,1,0,48947.7,0.32241,0.322053,0.234012,74,0.0211633,10,7.53642e-05,-3.63076,-14.3712,-0.00410543,0.32195,
2,1,0,0,0,48951.5,0.341387,0.341058,0.230827,74,0.0220859,10,7.87254e-05,-3.63671,-1.38882,-0.0424821,0.340956,
2,1,0,1,0,48955.3,0.360364,0.360033,0.229075,74,0.0229969,10,8.24745e-05,-3.64002,55.9736,0.00105407,0.359932,
2,1,0,1,0,48959.1,0.379342,0.37903,0.226848,74,0.0238989,10,8.59821e-05,-3.64427,-2.43128,-0.0242671,0.37893,
2,1,0,1,0,48962.9,0.398319,0.397981,0.225216,74,0.0247939,10,8.96317e-05,-3.6474,-5.61295,-0.0105114,0.397882,
2,1,0,1,0,48966.7,0.417295,0.416999,0.223841,74,0.025682,10,9.33413e-05,-3.65006,-3.4147,-0.0172782,0.4169,
2,1,0,1,0,48970.5,0.436272,0.435978,0.22332,74,0.0265649,10,9.73625e-05,-3.65107,4.64976,0.0126888,0.43588,
2,1,0,1,0,48974.3,0.455249,0.454938,0.223825,74,0.0274469,10,0.000101826,-3.65009,1.68661,0.0349814,0.454839,
2,1,0,1,0,48978.1,0.474226,0.473907,0.225134,74,0.0283315,10,0.000106693,-3.64756,1.17093,0.0503872,0.473808,
2,1,0,1,0,48981.9,0.493203,0.492899,0.228016,74,0.0292227,10,0.000112389,-3.64204,2.27478,0.0259366,0.492799,
2,1,0,0,0,48985.7,0.512181,0.511868,0.231777,74,0.0301257,10,0.000118639,-3.63493,0.996247,0.0592223,0.511766,
2,1,0,1,0,48989.5,0.531158,0.530826,0.237894,74,0.0310458,10,0.00012628,-3.62362,0.974953,0.0605157,0.530721,
2,1,0,0,0,48993.3,0.550135,0.549841,0.24633,74,0.0319926,10,0.000135443,-3.60848,0.86782,0.0679864,0.549733,
2,1,0,1,0,48997.1,0.569112,0.56877,0.257928,74,0.0329775,10,0.000146702,-3.5885,0.94517,0.0624226,0.568657,
2,1,0,0,0,49000.9,0.588089,0.58776,0.278446,74,0.0340214,10,0.000163659,-3.55526,0.435518,0.135471,0.587638,
2,1,0,1,0,49004.7,0.607066,0.606752,0.311299,74,0.0351622,10,0.000188881,-3.50682,0.331327,0.178072,0.606615,
2,1,0,1,0,49008.5,0.626044,0.625725,0.370816,74,0.0364709,10,0.000232029,-3.43084,0.19821,0.297664,0.625562,
2,1,0,1,0,49012.2,0.64502,0.644719,0.491382,74,0.0381091,10,0.000316803,-3.30858,0.125733,0.469247,0.644503,
2,1,0,1,0,49016,0.663997,0.663728,0.738513,74,0.0404172,10,0.000490172,-3.13164,0.0928403,0.6355,0.663403,
2,1,0,1,0,49019.8,0.682974,0.682676,1.21635,74,0.0440669,10,0.000830372,-2.91494,0.0830641,0.710295,0.682141,
2,1,0,1,0,49023.6,0.701951,0.701691,2.03054,74,0.05014,10,0.00142481,-2.69239,0.0861836,0.684585,0.700798,
2,1,0,1,0,49027.4,0.720928,0.720628,3.2313,74,0.0600285,10,0.00232856,-2.49062,0.0991033,0.595339,0.719206,
2,1,0,1,0,49031.2,0.739905,0.739647,4.83697,74,0.0752344,10,0.00357765,-2.31543,0.109896,0.536871,0.737519,
2,1,0,0,0,49035,0.758883,0.758623,6.89087,74,0.0973658,10,0.00522757,-2.16173,0.12383,0.476458,0.755591,
2,1,0,1,0,49038.8,0.77786,0.777593,9.49329,74,0.128285,10,0.00738192,-2.02258,0.132067,0.446742,0.773416,
2,1,0,0,0,49042.6,0.796837,0.796575,12.9169,74,0.170532,10,0.0102893,-1.88884,0.130915,0.450674,0.790892,
2,1,0,1,0,49046.4,0.815814,0.81554,17.3784,74,0.227671,10,0.0141728,-1.75999,0.131833,0.447537,0.807893,
2,1,0,0,0,49050.2,0.834791,0.834521,22.808,74,0.303781,10,0.0190337,-1.64191,0.151559,0.389286,0.824485,
2,1,0,0,0,49053.9,0.846726,0.846462,26.054,74,0.397992,10,0.0220537,-1.58413,0.109981,0.536456,0.834998,
2,1,0,1,0,49057.7,0.827749,0.82751,19.3137,74,0.483419,10,0.0159823,-1.71413,0.124173,0.475144,0.819012,
2,1,0,1,0,49061.5,0.808772,0.808516,14.1453,74,0.546495,10,0.0114367,-1.84939,0.120085,0.491319,0.802292,
2,1,0,1,0,49065.3,0.789795,0.789514,10.1344,74,0.59219,10,0.00800126,-1.9942,0.119077,0.495477,0.785055,
2,1,0,1,0,49069.1,0.770818,0.770581,7.14362,74,0.624695,10,0.00550474,-2.14608,0.11381,0.518406,0.767438,
2,1,0,1,0,49072.9,0.751841,0.751531,4.88706,74,0.647277,10,0.00367277,-2.31095,0.105278,0.560423,0.74938,
2,1,0,1,0,49076.7,0.732865,0.732604,3.20279,74,0.662442,10,0.00234638,-2.49447,0.0924794,0.63798,0.731195,
2,1,0,0,0,49080.5,0.713887,0.713591,1.95726,74,0.672081,10,0.00139668,-2.70835,0.0802448,0.73525,0.71273,
2,1,0,1,0,49084.3,0.69491,0.69464,1.07615,74,0.677699,10,0.000747536,-2.96813,0.0650932,0.906392,0.694166,
2,1,0,0,0,49088.1,0.675933,0.675664,0.506264,74,0.680583,10,0.000342064,-3.29562,0.051565,1.14419,0.675441,
2,1,0,1,0,49091.9,0.656956,0.656645,0.180906,74,0.68179,10,0.000118791,-3.74255,0.0341201,1.72918,0.656566,
2,1,0,0,0,49095.6,0.637979,0.637684,0.018344,74,0.682098,10,1.16977e-05,-4.73651,0.00599954,9.8341,0.637676,
2,0,0,1,0,49099.4,0.619002,0.618692,-0.0534201,74,0.681981,10,-3.30506e-05,-4.2723,-0.0513846,-1.1482,0.618716,
2,0,0,0,0,49103.2,0.600024,0.59975,-0.0859048,74,0.681677,10,-5.15214e-05,-4.06598,-0.174346,-0.338407,0.599788,
2,0,0,1,0,49107,0.581047,0.580692,-0.101399,74,0.681287,10,-5.88817e-05,-3.99397,-0.507419,-0.116275,0.580737,
2,0,0,1,0,49110.8,0.56207,0.561769,-0.109876,74,0.680855,10,-6.17249e-05,-3.9591,-0.59242,-0.0995915,0.561818,
2,0,0,1,0,49114.6,0.543093,0.542754,-0.114731,74,0.680398,10,-6.22709e-05,-3.94032,-2.42002,-0.0243799,0.542805,
2,0,0,1,0,49118.4,0.524116,0.523747,-0.119484,74,0.679921,10,-6.25795e-05,-3.92269,-0.920052,-0.0641268,0.523799,
2,0,0,1,0,49122.2,0.505139,0.50486,-0.124104,74,0.679426,10,-6.26554e-05,-3.90621,-0.725398,-0.0813347,0.504915,
2,0,0,1,0,49126,0.486162,0.485836,-0.130018,74,0.678912,10,-6.31676e-05,-3.886,-1.00447,-0.0587376,0.485894,
2,0,0,1,0,49129.8,0.467185,0.466898,-0.135728,74,0.678376,10,-6.33712e-05,-3.86733,-2.05203,-0.0287521,0.466957,
2,0,0,1,0,49133.6,0.448208,0.447893,-0.14241,74,0.677816,10,-6.37844e-05,-3.84646,-1.69956,-0.0347148,0.447955,
2,0,0,0,0,49137.4,0.429231,0.428889,-0.150313,74,0.677227,10,-6.44678e-05,-3.823,-1.92955,-0.0305771,0.428955,
2,0,0,1,0,49141.2,0.410254,0.409948,-0.158814,74,0.676605,10,-6.51057e-05,-3.79911,-1.00553,-0.0586756,0.410018,
2,0,0,0,0,49145,0.391277,0.390919,-0.168094,74,0.675949,10,-6.57113e-05,-3.77445,-0.971733,-0.0607163,0.390993,
2,0,0,1,0,49148.8,0.3723,0.372011,-0.177179,74,0.675256,10,-6.59125e-05,-3.75159,-1.01761,-0.0579788,0.372089,
2,0,0,1,0,49152.6,0.353322,0.352978,-0.187925,74,0.674522,10,-6.63333e-05,-3.72602,-0.770521,-0.0765716,0.353061,
2,0,0,1,0,49156.4,0.334345,0.334029,-0.199003,74,0.673748,10,-6.64728e-05,-3.70114,-0.662142,-0.0891048,0.334117,
2,0,0,1,0,49160.2,0.315368,0.315033,-0.210384,74,0.67293,10,-6.6278e-05,-3.67699,-0.523332,-0.112739,0.315126,
2,0,0,1,0,49164,0.296391,0.296079,-0.222626,74,0.672068,10,-6.59149e-05,-3.65242,-0.621395,-0.0949476,0.296177,
2,0,0,1,0,49167.8,0.277414,0.277073,-0.233355,74,0.671159,10,-6.46563e-05,-3.63198,-0.570829,-0.103358,0.277176,
2,0,0,1,0,49171.6,0.258437,0.2581,-0.24627,74,0.670203,10,-6.35624e-05,-3.60859,-0.748051,-0.0788717,0.258209,
2,0,0,1,0,49175.4,0.239461,0.239163,-0.257856,74,0.669202,10,-6.16695e-05,-3.58862,-0.833659,-0.0707724,0.239276,
2,0,0,0,0,49179.1,0.220483,0.220163,-0.268879,74,0.668159,10,-5.91972e-05,-3.57044,-0.220486,-0.267591,0.220281,
2,0,0,1,0,49182.9,0.201506,0.201218,-0.281576,74,0.667066,10,-5.6658e-05,-3.5504,-0.61793,-0.09548,0.201342,
2,0,0,0,0,49186.7,0.182529,0.182205,-0.300523,74,0.665916,10,-5.47567e-05,-3.52212,-0.495048,-0.11918,0.182337,
2,0,0,1,0,49190.5,0.163552,0.163224,-0.331895,74,0.664675,10,-5.41733e-05,-3.479,-0.306379,-0.192572,0.16337,
2,0,0,0,0,49194.3,0.144575,0.144225,-0.419205,74,0.663233,10,-6.04598e-05,-3.37757,-0.113944,-0.517796,0.144409,
2,0,0,1,0,49198.1,0.125598,0.125263,-0.62369,74,0.661209,10,-7.81252e-05,-3.20503,-0.170631,-0.345775,0.125537,
2,0,0,1,0,49201.9,0.10662,0.106317,-0.681625,74,0.658627,10,-7.24686e-05,-3.16645,385.603,0.000153007,0.106617,
2,0,0,1,0,49205.7,0.0876433,0.0873066,-0.656857,74,0.656024,10,-5.73479e-05,-3.18253,0.873073,0.0675774,0.0875956,
2,0,0,1,0,49209.5,0.0686664,0.0683412,-0.61612,74,0.653555,10,-4.21063e-05,-3.21034,0.750632,0.0786005,0.0686122,
2,0,0,1,0,49213.3,0.0496895,0.0493653,-0.574174,74,0.651237,10,-2.83443e-05,-3.24096,0.522605,0.112896,0.049618,
2,0,0,1,0,49217.1,0.0307126,0.0303876,-0.528622,74,0.649087,10,-1.60635e-05,-3.27685,0.531196,0.11107,0.0306202,
2,0,0,1,0,49220.9,0.0117356,0.0114159,-0.498755,74,0.647092,10,-5.69373e-06,-3.30211,1.31677,0.0448067,0.0116353,
2,0,0,0,0,49223.2,0.000274105,-8.31532e-05,-0.499793,74,0.645917,10,4.15593e-08,-3.30121, , ,0.000136756,

File: 20221101_1-115_003_TrumpetPlot_ParaChange_from10_every3_16_CV_C01_74.csv
mode,ox/red,error,control changes,counter inc.,time/s,control/V,Ewe/V,<I>/mA,cycle number,(Q-Qo)/C,I Range,P/W,log(|I|),Tafel slope mV/dec,alpha_eff,E-IR/V,
2,0,0,0,0,49253.2,2.44065e-05,-0.000287149,-0.102574,75,0.0000000E+000,10,2.94541e-08,-3.98896, , ,-0.000242016,
2,1,0,1,0,49257,0.0187763,0.0184085,0.203263,75,0.000653124,10,3.74177e-06,-3.69194,0.151102,0.390466,0.0183191,
2,1,0,1,0,49260.8,0.0377538,0.0374124,0.267774,75,0.00159794,10,1.00181e-05,-3.57223,0.171185,0.344656,0.0372946,
2,1,0,0,0,49264.6,0.0567309,0.0563714,0.328218,75,0.00278803,10,1.85021e-05,-3.48384,0.303781,0.194219,0.056227,
2,1,0,1,0,49268.4,0.075708,0.0754142,0.37344,75,0.0041823,10,2.81627e-05,-3.42778,0.427823,0.137907,0.0752499,
2,1,0,0,0,49272.2,0.094685,0.0943552,0.427432,75,0.00574393,10,4.03304e-05,-3.36913,0.244147,0.241658,0.0941671,
2,1,0,1,0,49276,0.113662,0.113327,0.520868,75,0.00759232,10,5.90284e-05,-3.28327,0.311595,0.189349,0.113098,
2,1,0,0,0,49279.8,0.132639,0.132294,0.560942,75,0.00971939,10,7.42094e-05,-3.25108,-0.69503,-0.0848884,0.132048,
2,1,0,1,0,49283.6,0.151617,0.151254,0.373079,75,0.0116103,10,5.64296e-05,-3.4282,-0.0779049,-0.757334,0.15109,
2,1,0,1,0,49287.4,0.170594,0.170268,0.280229,75,0.0128424,10,4.77139e-05,-3.55249,-0.32282,-0.182764,0.170144,
2,1,0,1,0,49291.2,0.189571,0.189211,0.260016,75,0.0139065,10,4.91978e-05,-3.585,-0.630783,-0.0935345,0.189096,
2,1,0,1,0,49295,0.208547,0.208196,0.250765,75,0.0149209,10,5.22084e-05,-3.60073,-0.899188,-0.0656147,0.208086,
2,1,0,1,0,49298.7,0.227524,0.227205,0.244849,75,0.0159081,10,5.56309e-05,-3.6111,-2.89179,-0.0204026,0.227097,
2,1,0,1,0,49302.5,0.246501,0.246209,0.241652,75,0.0168762,10,5.9497e-05,-3.61681,-1.00286,-0.0588316,0.246103,
2,1,0,0,0,49306.3,0.265479,0.265135,0.237872,75,0.0178295,10,6.30682e-05,-3.62366,-1.48357,-0.0397689,0.26503,
2,1,0,1,0,49310.1,0.284456,0.284106,0.234125,75,0.0187682,10,6.65165e-05,-3.63055,-1.87789,-0.0314183,0.284003,
2,1,0,0,0,49313.9,0.303433,0.303117,0.229595,75,0.0196901,10,6.95942e-05,-3.63904,-3.12408,-0.0188856,0.303016,
2,1,0,1,0,49317.7,0.32241,0.322134,0.226516,75,0.0205971,10,7.29685e-05,-3.6449,-4.46104,-0.0132256,0.322034,
2,1,0,0,0,49321.5,0.341387,0.341093,0.223896,75,0.0214918,10,7.63692e-05,-3.64995,-2.38362,-0.0247523,0.340994,
2,1,0,1,0,49325.3,0.360364,0.360037,0.22236,75,0.022377,10,8.00578e-05,-3.65294,-1.77256,-0.0332851,0.359939,
2,1,0,1,0,49329.1,0.379342,0.378977,0.219557,75,0.0232522,10,8.3207e-05,-3.65845,-21.2431,-0.00277738,0.378881,
2,1,0,1,0,49332.9,0.398319,0.398028,0.218042,75,0.0241211,10,8.67868e-05,-3.66146,-2.56825,-0.0229728,0.397932,
2,1,0,1,0,49336.7,0.417295,0.416992,0.218253,75,0.0249852,10,9.10098e-05,-3.66104,4.31581,0.0136707,0.416896,
2,1,0,1,0,49340.5,0.436272,0.435957,0.218116,75,0.0258471,10,9.50891e-05,-3.66131,13.1572,0.00448422,0.435861,
2,1,0,1,0,49344.3,0.455249,0.454938,0.217906,75,0.0267064,10,9.91339e-05,-3.66173,1.1553,0.0510688,0.454842,
2,1,0,1,0,49348.1,0.474226,0.473899,0.219709,75,0.0275685,10,0.00010412,-3.65815,2.71804,0.0217068,0.473802,
2,1,0,1,0,49351.9,0.493203,0.492891,0.222063,75,0.0284378,10,0.000109453,-3.65352,1.95444,0.0301877,0.492793,
2,1,0,0,0,49355.7,0.512181,0.511866,0.226166,75,0.0293206,10,0.000115767,-3.64557,1.78775,0.0330025,0.511766,
2,1,0,1,0,49359.5,0.531158,0.530852,0.23212,75,0.0302209,10,0.000123221,-3.63429,1.40869,0.041883,0.53075,
2,1,0,0,0,49363.3,0.550135,0.549833,0.240636,75,0.0311472,10,0.000132309,-3.61864,1.11266,0.0530261,0.549727,
2,1,0,1,0,49367.1,0.569112,0.568813,0.253601,75,0.0321132,10,0.000144251,-3.59585,0.578721,0.101949,0.568701,
2,1,0,0,0,49370.9,0.588089,0.587773,0.273412,75,0.0331391,10,0.000160704,-3.56318,0.494887,0.119219,0.587653,
2,1,0,1,0,49374.7,0.607066,0.60677,0.305506,75,0.0342607,10,0.000185372,-3.51498,0.296447,0.199024,0.606636,
2,1,0,1,0,49378.5,0.626044,0.625763,0.36633,75,0.0355533,10,0.000229235,-3.43613,0.188415,0.313139,0.625601,
2,1,0,1,0,49382.2,0.64502,0.644745,0.490172,75,0.0371817,10,0.000316036,-3.30965,0.124511,0.473855,0.644529,
2,1,0,1,0,49386,0.663997,0.663704,0.74098,75,0.0394927,10,0.000491791,-3.13019,0.0909306,0.648847,0.663378,
2,1,0,1,0,49389.8,0.682974,0.682719,1.22653,75,0.0431668,10,0.000837379,-2.91132,0.0827295,0.713167,0.68218,
2,1,0,1,0,49393.6,0.701951,0.701654,2.04921,75,0.0492972,10,0.00143784,-2.68841,0.0851271,0.693081,0.700753,
2,1,0,1,0,49397.4,0.720928,0.720625,3.25827,75,0.0592757,10,0.00234799,-2.48701,0.0984768,0.599126,0.719191,
2,1,0,1,0,49401.2,0.739905,0.73963,4.86894,75,0.0745957,10,0.00360122,-2.31257,0.113442,0.52009,0.737488,
2,1,0,0,0,49405,0.758883,0.758599,6.93309,75,0.0968661,10,0.00525944,-2.15907,0.12313,0.479167,0.755549,
2,1,0,1,0,49408.8,0.77786,0.777589,9.57366,75,0.128009,10,0.00744437,-2.01892,0.130302,0.452794,0.773376,
2,1,0,0,0,49412.6,0.796837,0.796583,13.4466,75,0.17116,10,0.0107113,-1.87139,0.123644,0.477177,0.790666,
2,1,0,1,0,49416.4,0.815814,0.815508,18.1616,75,0.230846,10,0.0148109,-1.74085,0.134909,0.43733,0.807517,
2,1,0,0,0,49420.2,0.834791,0.834551,23.8601,75,0.31036,10,0.0199125,-1.62233,0.148322,0.397782,0.824052,
2,1,0,0,0,49423.9,0.846726,0.846496,26.9554,75,0.408511,10,0.0228176,-1.56935,0.103074,0.572406,0.834636,
2,1,0,1,0,49427.7,0.827749,0.827488,19.9992,75,0.496856,10,0.0165491,-1.69899,0.121976,0.4837,0.818689,
2,1,0,1,0,49431.5,0.808772,0.808526,14.6217,75,0.562147,10,0.011822,-1.835,0.118012,0.499948,0.802093,
2,1,0,1,0,49435.3,0.789795,0.78947,10.4763,75,0.609382,10,0.00827071,-1.97979,0.114574,0.514951,0.78486,
2,1,0,1,0,49439.1,0.770818,0.770529,7.33802,75,0.642834,10,0.00565415,-2.13442,0.112361,0.525095,0.7673,
2,1,0,1,0,49442.9,0.751841,0.751547,5.01738,75,0.66603,10,0.00377079,-2.29952,0.107824,0.54719,0.749339,
2,1,0,1,0,49446.7,0.732865,0.732592,3.2822,75,0.681592,10,0.00240451,-2.48384,0.0940695,0.627196,0.731148,
2,1,0,0,0,49450.5,0.713887,0.713594,2.00757,75,0.69147,10,0.00143259,-2.69733,0.0793529,0.743514,0.712711,
2,1,0,1,0,49454.3,0.69491,0.694672,1.10991,75,0.697246,10,0.000771023,-2.95471,0.0659228,0.894987,0.694184,
2,1,0,0,0,49458.1,0.675933,0.675656,0.522539,75,0.700222,10,0.000353057,-3.28188,0.0515716,1.14404,0.675426,
2,1,0,1,0,49461.9,0.656956,0.656716,0.185852,75,0.701468,10,0.000122052,-3.73083,0.0336435,1.75368,0.656635,
2,1,0,0,0,49465.6,0.637979,0.637688,0.0190404,75,0.701785,10,1.21418e-05,-4.72032,0.00629371,9.37444,0.63768,
2,0,0,1,0,49469.4,0.619002,0.618686,-0.0553474,75,0.701664,10,-3.42426e-05,-4.2569,-0.0500337,-1.17921,0.61871,
2,0,0,0,0,49473.2,0.600024,0.599716,-0.0884752,75,0.70135,10,-5.306e-05,-4.05318,-0.207883,-0.283814,0.599755,
2,0,0,1,0,49477,0.581047,0.580758,-0.104387,75,0.700947,10,-6.06233e-05,-3.98136,-0.385599,-0.153009,0.580804,
2,0,0,1,0,49480.8,0.56207,0.56178,-0.112462,75,0.7005,10,-6.31791e-05,-3.94899,-0.64038,-0.0921328,0.56183,
2,0,0,1,0,49484.6,0.543093,0.542766,-0.119319,75,0.700027,10,-6.47622e-05,-3.92329,-0.621518,-0.0949289,0.542818,
2,0,0,1,0,49488.4,0.524116,0.523829,-0.123882,75,0.699534,10,-6.48928e-05,-3.90699,-0.705546,-0.0836232,0.523883,
2,0,0,1,0,49492.2,0.505139,0.504864,-0.128436,75,0.699022,10,-6.48429e-05,-3.89131,-0.978262,-0.060311,0.504921,
2,0,0,1,0,49496,0.486162,0.485869,-0.13395,75,0.698491,10,-6.5082e-05,-3.87306,-0.979453,-0.0602377,0.485928,
2,0,0,1,0,49499.8,0.467185,0.46689,-0.139499,75,0.697939,10,-6.51309e-05,-3.85543,27.6805,0.00213146,0.466951,
2,0,0,1,0,49503.6,0.448208,0.447872,-0.146602,75,0.697361,10,-6.56589e-05,-3.83386,-0.87217,-0.0676473,0.447937,
2,0,0,0,0,49507.4,0.429231,0.428923,-0.153875,75,0.696754,10,-6.60005e-05,-3.81283,-5.17026,-0.0114114,0.428991,
2,0,0,1,0,49511.2,0.410254,0.409967,-0.163218,75,0.696115,10,-6.6914e-05,-3.78723,-1.38289,-0.0426643,0.410039,
2,0,0,0,0,49515,0.391277,0.390947,-0.172036,75,0.695441,10,-6.72568e-05,-3.76438,-0.663687,-0.0888974,0.391022,
2,0,0,1,0,49518.8,0.3723,0.371972,-0.182228,75,0.694729,10,-6.77838e-05,-3.73938,-1.21365,-0.0486139,0.372052,
2,0,0,1,0,49522.6,0.353322,0.353029,-0.191268,75,0.693979,10,-6.75232e-05,-3.71836,-0.672237,-0.0877666,0.353113,
2,0,0,1,0,49526.4,0.334345,0.334064,-0.202277,75,0.693189,10,-6.75736e-05,-3.69405,-0.905695,-0.0651433,0.334153,
2,0,0,1,0,49530.2,0.315368,0.315057,-0.213594,75,0.692357,10,-6.72943e-05,-3.67041,-0.858826,-0.0686984,0.315151,
2,0,0,1,0,49534,0.296391,0.2961,-0.226527,75,0.69148,10,-6.70744e-05,-3.64488,-0.787527,-0.0749181,0.296199,
2,0,0,1,0,49537.8,0.277414,0.2771,-0.238419,75,0.690557,10,-6.60659e-05,-3.62266,-0.691619,-0.0853071,0.277205,
2,0,0,1,0,49541.6,0.258437,0.258174,-0.250535,75,0.689586,10,-6.46817e-05,-3.60113,-0.843274,-0.0699654,0.258285,
2,0,0,1,0,49545.4,0.239461,0.239137,-0.260934,75,0.68857,10,-6.23989e-05,-3.58347,-0.791722,-0.0745211,0.239252,
2,0,0,0,0,49549.1,0.220483,0.2202,-0.273109,75,0.687511,10,-6.01386e-05,-3.56366,-0.727016,-0.0811536,0.22032,
2,0,0,1,0,49552.9,0.201506,0.201162,-0.285863,75,0.686404,10,-5.7505e-05,-3.54384,-0.50429,-0.116996,0.201288,
2,0,0,0,0,49556.7,0.182529,0.182214,-0.303924,75,0.685238,10,-5.53792e-05,-3.51724,-0.447543,-0.131831,0.182348,
2,0,0,1,0,49560.5,0.163552,0.163189,-0.334926,75,0.683982,10,-5.46564e-05,-3.47505,-0.330249,-0.178653,0.163337,
2,0,0,0,0,49564.3,0.144575,0.1443,-0.423025,75,0.682525,10,-6.10427e-05,-3.37363,-0.115181,-0.512236,0.144486,
2,0,0,1,0,49568.1,0.125598,0.125265,-0.629977,75,0.680479,10,-7.89141e-05,-3.20068,-0.166028,-0.355361,0.125542,
2,0,0,1,0,49571.9,0.10662,0.106276,-0.685997,75,0.67787,10,-7.2905e-05,-3.16368,2.81911,0.0209286,0.106578,
2,0,0,1,0,49575.7,0.0876433,0.0873394,-0.660661,75,0.675247,10,-5.77017e-05,-3.18002,0.757254,0.0779131,0.0876301,
2,0,0,1,0,49579.5,0.0686664,0.068373,-0.619277,75,0.672764,10,-4.23418e-05,-3.20812,0.676975,0.0871524,0.0686455,
2,0,0,1,0,49583.3,0.0496895,0.0492657,-0.57577,75,0.670437,10,-2.83657e-05,-3.23975,0.537047,0.10986,0.049519,
2,0,0,1,0,49587.1,0.0307126,0.0304372,-0.527261,75,0.668287,10,-1.60483e-05,-3.27797,0.584509,0.100939,0.0306692,
2,0,0,1,0,49590.9,0.0117356,0.0114116,-0.497758,75,0.666295,10,-5.68022e-06,-3.30298,1.5677,0.0376348,0.0116306,
2,0,0,0,0,49593.2,0.000274105,-7.71884e-05,-0.498974,75,0.665121,10,3.8515e-08,-3.30192, , ,0.00014236,