Folder: Figs_alphaMnO2_OER_Tafel_sleope/Figure_codes/Fig_3-5/workspace_calculate_alpha_eff (part 43)

File: 20221101_1-115_003_TrumpetPlot_ParaChange_from10_every3_16_CV_C01_77.csv
mode,ox/red,error,control changes,counter inc.,time/s,control/V,Ewe/V,<I>/mA,cycle number,(Q-Qo)/C,I Range,P/W,log(|I|),Tafel slope mV/dec,alpha_eff,E-IR/V,
2,0,0,0,0,51223.4,2.44065e-05,-0.000306236,-0.108935,78,0.0000000E+000,10,3.33597e-08,-3.96283, , ,-0.000258305,
2,1,0,1,0,51227.1,0.0187763,0.0184149,0.203534,78,0.000663541,10,3.74805e-06,-3.69136,0.142836,0.413062,0.0183253,
2,1,0,1,0,51230.9,0.0377538,0.0374039,0.267766,78,0.00161682,10,1.00155e-05,-3.57225,0.163532,0.360785,0.0372861,
2,1,0,0,0,51234.7,0.0567309,0.0563375,0.329324,78,0.00281412,10,1.85533e-05,-3.48238,0.256416,0.230095,0.0561926,
2,1,0,1,0,51238.5,0.075708,0.075341,0.374863,78,0.00421674,10,2.82426e-05,-3.42613,0.390608,0.151047,0.0751761,
2,1,0,0,0,51242.3,0.094685,0.0943255,0.42859,78,0.00578772,10,4.0427e-05,-3.36796,0.246401,0.239447,0.0941369,
2,1,0,1,0,51246.1,0.113662,0.113362,0.523101,78,0.00765377,10,5.92998e-05,-3.28141,0.331004,0.178245,0.113132,
2,1,0,0,0,51249.9,0.132639,0.132332,0.556876,78,0.00978737,10,7.36922e-05,-3.25424,-0.596577,-0.0988976,0.132086,
2,1,0,1,0,51253.7,0.151617,0.151287,0.363129,78,0.0116574,10,5.49365e-05,-3.43994,-0.0795639,-0.741542,0.151127,
2,1,0,1,0,51257.5,0.170594,0.170276,0.274132,78,0.0128695,10,4.66781e-05,-3.56204,-0.368367,-0.160166,0.170156,
2,1,0,1,0,51261.3,0.189571,0.189177,0.256025,78,0.0139239,10,4.8434e-05,-3.59172,-1.26717,-0.0465605,0.189064,
2,1,0,1,0,51265.1,0.208547,0.208224,0.249805,78,0.0149347,10,5.20154e-05,-3.6024,-1.35659,-0.0434914,0.208114,
2,1,0,1,0,51268.9,0.227524,0.227197,0.243447,78,0.0159194,10,5.53105e-05,-3.6136,-1.80331,-0.0327176,0.22709,
2,1,0,1,0,51272.7,0.246501,0.246154,0.240054,78,0.0168878,10,5.90903e-05,-3.61969,-0.801719,-0.0735919,0.246049,
2,1,0,0,0,51276.5,0.265479,0.265174,0.236674,78,0.0178415,10,6.27597e-05,-3.62585,-1.27522,-0.0462665,0.26507,
2,1,0,1,0,51280.3,0.284456,0.284088,0.231809,78,0.0187793,10,6.58543e-05,-3.63487,-2.45052,-0.0240765,0.283986,
2,1,0,0,0,51284.1,0.303433,0.303098,0.228592,78,0.0197,10,6.92859e-05,-3.64094,-1.92043,-0.0307223,0.302998,
2,1,0,1,0,51287.9,0.32241,0.322068,0.226055,78,0.0206074,10,7.28052e-05,-3.64578,-1.71947,-0.0343128,0.321968,
2,1,0,0,0,51291.7,0.341387,0.341032,0.222721,78,0.0215027,10,7.5955e-05,-3.65224,-5.31366,-0.0111035,0.340934,
2,1,0,1,0,51295.4,0.360364,0.360043,0.221138,78,0.0223867,10,7.96192e-05,-3.65534,-10.8354,-0.00544513,0.359946,
2,1,0,1,0,51299.2,0.379342,0.37904,0.219371,78,0.0232622,10,8.31505e-05,-3.65882,5.11743,0.0115292,0.378943,
2,1,0,1,0,51303,0.398319,0.397959,0.218053,78,0.0241312,10,8.67761e-05,-3.66144,2.53286,0.0232938,0.397863,
2,1,0,1,0,51306.8,0.417295,0.416983,0.216273,78,0.0249941,10,9.01821e-05,-3.665,-4.21698,-0.0139911,0.416888,
2,1,0,1,0,51310.6,0.436272,0.435967,0.215992,78,0.0258518,10,9.41656e-05,-3.66556,2.82022,0.0209204,0.435872,
2,1,0,1,0,51314.4,0.455249,0.454899,0.216135,78,0.0267082,10,9.83195e-05,-3.66528,1.57331,0.0375005,0.454804,
2,1,0,1,0,51318.2,0.474226,0.473891,0.21787,78,0.0275666,10,0.000103246,-3.6618,2.28631,0.0258058,0.473795,
2,1,0,1,0,51322,0.493203,0.492909,0.219808,78,0.0284314,10,0.000108345,-3.65796,1.21808,0.048437,0.492812,
2,1,0,0,0,51325.8,0.512181,0.511841,0.224449,78,0.0293075,10,0.000114882,-3.64888,1.06877,0.0552037,0.511743,
2,1,0,1,0,51329.6,0.531158,0.530882,0.230452,78,0.0302017,10,0.000122343,-3.63742,7.22143,0.00817013,0.530781,
2,1,0,0,0,51333.4,0.550135,0.54979,0.238479,78,0.0311223,10,0.000131113,-3.62255,0.62025,0.095123,0.549685,
2,1,0,1,0,51337.2,0.569112,0.568826,0.251155,78,0.0320804,10,0.000142863,-3.60006,0.824788,0.0715335,0.568715,
2,1,0,0,0,51341,0.588089,0.587776,0.269815,78,0.0330957,10,0.000158591,-3.56893,0.46682,0.126387,0.587657,
2,1,0,1,0,51344.8,0.607066,0.606788,0.302318,78,0.0342049,10,0.000183443,-3.51954,0.31103,0.189692,0.606655,
2,1,0,1,0,51348.6,0.626044,0.625755,0.360167,78,0.0354793,10,0.000225376,-3.4435,0.192499,0.306495,0.625597,
2,1,0,1,0,51352.4,0.64502,0.644719,0.477063,78,0.037073,10,0.000307572,-3.32142,0.126143,0.467723,0.644509,
2,1,0,1,0,51356.2,0.663997,0.663705,0.716776,78,0.0393178,10,0.000475727,-3.14462,0.0940249,0.627493,0.663389,
2,1,0,1,0,51360,0.682974,0.682697,1.18421,78,0.0428696,10,0.000808456,-2.92657,0.0823868,0.716134,0.682176,
2,1,0,1,0,51363.8,0.701951,0.701662,1.98356,78,0.0487948,10,0.00139179,-2.70255,0.0867523,0.680097,0.700789,
2,1,0,1,0,51367.6,0.720928,0.720628,3.17424,78,0.058488,10,0.00228744,-2.49836,0.0956701,0.616703,0.719231,
2,1,0,1,0,51371.4,0.739905,0.739625,4.80303,78,0.0735236,10,0.00355244,-2.31848,0.10923,0.540145,0.737512,
2,1,0,0,0,51375.2,0.758883,0.758596,6.90964,78,0.0956105,10,0.00524163,-2.16054,0.118935,0.496071,0.755556,
2,1,0,1,0,51378.9,0.77786,0.777552,9.64331,78,0.126823,10,0.00749817,-2.01577,0.125072,0.47173,0.773309,
2,1,0,0,0,51382.7,0.796837,0.796565,13.287,78,0.170024,10,0.010584,-1.87657,0.1232,0.478895,0.790719,
2,1,0,1,0,51386.5,0.815814,0.815533,18.2132,78,0.229421,10,0.0148535,-1.73961,0.124066,0.475552,0.807519,
2,1,0,0,0,51390.3,0.834791,0.834485,24.2909,78,0.309845,10,0.0202704,-1.61456,0.140158,0.420952,0.823797,
2,1,0,0,0,51394,0.846726,0.846469,27.8858,78,0.410739,10,0.0236044,-1.55462,0.103005,0.572788,0.834199,
2,1,0,1,0,51397.8,0.827749,0.82747,20.4126,78,0.501561,10,0.0168908,-1.6901,0.122961,0.479826,0.818488,
2,1,0,1,0,51401.6,0.808772,0.808479,14.0057,78,0.565149,10,0.0113233,-1.8537,0.122026,0.483505,0.802317,
2,1,0,1,0,51405.4,0.789795,0.789494,10.0605,78,0.610454,10,0.00794267,-1.99738,0.122341,0.482258,0.785067,
2,1,0,1,0,51409.2,0.770818,0.77051,7.09315,78,0.642733,10,0.00546534,-2.14916,0.112911,0.522536,0.767389,
2,1,0,1,0,51413,0.751841,0.75151,4.86064,78,0.665184,10,0.00365282,-2.31331,0.105524,0.559113,0.749372,
2,1,0,1,0,51416.8,0.732865,0.732552,3.18853,78,0.680276,10,0.00233576,-2.49641,0.0930841,0.633836,0.731149,
2,1,0,0,0,51420.6,0.713887,0.713624,1.94922,78,0.689873,10,0.00139101,-2.71014,0.0799054,0.738373,0.712766,
2,1,0,1,0,51424.4,0.69491,0.694621,1.07025,78,0.695466,10,0.00074342,-2.97051,0.0632608,0.932647,0.69415,
2,1,0,0,0,51428.2,0.675933,0.675615,0.500324,78,0.698326,10,0.000338026,-3.30075,0.0496253,1.18891,0.675395,
2,1,0,1,0,51432,0.656956,0.656668,0.174812,78,0.699512,10,0.000114794,-3.75743,0.0320934,1.83839,0.656591,
2,1,0,0,0,51435.8,0.637979,0.637663,0.0126933,78,0.699799,10,8.09407e-06,-4.89642,0.00364304,16.1953,0.637657,
2,0,0,1,0,51439.6,0.619002,0.618699,-0.058766,78,0.699664,10,-3.63585e-05,-4.23087,-0.0567199,-1.0402,0.618724,
2,0,0,0,0,51443.4,0.600024,0.599734,-0.0906177,78,0.699342,10,-5.43465e-05,-4.04279,-0.2083,-0.283245,0.599774,
2,0,0,1,0,51447.2,0.581047,0.580727,-0.106202,78,0.698934,10,-6.16745e-05,-3.97387,-0.582051,-0.101366,0.580774,
2,0,0,1,0,51451,0.56207,0.56174,-0.113554,78,0.698485,10,-6.3788e-05,-3.9448,-0.939334,-0.0628105,0.56179,
2,0,0,1,0,51454.8,0.543093,0.542794,-0.118615,78,0.698013,10,-6.43836e-05,-3.92586,-0.744797,-0.0792163,0.542846,
2,0,0,1,0,51458.6,0.524116,0.523786,-0.123706,78,0.697521,10,-6.47955e-05,-3.90761,-2.72126,-0.0216811,0.523841,
2,0,0,1,0,51462.3,0.505139,0.504803,-0.129002,78,0.69701,10,-6.51207e-05,-3.8894,-0.790194,-0.0746652,0.50486,
2,0,0,1,0,51466.1,0.486162,0.485794,-0.133953,78,0.696481,10,-6.50735e-05,-3.87305,-0.917612,-0.0642973,0.485853,
2,0,0,1,0,51469.9,0.467185,0.466868,-0.139486,78,0.69593,10,-6.51215e-05,-3.85547,-2.11084,-0.027951,0.466929,
2,0,0,1,0,51473.7,0.448208,0.447881,-0.146132,78,0.695354,10,-6.54498e-05,-3.83525,-1.05004,-0.0561882,0.447945,
2,0,0,0,0,51477.5,0.429231,0.428893,-0.154034,78,0.694749,10,-6.60641e-05,-3.81238,-1.09842,-0.0537133,0.428961,
2,0,0,1,0,51481.3,0.410254,0.409875,-0.162413,78,0.694111,10,-6.65689e-05,-3.78938,-1.66444,-0.0354473,0.409946,
2,0,0,0,0,51485.1,0.391277,0.390951,-0.17183,78,0.693439,10,-6.71769e-05,-3.7649,-1.53214,-0.0385083,0.391026,
2,0,0,1,0,51488.9,0.3723,0.371954,-0.181083,78,0.69273,10,-6.73546e-05,-3.74212,-1.10761,-0.0532677,0.372033,
2,0,0,1,0,51492.7,0.353322,0.352984,-0.191406,78,0.691982,10,-6.75633e-05,-3.71804,-0.596634,-0.0988881,0.353068,
2,0,0,1,0,51496.5,0.334345,0.334027,-0.203206,78,0.691192,10,-6.78761e-05,-3.69206,-1.29178,-0.0456733,0.334116,
2,0,0,1,0,51500.3,0.315368,0.315026,-0.212995,78,0.690361,10,-6.7099e-05,-3.67163,-0.676933,-0.0871578,0.31512,
2,0,0,1,0,51504.1,0.296391,0.296074,-0.225644,78,0.689484,10,-6.68075e-05,-3.64658,-0.534448,-0.110394,0.296173,
2,0,0,1,0,51507.9,0.277414,0.27707,-0.236692,78,0.688563,10,-6.55803e-05,-3.62582,-0.71601,-0.0824011,0.277174,
2,0,0,1,0,51511.7,0.258437,0.258114,-0.24892,78,0.687595,10,-6.42498e-05,-3.60394,-0.901574,-0.0654411,0.258224,
2,0,0,1,0,51515.5,0.239461,0.239088,-0.260463,78,0.686583,10,-6.22737e-05,-3.58425,-0.930786,-0.0633873,0.239203,
2,0,0,0,0,51519.3,0.220483,0.220162,-0.271286,78,0.685528,10,-5.97268e-05,-3.56657,-0.671072,-0.0879191,0.220281,
2,0,0,1,0,51523.1,0.201506,0.201152,-0.284641,78,0.684424,10,-5.72561e-05,-3.5457,-0.601601,-0.0980717,0.201277,
2,0,0,0,0,51526.9,0.182529,0.182232,-0.302653,78,0.683261,10,-5.51532e-05,-3.51905,-0.488731,-0.120721,0.182365,
2,0,0,1,0,51530.7,0.163552,0.163214,-0.334308,78,0.68201,10,-5.45636e-05,-3.47585,-0.320755,-0.183941,0.163361,
2,0,0,0,0,51534.5,0.144575,0.144218,-0.418847,78,0.680563,10,-6.04051e-05,-3.37794,-0.115066,-0.512747,0.144402,
2,0,0,1,0,51538.3,0.125598,0.125261,-0.623724,78,0.678535,10,-7.81281e-05,-3.20501,-0.163284,-0.361333,0.125535,
2,0,0,1,0,51542.1,0.10662,0.106307,-0.682829,78,0.675943,10,-7.25893e-05,-3.16569,4.43827,0.0132935,0.106607,
2,0,0,1,0,51545.8,0.0876433,0.0873266,-0.657781,78,0.673331,10,-5.74418e-05,-3.18192,0.6219,0.0948706,0.0876161,
2,0,0,1,0,51549.6,0.0686664,0.0683114,-0.616953,78,0.670856,10,-4.21449e-05,-3.20975,0.647804,0.0910769,0.0685829,
2,0,0,1,0,51553.4,0.0496895,0.0493602,-0.573256,78,0.668534,10,-2.8296e-05,-3.24165,0.535663,0.110144,0.0496124,
2,0,0,1,0,51557.2,0.0307126,0.0303587,-0.526238,78,0.666388,10,-1.59759e-05,-3.27882,0.585531,0.100763,0.0305903,
2,0,0,1,0,51561,0.0117356,0.0113883,-0.49746,78,0.664397,10,-5.6652e-06,-3.30324,1.56684,0.0376553,0.0116071,
2,0,0,0,0,51563.3,0.000274105,-0.000145187,-0.500434,78,0.663223,10,7.26564e-08,-3.30065, , ,7.50039e-05,

File: 20221101_1-115_003_TrumpetPlot_ParaChange_from10_every3_16_CV_C01_78.csv
mode,ox/red,error,control changes,counter inc.,time/s,control/V,Ewe/V,<I>/mA,cycle number,(Q-Qo)/C,I Range,P/W,log(|I|),Tafel slope mV/dec,alpha_eff,E-IR/V,
2,0,0,1,0,52453.5,2.44065e-05,-0.000325324,-0.0529637,79,0.0000000E+000,10,1.72303e-08,-4.27602, , ,-0.000302019,
2,1,0,1,0,52457.3,0.0187763,0.0184455,0.261577,79,0.000873418,10,4.8249e-06,-3.5824,0.183807,0.32099,0.0183304,
2,1,0,0,0,52461.1,0.0377538,0.0374018,0.32392,79,0.00203973,10,1.21152e-05,-3.48956,0.230862,0.255564,0.0372593,
2,1,0,1,0,52464.8,0.0567309,0.0564011,0.381356,79,0.00344072,10,2.15089e-05,-3.41867,0.371339,0.158884,0.0562333,
2,1,0,0,0,52468.6,0.075708,0.0753347,0.424826,79,0.00503529,10,3.20041e-05,-3.37179,0.636107,0.0927517,0.0751478,
2,1,0,1,0,52472.4,0.094685,0.0943255,0.474379,79,0.00677995,10,4.4746e-05,-3.32387,0.274319,0.215078,0.0941168,
2,1,0,0,0,52476.2,0.113662,0.113357,0.564683,79,0.00880782,10,6.40106e-05,-3.24819,0.367387,0.160594,0.113108,
2,1,0,1,0,52480,0.132639,0.13228,0.598862,79,0.0110946,10,7.92172e-05,-3.22267,-0.579301,-0.101847,0.132016,
2,1,0,1,0,52483.8,0.151617,0.151314,0.404835,79,0.0131158,10,6.12574e-05,-3.39272,-0.0869473,-0.678572,0.151136,
2,1,0,1,0,52487.6,0.170594,0.170266,0.31754,79,0.0144838,10,5.40661e-05,-3.4982,-0.327838,-0.179967,0.170126,
2,1,0,1,0,52491.4,0.189571,0.189251,0.30002,79,0.015695,10,5.67792e-05,-3.52285,-1.89978,-0.0310562,0.189119,
2,1,0,1,0,52495.2,0.208547,0.208185,0.292947,79,0.0168645,10,6.09873e-05,-3.53321,-1.66999,-0.0353295,0.208057,
2,1,0,1,0,52499,0.227524,0.227207,0.287087,79,0.0180123,10,6.52282e-05,-3.54199,-1.44984,-0.0406942,0.227081,
2,1,0,1,0,52502.8,0.246501,0.246185,0.283129,79,0.0191429,10,6.9702e-05,-3.54802,-1.01769,-0.0579743,0.24606,
2,1,0,1,0,52506.6,0.265479,0.265178,0.281102,79,0.0202591,10,7.4542e-05,-3.55114,-2.04638,-0.0288314,0.265054,
2,1,0,0,0,52510.4,0.284456,0.28418,0.276599,79,0.0213603,10,7.86039e-05,-3.55815,-4.11764,-0.0143286,0.284058,
2,1,0,1,0,52514.2,0.303433,0.30312,0.272153,79,0.0224453,10,8.24949e-05,-3.56519,-2.07053,-0.0284951,0.303,
2,1,0,0,0,52518,0.32241,0.322085,0.268742,79,0.0235158,10,8.65577e-05,-3.57066,-3.96858,-0.0148668,0.321967,
2,1,0,1,0,52521.8,0.341387,0.341073,0.26561,79,0.0245717,10,9.05923e-05,-3.57576,-2.80456,-0.0210372,0.340956,
2,1,0,0,0,52525.6,0.360364,0.360068,0.264559,79,0.0256166,10,9.52591e-05,-3.57748,-19.4173,-0.00303853,0.359951,
2,1,0,1,0,52529.4,0.379342,0.379028,0.26129,79,0.0266523,10,9.90362e-05,-3.58288,20.5932,0.00286502,0.378913,
2,1,0,1,0,52533.2,0.398319,0.398011,0.25977,79,0.0276791,10,0.000103391,-3.58541,17.1112,0.00344802,0.397897,
2,1,0,1,0,52537,0.417295,0.416987,0.257032,79,0.0286981,10,0.000107179,-3.59001,-15.5941,-0.00378347,0.416874,
2,1,0,1,0,52540.8,0.436272,0.435957,0.256378,79,0.0297098,10,0.00011177,-3.59112,2.67097,0.0220894,0.435844,
2,1,0,1,0,52544.6,0.455249,0.454919,0.256612,79,0.0307181,10,0.000116738,-3.59072,2.99047,0.0197294,0.454806,
2,1,0,1,0,52548.3,0.474226,0.473884,0.256769,79,0.0317259,10,0.000121679,-3.59046,1.17227,0.0503298,0.473771,
2,1,0,1,0,52552.1,0.493203,0.492907,0.259192,79,0.0327372,10,0.000127758,-3.58638,2.1499,0.0274431,0.492793,
2,1,0,1,0,52555.9,0.512181,0.511864,0.262474,79,0.0337576,10,0.000134351,-3.58091,2.6856,0.021969,0.511748,
2,1,0,0,0,52559.7,0.531158,0.530875,0.267941,79,0.0347945,10,0.000142243,-3.57196,1.96934,0.0299592,0.530757,
2,1,0,1,0,52563.5,0.550135,0.549827,0.275862,79,0.0358551,10,0.000151676,-3.55931,1.26517,0.0466342,0.549706,
2,1,0,0,0,52567.3,0.569112,0.568801,0.28654,79,0.0369502,10,0.000162984,-3.54281,0.639311,0.0922869,0.568675,
2,1,0,1,0,52571.1,0.588089,0.587753,0.305147,79,0.0381006,10,0.000179351,-3.51549,0.513402,0.11492,0.587618,
2,1,0,0,0,52574.9,0.607066,0.606775,0.337335,79,0.0393432,10,0.000204686,-3.47194,0.369438,0.159702,0.606627,
2,1,0,1,0,52578.7,0.626044,0.625779,0.396324,79,0.0407512,10,0.000248012,-3.40195,0.214585,0.27495,0.625605,
2,1,0,1,0,52582.5,0.64502,0.644762,0.513642,79,0.0424818,10,0.000331176,-3.28934,0.135917,0.434089,0.644536,
2,1,0,1,0,52586.3,0.663997,0.663698,0.75369,79,0.0448628,10,0.000500223,-3.12281,0.0965451,0.611114,0.663367,
2,1,0,1,0,52590.1,0.682974,0.682719,1.2161,79,0.0485455,10,0.000830254,-2.91503,0.085244,0.692131,0.682184,
2,1,0,1,0,52593.9,0.701951,0.701683,2.00709,79,0.0545775,10,0.00140834,-2.69743,0.0874776,0.674458,0.7008,
2,1,0,1,0,52597.7,0.720928,0.720628,3.17762,79,0.0643222,10,0.00228988,-2.4979,0.0979653,0.602254,0.71923,
2,1,0,1,0,52601.5,0.739905,0.73963,4.75307,79,0.0792718,10,0.00351551,-2.32303,0.111518,0.52906,0.737539,
2,1,0,1,0,52605.3,0.758883,0.758617,6.78241,79,0.101042,10,0.00514526,-2.16862,0.124398,0.474283,0.755633,
2,1,0,0,0,52609.1,0.77786,0.777564,9.3599,79,0.131512,10,0.00727792,-2.02873,0.130997,0.450392,0.773446,
2,1,0,1,0,52612.9,0.796837,0.796586,12.7256,79,0.173136,10,0.010137,-1.89532,0.128496,0.459157,0.790987,
2,1,0,0,0,52616.7,0.815814,0.815531,17.1685,79,0.229533,10,0.0140014,-1.76527,0.131114,0.44999,0.807977,
2,1,0,1,0,52620.5,0.834791,0.834569,22.5537,79,0.304753,10,0.0188226,-1.64678,0.15027,0.392625,0.824645,
2,1,0,1,0,52624.2,0.846726,0.846479,25.674,79,0.397971,10,0.0217325,-1.59051,0.107483,0.548924,0.835183,
2,1,0,1,0,52628,0.827749,0.827532,18.8834,79,0.48179,10,0.0156266,-1.72392,0.121589,0.485242,0.819223,
2,1,0,1,0,52631.7,0.808772,0.808485,13.8125,79,0.543311,10,0.0111672,-1.85973,0.123923,0.476101,0.802407,
2,1,0,1,0,52635.5,0.789795,0.789521,9.88146,79,0.58789,10,0.00780162,-2.00518,0.118735,0.496906,0.785174,
2,1,0,1,0,52639.3,0.770818,0.770527,6.94988,79,0.619518,10,0.00535506,-2.15802,0.113481,0.519909,0.767469,
2,1,0,1,0,52643.1,0.751841,0.751557,4.75446,79,0.641496,10,0.00357325,-2.3229,0.105763,0.557853,0.749465,
2,1,0,1,0,52646.9,0.732865,0.732584,3.11483,79,0.656242,10,0.00228187,-2.50657,0.0919382,0.641736,0.731213,
2,1,0,1,0,52650.7,0.713887,0.713598,1.90903,79,0.665625,10,0.00136228,-2.71919,0.0788991,0.74779,0.712758,
2,1,0,0,0,52654.5,0.69491,0.694605,1.05586,79,0.671116,10,0.000733404,-2.97639,0.0659806,0.894202,0.69414,
2,1,0,1,0,52658.3,0.675933,0.675642,0.50535,79,0.67396,10,0.000341436,-3.29641,0.0524827,1.12418,0.67542,
2,1,0,0,0,52662.1,0.656956,0.656715,0.19125,79,0.675186,10,0.000125597,-3.7184,0.0371213,1.58939,0.656631,
2,1,0,1,0,52665.9,0.637979,0.637686,0.0336691,79,0.675545,10,2.14703e-05,-4.47277,0.0131879,4.47378,0.637671,
2,0,0,0,0,52669.7,0.619002,0.618739,-0.0352947,79,0.675491,10,-2.18382e-05,-4.45229,-0.0353947,-1.66692,0.618754,
2,0,0,1,0,52673.5,0.600024,0.599722,-0.0663437,79,0.675257,10,-3.97877e-05,-4.1782,-0.145827,-0.404588,0.599751,
2,0,0,1,0,52677.3,0.581047,0.580756,-0.0820209,79,0.674939,10,-4.76342e-05,-4.08608,-0.345877,-0.170581,0.580792,
2,0,0,1,0,52681.1,0.56207,0.561785,-0.0905733,79,0.674578,10,-5.08827e-05,-4.043,-0.930543,-0.0634039,0.561825,
2,0,0,1,0,52684.9,0.543093,0.542757,-0.0962019,79,0.674192,10,-5.22143e-05,-4.01682,-0.552846,-0.10672,0.5428,
2,0,0,1,0,52688.7,0.524116,0.523841,-0.101962,79,0.673784,10,-5.34119e-05,-3.99156,-0.87647,-0.0673155,0.523886,
2,0,0,1,0,52692.5,0.505139,0.504827,-0.106294,79,0.673357,10,-5.36602e-05,-3.97349,-0.60122,-0.0981338,0.504874,
2,0,0,1,0,52696.3,0.486162,0.485867,-0.111457,79,0.672908,10,-5.41531e-05,-3.95289,-3.8855,-0.0151846,0.485916,
2,0,0,1,0,52700.1,0.467185,0.466843,-0.118589,79,0.672435,10,-5.53622e-05,-3.92596,-1.67344,-0.0352567,0.466895,
2,0,0,0,0,52703.9,0.448208,0.447899,-0.12618,79,0.671935,10,-5.65157e-05,-3.89901,-0.642091,-0.0918872,0.447954,
2,0,0,1,0,52707.7,0.429231,0.428909,-0.133855,79,0.671405,10,-5.74115e-05,-3.87337,-2.9942,-0.0197048,0.428968,
2,0,0,0,0,52711.5,0.410254,0.409935,-0.143557,79,0.670842,10,-5.88491e-05,-3.84298,-0.804753,-0.0733144,0.409998,
2,0,0,1,0,52715.2,0.391277,0.390951,-0.152802,79,0.670242,10,-5.97379e-05,-3.81587,-0.572185,-0.103113,0.391018,
2,0,0,0,0,52719,0.3723,0.372011,-0.16313,79,0.669603,10,-6.06861e-05,-3.78747,-0.518837,-0.113716,0.372083,
2,0,0,1,0,52722.8,0.353322,0.352996,-0.173379,79,0.668924,10,-6.1202e-05,-3.761,-0.555373,-0.106235,0.353072,
2,0,0,1,0,52726.6,0.334345,0.334033,-0.185404,79,0.668201,10,-6.19312e-05,-3.73188,-0.431504,-0.136731,0.334115,
2,0,0,1,0,52730.4,0.315368,0.315058,-0.195953,79,0.667434,10,-6.17366e-05,-3.70785,-0.700319,-0.0842473,0.315144,
2,0,0,1,0,52734.2,0.296391,0.296067,-0.208483,79,0.666622,10,-6.17249e-05,-3.68093,-0.681056,-0.0866302,0.296158,
2,0,0,1,0,52738,0.277414,0.277134,-0.221406,79,0.665763,10,-6.1359e-05,-3.65481,-0.749536,-0.0787154,0.277232,
2,0,0,1,0,52741.8,0.258437,0.258118,-0.233569,79,0.664853,10,-6.02885e-05,-3.63158,-0.577941,-0.102086,0.258221,
2,0,0,1,0,52745.6,0.239461,0.239105,-0.24605,79,0.663897,10,-5.88319e-05,-3.60898,-1.57847,-0.037378,0.239214,
2,0,0,1,0,52749.4,0.220483,0.220149,-0.256587,79,0.662898,10,-5.64873e-05,-3.59077,-0.656642,-0.0898511,0.220262,
2,0,0,0,0,52753.2,0.201506,0.20121,-0.26993,79,0.661851,10,-5.43127e-05,-3.56875,-0.544305,-0.108395,0.201329,
2,0,0,1,0,52757,0.182529,0.182177,-0.288801,79,0.660744,10,-5.26128e-05,-3.5394,-0.464212,-0.127097,0.182304,
2,0,0,0,0,52760.8,0.163552,0.163226,-0.318713,79,0.659549,10,-5.20224e-05,-3.4966,-0.310361,-0.190101,0.163367,
2,0,0,1,0,52764.6,0.144575,0.144253,-0.403858,79,0.658158,10,-5.82575e-05,-3.39377,-0.118506,-0.497864,0.14443,
2,0,0,0,0,52768.4,0.125598,0.12527,-0.603784,79,0.6562,10,-7.56362e-05,-3.21912,-0.150469,-0.392108,0.125536,
2,0,0,1,0,52772.2,0.10662,0.106281,-0.666768,79,0.653675,10,-7.08651e-05,-3.17603,-5.1581,-0.0114383,0.106575,
2,0,0,1,0,52776,0.0876433,0.0872949,-0.646036,79,0.651118,10,-5.63956e-05,-3.18974,0.816503,0.0722594,0.0875791,
2,0,0,1,0,52779.8,0.0686664,0.0683349,-0.607234,79,0.648685,10,-4.14952e-05,-3.21664,0.69749,0.0845891,0.068602,
2,0,0,1,0,52783.6,0.0496895,0.0493655,-0.565798,79,0.646398,10,-2.79309e-05,-3.24734,0.590226,0.0999617,0.0496144,
2,0,0,1,0,52787.4,0.0307126,0.0303726,-0.521296,79,0.644276,10,-1.58331e-05,-3.28292,0.496196,0.118905,0.030602,
2,0,0,1,0,52791.2,0.0117356,0.0113745,-0.490867,79,0.642305,10,-5.58336e-06,-3.30904,1.19893,0.0492105,0.0115905,
2,0,0,1,0,52793.4,0.000274105,-0.000108205,-0.491981,79,0.641147,10,5.3235e-08,-3.30805, , ,0.000108267,