Folder: Figs_alphaMnO2_OER_Tafel_sleope/Figure_codes/Fig_3-5/workspace_calculate_alpha_eff (part 23)

File: 20221101_1-115_003_TrumpetPlot_ParaChange_from10_every3_16_CV_C01_37.csv
mode,ox/red,error,control changes,counter inc.,time/s,control/V,Ewe/V,<I>/mA,cycle number,(Q-Qo)/C,I Range,P/W,log(|I|),Tafel slope mV/dec,alpha_eff,E-IR/V,
2,0,0,0,0,25241.7,2.44065e-05,-0.000344411,-0.0898536,38,0.0000000E+000,10,3.09465e-08,-4.04646, , ,-0.000304875,
2,1,0,1,0,25245.4,0.0187763,0.0184404,0.221755,38,0.000741933,10,4.08926e-06,-3.65413,0.14584,0.404552,0.0183428,
2,1,0,1,0,25249.2,0.0377538,0.0374188,0.290498,38,0.00178766,10,1.08701e-05,-3.53686,0.187295,0.315011,0.037291,
2,1,0,0,0,25253,0.0567309,0.056399,0.353621,38,0.00308906,10,1.99439e-05,-3.45146,0.295311,0.19979,0.0562434,
2,1,0,1,0,25256.8,0.075708,0.0753845,0.401404,38,0.00460334,10,3.02597e-05,-3.39642,0.449114,0.13137,0.0752079,
2,1,0,0,0,25260.6,0.0946851,0.0943488,0.458616,38,0.00629298,10,4.32699e-05,-3.33855,0.234054,0.252079,0.094147,
2,1,0,1,0,25264.4,0.113662,0.113334,0.561191,38,0.00830342,10,6.36022e-05,-3.25089,0.319383,0.184731,0.113087,
2,1,0,0,0,25268.2,0.132639,0.132293,0.615094,38,0.0106237,10,8.13728e-05,-3.21106,-0.846353,-0.0697108,0.132023,
2,1,0,1,0,25272,0.151617,0.151318,0.405914,38,0.0127136,10,6.14223e-05,-3.39157,-0.0729478,-0.808798,0.15114,
2,1,0,1,0,25275.8,0.170594,0.170289,0.293927,38,0.0140484,10,5.00526e-05,-3.53176,-0.262367,-0.224876,0.17016,
2,1,0,1,0,25279.6,0.189571,0.189221,0.269394,38,0.0151752,10,5.09752e-05,-3.56961,-0.727716,-0.0810756,0.189103,
2,1,0,1,0,25283.4,0.208547,0.208229,0.257813,38,0.0162386,10,5.36842e-05,-3.58869,-2.67287,-0.0220737,0.208116,
2,1,0,1,0,25287.2,0.227524,0.227205,0.250065,38,0.0172644,10,5.6816e-05,-3.60195,-1.21768,-0.0484526,0.227095,
2,1,0,1,0,25291,0.246501,0.24624,0.244656,38,0.0182664,10,6.02441e-05,-3.61144,-1.59631,-0.0369602,0.246132,
2,1,0,0,0,25294.8,0.265479,0.26517,0.240381,38,0.0192505,10,6.37417e-05,-3.6191,-0.962612,-0.0612916,0.265064,
2,1,0,1,0,25298.6,0.284456,0.284113,0.236588,38,0.0202187,10,6.72178e-05,-3.62601,-12.8132,-0.00460462,0.284009,
2,1,0,0,0,25302.4,0.303433,0.303135,0.231876,38,0.0211697,10,7.02897e-05,-3.63475,-2.17742,-0.0270963,0.303033,
2,1,0,1,0,25306.2,0.32241,0.322055,0.229175,38,0.0221052,10,7.38071e-05,-3.63983,-1.9844,-0.0297318,0.321954,
2,1,0,0,0,25310,0.341387,0.341069,0.226753,38,0.0230286,10,7.73386e-05,-3.64445,12.8655,0.0045859,0.34097,
2,1,0,1,0,25313.8,0.360364,0.360046,0.225729,38,0.0239408,10,8.12728e-05,-3.64641,-3.1536,-0.0187088,0.359947,
2,1,0,1,0,25317.5,0.379342,0.379029,0.222215,38,0.024843,10,8.42262e-05,-3.65323,-5.95948,-0.0099002,0.378931,
2,1,0,1,0,25321.3,0.398319,0.397992,0.220164,38,0.0257376,10,8.76235e-05,-3.65725,-2.20028,-0.0268147,0.397895,
2,1,0,1,0,25325.1,0.417295,0.417033,0.219949,38,0.0266273,10,9.1726e-05,-3.65768,12.7984,0.00460996,0.416936,
2,1,0,1,0,25328.9,0.436272,0.435953,0.220664,38,0.0275144,10,9.61993e-05,-3.65627,16.4733,0.00358154,0.435856,
2,1,0,1,0,25332.7,0.455249,0.454969,0.22066,38,0.0283996,10,0.000100393,-3.65628,4.20791,0.0140212,0.454871,
2,1,0,1,0,25336.5,0.474226,0.473904,0.221385,38,0.0292879,10,0.000104915,-3.65485,1.61889,0.0364448,0.473807,
2,1,0,1,0,25340.3,0.493203,0.49293,0.225207,38,0.0301848,10,0.000111011,-3.64742,0.8016,0.0736028,0.49283,
2,1,0,0,0,25344.1,0.512181,0.511891,0.229302,38,0.0310956,10,0.000117378,-3.63959,1.70359,0.0346327,0.51179,
2,1,0,1,0,25347.9,0.531158,0.530816,0.235723,38,0.0320251,10,0.000125125,-3.6276,2.10707,0.028001,0.530713,
2,1,0,0,0,25351.7,0.550135,0.549851,0.244665,38,0.0329826,10,0.000134529,-3.61143,0.729997,0.0808223,0.549743,
2,1,0,1,0,25355.5,0.569112,0.568841,0.260123,38,0.0339855,10,0.000147969,-3.58482,0.594256,0.0992838,0.568727,
2,1,0,0,0,25359.3,0.588089,0.587803,0.284046,38,0.0350589,10,0.000166963,-3.54661,0.412982,0.142863,0.587678,
2,1,0,1,0,25363.1,0.607066,0.606752,0.324174,38,0.0362508,10,0.000196693,-3.48922,0.258,0.228682,0.60661,
2,1,0,1,0,25366.9,0.626044,0.625768,0.405369,38,0.037662,10,0.000253667,-3.39215,0.159435,0.370057,0.625589,
2,1,0,1,0,25370.7,0.64502,0.644743,0.570593,38,0.0395208,10,0.000367886,-3.24367,0.105719,0.558086,0.644492,
2,1,0,1,0,25374.5,0.663997,0.663718,0.92539,38,0.0423249,10,0.000614198,-3.03368,0.0793018,0.743994,0.663311,
2,1,0,1,0,25378.3,0.682974,0.682721,1.63288,38,0.0470861,10,0.0011148,-2.78705,0.0725892,0.812793,0.682002,
2,1,0,1,0,25382.1,0.701951,0.70169,2.87136,38,0.0554939,10,0.0020148,-2.54191,0.0778305,0.758058,0.700427,
2,1,0,1,0,25385.9,0.720928,0.72064,4.72675,38,0.0697589,10,0.00340629,-2.32544,0.0891725,0.661639,0.718561,
2,1,0,1,0,25389.7,0.739905,0.739629,7.21614,38,0.0922719,10,0.00533727,-2.14169,0.103847,0.568143,0.736454,
2,1,0,0,0,25393.5,0.758883,0.758611,10.3675,38,0.125464,10,0.00786489,-1.98433,0.1178,0.50085,0.754049,
2,1,0,1,0,25397.3,0.77786,0.777555,14.4663,38,0.172258,10,0.0112484,-1.83964,0.116616,0.505934,0.77119,
2,1,0,0,0,25401,0.796837,0.796533,20.034,38,0.237261,10,0.0159577,-1.69823,0.117567,0.501842,0.787718,
2,1,0,1,0,25404.8,0.815814,0.815532,26.9939,38,0.326311,10,0.0220144,-1.56873,0.136402,0.432546,0.803655,
2,1,0,0,0,25408.6,0.834791,0.834555,34.8084,38,0.443616,10,0.0290495,-1.45832,0.156156,0.377826,0.819239,
2,1,0,0,0,25412.3,0.846727,0.846477,38.9025,38,0.585153,10,0.0329301,-1.41002,0.142749,0.413314,0.82936,
2,1,0,1,0,25416.1,0.827749,0.827475,29.7801,38,0.714911,10,0.0246423,-1.52607,0.129447,0.455785,0.814372,
2,1,0,1,0,25419.9,0.808772,0.808525,21.9485,38,0.812826,10,0.0177459,-1.6586,0.105512,0.559179,0.798867,
2,1,0,1,0,25423.7,0.789795,0.789519,15.0949,38,0.88336,10,0.0119177,-1.82117,0.120795,0.488429,0.782878,
2,1,0,1,0,25427.5,0.770818,0.770563,10.6514,38,0.931875,10,0.00820758,-1.97259,0.110251,0.535142,0.765876,
2,1,0,1,0,25431.3,0.751841,0.751555,7.2845,38,0.965542,10,0.00547471,-2.1376,0.0995721,0.592536,0.74835,
2,1,0,1,0,25435.1,0.732865,0.732549,4.69697,38,0.987996,10,0.00344076,-2.32818,0.0876428,0.673187,0.730482,
2,1,0,0,0,25438.9,0.713887,0.713607,2.81651,38,1.00201,10,0.00200988,-2.55029,0.0746564,0.790287,0.712368,
2,1,0,1,0,25442.7,0.69491,0.694632,1.52485,38,1.01003,10,0.00105921,-2.81677,0.0617909,0.954834,0.693961,
2,1,0,0,0,25446.5,0.675933,0.675651,0.718167,38,1.01411,10,0.000485231,-3.14377,0.0507264,1.1631,0.675335,
2,1,0,1,0,25450.3,0.656956,0.656666,0.281948,38,1.01586,10,0.000185146,-3.54983,0.0406385,1.45183,0.656542,
2,1,0,0,0,25454.1,0.637979,0.637708,0.0597994,38,1.0164,10,3.81346e-05,-4.2233,0.0180137,3.27528,0.637681,
2,0,0,1,0,25457.9,0.619002,0.618705,-0.0353447,38,1.01637,10,-2.1868e-05,-4.45168,-0.0270153,-2.18395,0.618721,
2,0,0,0,0,25461.7,0.600025,0.599674,-0.0763675,38,1.0161,10,-4.57956e-05,-4.11709,-0.13683,-0.431191,0.599708,
2,0,0,1,0,25465.5,0.581047,0.580726,-0.0963117,38,1.01573,10,-5.59308e-05,-4.01632,-0.242644,-0.243155,0.580769,
2,0,0,1,0,25469.3,0.56207,0.561748,-0.106786,38,1.0153,10,-5.99867e-05,-3.97149,-0.541884,-0.108879,0.561795,
2,0,0,1,0,25473.1,0.543093,0.542785,-0.111877,38,1.01484,10,-6.07252e-05,-3.95126,-0.477365,-0.123595,0.542834,
2,0,0,1,0,25476.9,0.524116,0.523833,-0.1174,38,1.01436,10,-6.14979e-05,-3.93033,-3.56869,-0.0165327,0.523884,
2,0,0,1,0,25480.7,0.505139,0.50485,-0.121391,38,1.01386,10,-6.12843e-05,-3.91581,-1.52008,-0.0388138,0.504904,
2,0,0,1,0,25484.4,0.486162,0.485864,-0.126958,38,1.01334,10,-6.16843e-05,-3.89634,2.80109,0.0210632,0.48592,
2,0,0,1,0,25488.2,0.467185,0.466885,-0.132751,38,1.01281,10,-6.19793e-05,-3.87696,-3.4285,-0.0172087,0.466944,
2,0,0,1,0,25492,0.448208,0.447912,-0.140001,38,1.01224,10,-6.27083e-05,-3.85387,-1.41113,-0.0418103,0.447973,
2,0,0,0,0,25495.8,0.429231,0.428912,-0.146823,38,1.01165,10,-6.2974e-05,-3.83321,-2.00929,-0.0293637,0.428977,
2,0,0,1,0,25499.6,0.410254,0.40993,-0.156906,38,1.01103,10,-6.43206e-05,-3.80436,-9.15957,-0.00644135,0.409999,
2,0,0,0,0,25503.4,0.391277,0.39099,-0.165876,38,1.01037,10,-6.48557e-05,-3.78022,-1.64369,-0.0358949,0.391063,
2,0,0,1,0,25507.2,0.3723,0.371995,-0.175821,38,1.00967,10,-6.54045e-05,-3.75493,-0.719741,-0.0819739,0.372072,
2,0,0,1,0,25511,0.353322,0.353037,-0.185113,38,1.00893,10,-6.53517e-05,-3.73256,-0.885511,-0.0666282,0.353118,
2,0,0,1,0,25514.8,0.334345,0.33407,-0.197247,38,1.00815,10,-6.58944e-05,-3.70499,-1.04156,-0.0566456,0.334157,
2,0,0,1,0,25518.6,0.315368,0.315046,-0.208986,38,1.00733,10,-6.58402e-05,-3.67988,-0.838149,-0.0703932,0.315138,
2,0,0,1,0,25522.4,0.296391,0.296069,-0.220614,38,1.00646,10,-6.53168e-05,-3.65637,-0.874278,-0.0674842,0.296166,
2,0,0,1,0,25526.2,0.277414,0.277099,-0.232913,38,1.00555,10,-6.45402e-05,-3.63281,-0.502889,-0.117322,0.277202,
2,0,0,1,0,25530,0.258437,0.258104,-0.24597,38,1.00459,10,-6.3486e-05,-3.60912,-1.83108,-0.0322214,0.258213,
2,0,0,1,0,25533.8,0.239461,0.239123,-0.256696,38,1.00358,10,-6.1382e-05,-3.59058,-1.70077,-0.0346902,0.239236,
2,0,0,0,0,25537.6,0.220483,0.220164,-0.267993,38,1.00253,10,-5.90023e-05,-3.57188,-0.715218,-0.0824923,0.220282,
2,0,0,1,0,25541.4,0.201506,0.201202,-0.282769,38,1.00143,10,-5.68935e-05,-3.54857,-0.490825,-0.120206,0.201326,
2,0,0,0,0,25545.2,0.182529,0.18223,-0.302958,38,1.00026,10,-5.52081e-05,-3.51862,-0.443915,-0.132908,0.182363,
2,0,0,1,0,25549,0.163552,0.163253,-0.341301,38,0.998991,10,-5.57184e-05,-3.46686,-0.278663,-0.211725,0.163403,
2,0,0,0,0,25552.8,0.144575,0.144228,-0.459572,38,0.997459,10,-6.62833e-05,-3.33765,-0.088614,-0.665809,0.14443,
2,0,0,1,0,25556.6,0.125598,0.125281,-0.694496,38,0.995185,10,-8.70071e-05,-3.15833,-0.199393,-0.295898,0.125586,
2,0,0,1,0,25560.4,0.10662,0.106293,-0.725844,38,0.992368,10,-7.71521e-05,-3.13916,0.926512,0.0636797,0.106612,
2,0,0,1,0,25564.1,0.0876433,0.0873224,-0.675432,38,0.989641,10,-5.89804e-05,-3.17042,0.596182,0.098963,0.0876196,
2,0,0,1,0,25567.9,0.0686664,0.0683498,-0.630031,38,0.987106,10,-4.30625e-05,-3.20064,0.689853,0.0855254,0.068627,
2,0,0,1,0,25571.7,0.0496895,0.0493876,-0.584448,38,0.984735,10,-2.88645e-05,-3.23325,0.508998,0.115914,0.0496448,
2,0,0,1,0,25575.5,0.0307126,0.0304086,-0.534348,38,0.982542,10,-1.62488e-05,-3.27218,0.520994,0.113245,0.0306437,
2,0,0,1,0,25579.3,0.0117356,0.0114316,-0.501422,38,0.980518,10,-5.73207e-06,-3.2998,0.848377,0.0695446,0.0116523,
2,0,0,0,0,25581.6,0.000274105,-9.38898e-05,-0.502391,38,0.979331,10,4.71694e-08,-3.29896, , ,0.000127162,

File: 20221101_1-115_003_TrumpetPlot_ParaChange_from10_every3_16_CV_C01_38.csv
mode,ox/red,error,control changes,counter inc.,time/s,control/V,Ewe/V,<I>/mA,cycle number,(Q-Qo)/C,I Range,P/W,log(|I|),Tafel slope mV/dec,alpha_eff,E-IR/V,
2,0,0,0,0,25611.7,2.44065e-05,-0.000306236,-0.098122,39,0.0000000E+000,10,3.00485e-08,-4.00823, , ,-0.000263063,
2,1,0,1,0,25615.4,0.0187763,0.0184349,0.213807,39,0.000701735,10,3.94151e-06,-3.66998,0.147502,0.399994,0.0183408,
2,1,0,1,0,25619.2,0.0377538,0.0373965,0.282122,39,0.00170509,10,1.05504e-05,-3.54956,0.173442,0.340171,0.0372724,
2,1,0,0,0,25623,0.0567309,0.0564054,0.345557,39,0.00296458,10,1.94913e-05,-3.46148,0.298072,0.197939,0.0562533,
2,1,0,1,0,25626.8,0.075708,0.0754025,0.395458,39,0.00444036,10,2.98185e-05,-3.4029,0.44331,0.13309,0.0752285,
2,1,0,0,0,25630.6,0.0946851,0.0943456,0.451551,39,0.00609566,10,4.26019e-05,-3.34529,0.235336,0.250706,0.094147,
2,1,0,1,0,25634.4,0.113662,0.113347,0.554093,39,0.00806966,10,6.28049e-05,-3.25642,0.350366,0.168395,0.113103,
2,1,0,0,0,25638.2,0.132639,0.132349,0.607854,39,0.010352,10,8.04486e-05,-3.2162,-2.24872,-0.0262371,0.132081,
2,1,0,1,0,25642,0.151617,0.15125,0.40123,39,0.0124145,10,6.06859e-05,-3.39661,-0.07006,-0.842135,0.151073,
2,1,0,1,0,25645.8,0.170594,0.170286,0.289566,39,0.0137226,10,4.9309e-05,-3.53825,-0.234882,-0.25119,0.170158,
2,1,0,1,0,25649.6,0.189571,0.189252,0.263272,39,0.0148163,10,4.98248e-05,-3.57959,-0.605467,-0.0974455,0.189136,
2,1,0,1,0,25653.4,0.208547,0.208279,0.251501,39,0.0158458,10,5.23823e-05,-3.59946,-1.01521,-0.0581162,0.208168,
2,1,0,1,0,25657.2,0.227524,0.227245,0.243494,39,0.0168404,10,5.53329e-05,-3.61351,-1.12185,-0.0525917,0.227138,
2,1,0,1,0,25661,0.246501,0.246183,0.239049,39,0.0178116,10,5.88497e-05,-3.62151,-0.822526,-0.0717303,0.246078,
2,1,0,0,0,25664.8,0.265479,0.265188,0.234352,39,0.0187644,10,6.21473e-05,-3.63013,-1.15048,-0.0512831,0.265085,
2,1,0,1,0,25668.6,0.284456,0.284129,0.230141,39,0.0197005,10,6.53897e-05,-3.63801,40.614,0.0014527,0.284027,
2,1,0,0,0,25672.4,0.303433,0.303176,0.226756,39,0.0206218,10,6.8747e-05,-3.64444,-8.1301,-0.00725699,0.303076,
2,1,0,1,0,25676.2,0.32241,0.322145,0.223271,39,0.0215278,10,7.19258e-05,-3.65117,-1.57879,-0.0373704,0.322047,
2,1,0,0,0,25680,0.341387,0.341084,0.220552,39,0.0224224,10,7.52268e-05,-3.65649,8.74446,0.00674713,0.340987,
2,1,0,1,0,25683.8,0.360364,0.36011,0.22025,39,0.0233066,10,7.93143e-05,-3.65708,-8.20362,-0.00719195,0.360013,
2,1,0,1,0,25687.5,0.379342,0.379043,0.217381,39,0.0241817,10,8.23966e-05,-3.66278,-23.2858,-0.00253374,0.378947,
2,1,0,1,0,25691.3,0.398319,0.398058,0.215415,39,0.0250497,10,8.57477e-05,-3.66672,-2.58813,-0.0227964,0.397963,
2,1,0,1,0,25695.1,0.417295,0.417029,0.214733,39,0.0259125,10,8.955e-05,-3.6681,2.04542,0.0288449,0.416935,
2,1,0,1,0,25698.9,0.436272,0.435984,0.21522,39,0.0267721,10,9.38325e-05,-3.66712,2.87869,0.0204955,0.43589,
2,1,0,1,0,25702.7,0.455249,0.454956,0.21545,39,0.0276319,10,9.80204e-05,-3.66665,5.14334,0.0114712,0.454861,
2,1,0,1,0,25706.5,0.474226,0.473918,0.216165,39,0.0284949,10,0.000102444,-3.66522,1.10889,0.0532064,0.473823,
2,1,0,1,0,25710.3,0.493203,0.492913,0.220423,39,0.029367,10,0.000108649,-3.65674,1.42016,0.0415446,0.492816,
2,1,0,0,0,25714.1,0.512181,0.511883,0.224776,39,0.0302524,10,0.000115059,-3.64825,0.973682,0.0605948,0.511784,
2,1,0,1,0,25717.9,0.531158,0.530893,0.23185,39,0.0311587,10,0.000123088,-3.63479,0.978469,0.0602983,0.530791,
2,1,0,0,0,25721.7,0.550135,0.549867,0.239559,39,0.0320938,10,0.000131726,-3.62059,0.715305,0.0824823,0.549761,
2,1,0,1,0,25725.5,0.569112,0.568835,0.254154,39,0.0330739,10,0.000144572,-3.5949,0.562623,0.104866,0.568723,
2,1,0,0,0,25729.3,0.588089,0.587787,0.278756,39,0.0341232,10,0.000163849,-3.55478,0.391719,0.150618,0.587664,
2,1,0,1,0,25733.1,0.607066,0.606768,0.319798,39,0.0352907,10,0.000194043,-3.49512,0.268506,0.219735,0.606627,
2,1,0,1,0,25736.9,0.626044,0.625719,0.397923,39,0.0366737,10,0.000248988,-3.4002,0.153235,0.38503,0.625544,
2,1,0,1,0,25740.7,0.64502,0.644734,0.561562,39,0.0384975,10,0.000362058,-3.2506,0.104993,0.561944,0.644487,
2,1,0,1,0,25744.5,0.663997,0.663728,0.911722,39,0.0412539,10,0.000605136,-3.04014,0.080248,0.735221,0.663327,
2,1,0,1,0,25748.3,0.682974,0.682699,1.60377,39,0.0459338,10,0.00109489,-2.79486,0.0749303,0.787399,0.681994,
2,1,0,1,0,25752.1,0.701951,0.701652,2.8069,39,0.0541698,10,0.00196947,-2.55177,0.0790106,0.746735,0.700417,
2,1,0,1,0,25755.9,0.720928,0.720636,4.59348,39,0.0680696,10,0.00331023,-2.33786,0.0914875,0.644897,0.718615,
2,1,0,1,0,25759.7,0.739905,0.739611,6.96827,39,0.0898709,10,0.00515381,-2.15687,0.107747,0.547581,0.736545,
2,1,0,0,0,25763.5,0.758883,0.758609,9.95402,39,0.121821,10,0.00755121,-2.002,0.120072,0.491372,0.754229,
2,1,0,1,0,25767.3,0.77786,0.777587,13.7886,39,0.166567,10,0.0107218,-1.86048,0.121418,0.485924,0.77152,
2,1,0,0,0,25771,0.796837,0.796595,18.9033,39,0.228091,10,0.0150583,-1.72346,0.12089,0.488047,0.788277,
2,1,0,1,0,25774.8,0.815814,0.815527,25.2398,39,0.311641,10,0.0205837,-1.59791,0.15316,0.385217,0.804422,
2,1,0,0,0,25778.6,0.834791,0.834547,32.3229,39,0.420576,10,0.026975,-1.49049,0.169934,0.347194,0.820324,
2,1,0,0,0,25782.3,0.846727,0.846454,36.1861,39,0.552198,10,0.0306298,-1.44146,0.117786,0.50091,0.830532,
2,1,0,1,0,25786.1,0.827749,0.82751,27.8361,39,0.673056,10,0.0230347,-1.55539,0.130957,0.450529,0.815262,
2,1,0,1,0,25789.9,0.808772,0.80854,20.8344,39,0.765008,10,0.0168454,-1.68122,0.122854,0.480243,0.799373,
2,1,0,1,0,25793.7,0.789795,0.789516,15.0991,39,0.832802,10,0.011921,-1.82105,0.116728,0.505449,0.782873,
2,1,0,1,0,25797.5,0.770818,0.770588,10.6162,39,0.881192,10,0.0081807,-1.97403,0.109195,0.540317,0.765917,
2,1,0,1,0,25801.3,0.751841,0.751558,7.19545,39,0.914653,10,0.0054078,-2.14294,0.100465,0.587268,0.748392,
2,1,0,1,0,25805.1,0.732865,0.732623,4.69623,39,0.936925,10,0.00344057,-2.32825,0.0879038,0.671188,0.730556,
2,1,0,0,0,25808.9,0.713887,0.71357,2.81461,39,0.950925,10,0.00200842,-2.55058,0.075353,0.782981,0.712332,
2,1,0,1,0,25812.7,0.69491,0.694637,1.52562,39,0.958942,10,0.00105975,-2.81655,0.0638247,0.924407,0.693965,
2,1,0,0,0,25816.5,0.675933,0.675656,0.716142,39,0.96302,10,0.000483866,-3.145,0.0513251,1.14954,0.675341,
2,1,0,1,0,25820.3,0.656956,0.656687,0.271708,39,0.964759,10,0.000178427,-3.5659,0.0374885,1.57382,0.656567,
2,1,0,0,0,25824.1,0.637979,0.637678,0.0554179,39,0.965281,10,3.53388e-05,-4.25635,0.0160645,3.6727,0.637653,
2,0,0,1,0,25827.9,0.619002,0.618691,-0.0391698,39,0.96524,10,-2.4234e-05,-4.40705,-0.0280454,-2.10373,0.618708,
2,0,0,0,0,25831.7,0.600025,0.599697,-0.0806789,39,0.964955,10,-4.83829e-05,-4.09324,-0.118409,-0.498272,0.599733,
2,0,0,1,0,25835.5,0.581047,0.580723,-0.100673,39,0.964561,10,-5.8463e-05,-3.99709,-0.406478,-0.145149,0.580767,
2,0,0,1,0,25839.3,0.56207,0.561731,-0.11009,39,0.964115,10,-6.18413e-05,-3.95825,-0.582177,-0.101344,0.56178,
2,0,0,1,0,25843.1,0.543093,0.542787,-0.115923,39,0.963642,10,-6.29214e-05,-3.93583,-0.727883,-0.0810569,0.542838,
2,0,0,1,0,25846.9,0.524116,0.523792,-0.120752,39,0.963147,10,-6.32492e-05,-3.9181,7.49668,0.00787015,0.523845,
2,0,0,1,0,25850.7,0.505139,0.504828,-0.125343,39,0.962633,10,-6.32768e-05,-3.9019,-0.818476,-0.0720852,0.504883,
2,0,0,1,0,25854.4,0.486162,0.485829,-0.130409,39,0.962099,10,-6.33566e-05,-3.88469,-1.71704,-0.0343614,0.485886,
2,0,0,1,0,25858.2,0.467185,0.466886,-0.137847,39,0.961543,10,-6.43586e-05,-3.8606,-1.31805,-0.0447631,0.466947,
2,0,0,1,0,25862,0.448208,0.447874,-0.142313,39,0.960964,10,-6.37382e-05,-3.84676,-0.958103,-0.06158,0.447936,
2,0,0,0,0,25865.8,0.429231,0.428913,-0.150939,39,0.960356,10,-6.47398e-05,-3.8212,-0.935368,-0.0630768,0.42898,
2,0,0,1,0,25869.6,0.410254,0.409968,-0.160047,39,0.959715,10,-6.56141e-05,-3.79575,-2.35786,-0.0250227,0.410039,
2,0,0,0,0,25873.4,0.391277,0.390954,-0.169237,39,0.95904,10,-6.61638e-05,-3.77151,-0.96788,-0.060958,0.391029,
2,0,0,1,0,25877.2,0.3723,0.37197,-0.178791,39,0.958325,10,-6.65049e-05,-3.74765,-0.584584,-0.100926,0.372048,
2,0,0,1,0,25881,0.353322,0.353033,-0.189853,39,0.957571,10,-6.70246e-05,-3.72158,-0.568428,-0.103795,0.353117,
2,0,0,1,0,25884.8,0.334345,0.334029,-0.199143,39,0.956774,10,-6.65196e-05,-3.70083,-2.18681,-0.0269799,0.334117,
2,0,0,1,0,25888.6,0.315368,0.315081,-0.210886,39,0.955936,10,-6.6446e-05,-3.67595,-0.743603,-0.0793435,0.315174,
2,0,0,1,0,25892.4,0.296391,0.296146,-0.224221,39,0.955054,10,-6.64021e-05,-3.64932,-0.858352,-0.0687364,0.296245,
2,0,0,1,0,25896.2,0.277414,0.277099,-0.233981,39,0.954124,10,-6.48359e-05,-3.63082,-0.554622,-0.106379,0.277202,
2,0,0,1,0,25900,0.258437,0.258107,-0.247277,39,0.953148,10,-6.38238e-05,-3.60682,-0.83066,-0.0710279,0.258215,
2,0,0,1,0,25903.8,0.239461,0.239135,-0.258684,39,0.952126,10,-6.18603e-05,-3.58723,-0.932435,-0.0632752,0.239249,
2,0,0,0,0,25907.6,0.220483,0.220229,-0.270535,39,0.951061,10,-5.95796e-05,-3.56778,-0.596661,-0.0988836,0.220348,
2,0,0,1,0,25911.4,0.201506,0.201212,-0.284722,39,0.949945,10,-5.72896e-05,-3.54558,-0.827844,-0.0712694,0.201338,
2,0,0,0,0,25915.2,0.182529,0.182194,-0.305181,39,0.948763,10,-5.56022e-05,-3.51544,-0.423318,-0.139375,0.182328,
2,0,0,1,0,25919,0.163552,0.163237,-0.343504,39,0.947477,10,-5.60725e-05,-3.46407,-0.254955,-0.231413,0.163388,
2,0,0,0,0,25922.8,0.144575,0.144254,-0.462236,39,0.94593,10,-6.66792e-05,-3.33514,-0.0888208,-0.664259,0.144457,
2,0,0,1,0,25926.6,0.125598,0.125298,-0.699805,39,0.943632,10,-8.76841e-05,-3.15502,-0.203728,-0.289602,0.125606,
2,0,0,1,0,25930.4,0.10662,0.106289,-0.7284,39,0.94079,10,-7.74207e-05,-3.13763,0.92016,0.0641193,0.106609,
2,0,0,1,0,25934.2,0.0876433,0.0873478,-0.67789,39,0.938046,10,-5.92122e-05,-3.16884,0.512798,0.115055,0.087646,
2,0,0,1,0,25937.9,0.0686664,0.0683274,-0.63095,39,0.935498,10,-4.31112e-05,-3.20001,0.652935,0.0903612,0.068605,
2,0,0,1,0,25941.7,0.0496895,0.0493655,-0.583205,39,0.93312,10,-2.87902e-05,-3.23418,0.53555,0.110167,0.0496221,
2,0,0,1,0,25945.5,0.0307126,0.0303841,-0.532307,39,0.930929,10,-1.61737e-05,-3.27384,0.491889,0.119946,0.0306183,
2,0,0,1,0,25949.3,0.0117356,0.0114297,-0.499099,39,0.928908,10,-5.70453e-06,-3.30181,2.90191,0.0203314,0.0116493,
2,0,0,0,0,25951.6,0.000274105,-0.000117749,-0.499178,39,0.927723,10,5.87777e-08,-3.30174, , ,0.000101889,