Folder: Figs_alphaMnO2_OER_Tafel_sleope/Figure_codes/Fig_3-5/workspace_calculate_alpha_eff (part 4)

File: 20221101_1-115_002_TrumpetPlot_ParaChange_18_CV_C01_6.csv
mode,ox/red,error,control changes,counter inc.,time/s,control/V,Ewe/V,<I>/mA,cycle number,(Q-Qo)/C,I Range,P/W,log(|I|),Tafel slope mV/dec,alpha_eff,E-IR/V,
2,1,0,0,0,8640.06,2.44065e-05,-0.000344411,0.0710625,7,0.0000000E+000,10,-2.44747e-08,-4.14836, , ,-0.000401261,
2,1,0,1,0,8643.81,0.0187763,0.0184795,0.266362,7,0.000973845,10,4.92223e-06,-3.57453,0.347923,0.169578,0.0182664,
2,1,0,1,0,8647.61,0.0377538,0.0374251,0.309641,7,0.00214455,10,1.15883e-05,-3.50914,0.230654,0.255795,0.0371774,
2,1,0,0,0,8651.4,0.0567309,0.0564446,0.38137,7,0.0035333,10,2.15262e-05,-3.41865,0.191091,0.308754,0.0561395,
2,1,0,1,0,8655.2,0.075708,0.0754492,0.463391,7,0.00522853,10,3.49625e-05,-3.33405,0.288187,0.204728,0.0750785,
2,1,0,0,0,8658.99,0.0946851,0.0943966,0.529189,7,0.00719346,10,4.99537e-05,-3.27639,0.295147,0.1999,0.0939732,
2,1,0,1,0,8662.79,0.113662,0.113343,0.663012,7,0.00949901,10,7.51477e-05,-3.17848,0.160277,0.368113,0.112812,
2,1,0,0,0,8666.58,0.132639,0.132344,0.81901,7,0.0124067,10,0.000108391,-3.08671,0.352749,0.167258,0.131689,
2,1,0,1,0,8670.38,0.151617,0.151332,0.713113,7,0.0155523,10,0.000107917,-3.14684,-0.0893396,-0.660401,0.150762,
2,1,0,1,0,8674.17,0.170594,0.170315,0.422877,7,0.0177047,10,7.20221e-05,-3.37379,-0.118271,-0.498855,0.169976,
2,1,0,1,0,8677.97,0.189571,0.189246,0.337225,7,0.0191935,10,6.38183e-05,-3.47208,-0.361912,-0.163023,0.188976,
2,1,0,1,0,8681.76,0.208547,0.208285,0.308299,7,0.0204858,10,6.4214e-05,-3.51103,-0.634173,-0.0930346,0.208038,
2,1,0,1,0,8685.56,0.227524,0.227261,0.29219,7,0.021696,10,6.64035e-05,-3.53433,-0.632294,-0.0933111,0.227027,
2,1,0,1,0,8689.36,0.246501,0.246238,0.281742,7,0.0228615,10,6.93756e-05,-3.55015,-0.74702,-0.0789804,0.246013,
2,1,0,0,0,8693.15,0.265479,0.265207,0.276823,7,0.0239996,10,7.34154e-05,-3.5578,-1.2929,-0.045634,0.264985,
2,1,0,1,0,8696.95,0.284456,0.284193,0.272624,7,0.0251182,10,7.7478e-05,-3.56444,-0.685166,-0.0861106,0.283975,
2,1,0,0,0,8700.74,0.303433,0.303169,0.267623,7,0.0262186,10,8.11351e-05,-3.57248,-1.0022,-0.0588703,0.302955,
2,1,0,1,0,8704.54,0.32241,0.322166,0.263447,7,0.0273016,10,8.48737e-05,-3.57931,-0.897318,-0.0657515,0.321955,
2,1,0,0,0,8708.33,0.341387,0.341089,0.260164,7,0.0283694,10,8.8739e-05,-3.58475,-1.46322,-0.0403221,0.34088,
2,1,0,1,0,8712.13,0.360364,0.360062,0.256613,7,0.0294233,10,9.23967e-05,-3.59072,-4.1346,-0.0142698,0.359857,
2,1,0,1,0,8715.92,0.379342,0.379066,0.252687,7,0.0304635,10,9.5785e-05,-3.59742,-1.02373,-0.0576326,0.378864,
2,1,0,1,0,8719.72,0.398319,0.398022,0.250124,7,0.0314916,10,9.95547e-05,-3.60185,-57.1275,-0.00103278,0.397822,
2,1,0,1,0,8723.51,0.417295,0.41699,0.248174,7,0.0325111,10,0.000103486,-3.60524,39.6939,0.00148638,0.416792,
2,1,0,1,0,8727.31,0.436272,0.436014,0.248795,7,0.0335263,10,0.000108478,-3.60416,11.914,0.00495218,0.435815,
2,1,0,1,0,8731.1,0.455249,0.454971,0.24989,7,0.0345402,10,0.000113693,-3.60225,1.50772,0.039132,0.454771,
2,1,0,1,0,8734.9,0.474226,0.473958,0.249869,7,0.0355578,10,0.000118428,-3.60229,4.24074,0.0139127,0.473758,
2,1,0,1,0,8738.7,0.493203,0.492947,0.253445,7,0.0365853,10,0.000124935,-3.59612,0.93169,0.0633258,0.492744,
2,1,0,0,0,8742.49,0.512181,0.511897,0.260067,7,0.0376289,10,0.000133127,-3.58491,1.14506,0.0515258,0.511689,
2,1,0,1,0,8746.29,0.531158,0.530887,0.269086,7,0.0386996,10,0.000142855,-3.57011,0.86237,0.0684161,0.530672,
2,1,0,0,0,8750.08,0.550135,0.549843,0.284079,7,0.0398144,10,0.000156199,-3.54656,0.58676,0.100552,0.549616,
2,1,0,1,0,8753.88,0.569112,0.568862,0.309834,7,0.0410044,10,0.000176252,-3.50887,0.37824,0.155985,0.568614,
2,1,0,0,0,8757.67,0.588089,0.587819,0.354902,7,0.0423237,10,0.000208618,-3.44989,0.25646,0.230056,0.587535,
2,1,0,1,0,8761.47,0.607066,0.606786,0.445877,7,0.0438905,10,0.000270552,-3.35078,0.159321,0.370322,0.606429,
2,1,0,1,0,8765.26,0.626044,0.625784,0.63517,7,0.0459661,10,0.000397479,-3.19711,0.0976412,0.604253,0.625276,
2,1,0,1,0,8769.06,0.64502,0.644756,1.06359,7,0.0491562,10,0.000685758,-2.97322,0.07301,0.808108,0.643906,
2,1,0,1,0,8772.85,0.663997,0.663724,2.01593,7,0.054845,10,0.00133802,-2.69553,0.0626975,0.941027,0.662111,
2,1,0,1,0,8776.65,0.682974,0.682706,3.91689,7,0.0658176,10,0.00267408,-2.40706,0.0603655,0.977379,0.679572,
2,1,0,1,0,8780.45,0.701951,0.701669,7.10879,7,0.086402,10,0.00498802,-2.1482,0.068792,0.857658,0.695982,
2,1,0,1,0,8784.24,0.720928,0.720653,11.4096,7,0.121344,10,0.00822234,-1.94273,0.084825,0.69555,0.711526,
2,1,0,1,0,8788.04,0.739905,0.73964,16.5274,7,0.17413,10,0.0122243,-1.7818,0.0950673,0.620613,0.726418,
2,1,0,0,0,8791.83,0.758883,0.758592,22.8697,7,0.248596,10,0.0173488,-1.64074,0.10419,0.566275,0.740296,
2,1,0,1,0,8795.63,0.77786,0.77759,31.2683,7,0.349872,10,0.0243139,-1.5049,0.131495,0.448685,0.752575,
2,1,0,0,0,8799.42,0.796837,0.796558,38.7596,7,0.482538,10,0.0308742,-1.41162,0.179098,0.329428,0.765551,
2,1,0,1,0,8803.22,0.815814,0.815539,45.6907,7,0.64221,10,0.0372625,-1.34017,0.196527,0.300213,0.778986,
2,1,0,0,0,8807.01,0.834791,0.834577,52.6353,7,0.829073,10,0.0439282,-1.27872,0.299243,0.197164,0.792469,
2,1,0,0,0,8810.71,0.846727,0.846474,55.797,7,1.0351,10,0.0472307,-1.25339,0.233533,0.252641,0.801836,
2,1,0,1,0,8814.5,0.827749,0.827521,48.525,7,1.23376,10,0.0401555,-1.31403,0.171486,0.344052,0.788701,
2,1,0,1,0,8818.3,0.808772,0.808578,40.5202,7,1.40271,10,0.0327638,-1.39233,0.156954,0.375907,0.776162,
2,1,0,1,0,8822.1,0.789795,0.789499,32.3331,7,1.54107,10,0.025527,-1.49035,0.1148,0.513938,0.763633,
2,1,0,1,0,8825.89,0.770818,0.770551,23.8716,7,1.64752,10,0.0183943,-1.62212,0.0975401,0.60488,0.751454,
2,1,0,1,0,8829.69,0.751841,0.751591,16.8466,7,1.7244,10,0.0126617,-1.77349,0.0770581,0.765656,0.738114,
2,1,0,1,0,8833.48,0.732865,0.732581,10.9943,7,1.7766,10,0.00805419,-1.95883,0.074925,0.787454,0.723786,
2,1,0,0,0,8837.28,0.713887,0.71363,6.58124,7,1.80946,10,0.00469657,-2.18169,0.0645345,0.91424,0.708366,
2,1,0,1,0,8841.07,0.69491,0.694634,3.53943,7,1.82817,10,0.00245861,-2.45107,0.0579702,1.01777,0.691803,
2,1,0,0,0,8844.87,0.675933,0.675703,1.68829,7,1.8377,10,0.00114079,-2.77255,0.0513182,1.14969,0.674352,
2,1,0,1,0,8848.66,0.656956,0.656678,0.741724,7,1.84203,10,0.000487074,-3.12976,0.0468365,1.2597,0.656085,
2,1,0,0,0,8852.46,0.637979,0.637722,0.27721,7,1.84378,10,0.000176783,-3.55719,0.0403046,1.46385,0.637501,
2,1,0,1,0,8856.25,0.619002,0.6187,0.0741028,7,1.84432,10,4.58474e-05,-4.13017,0.0264116,2.23387,0.61864,
2,1,0,0,0,8860.05,0.600025,0.59974,-0.0141941,7,1.84433,10,-8.51278e-06,-4.84789,-0.0108519,-5.43686,0.599751,
2,0,0,1,0,8863.85,0.581047,0.580744,-0.0526132,7,1.84413,10,-3.05548e-05,-4.27891,-0.104221,-0.566105,0.580786,
2,0,0,1,0,8867.64,0.56207,0.561844,-0.0717975,7,1.84382,10,-4.0339e-05,-4.14389,-0.226035,-0.261021,0.561901,
2,0,0,1,0,8871.44,0.543093,0.542789,-0.0841226,7,1.84345,10,-4.56609e-05,-4.07509,-0.444707,-0.132672,0.542857,
2,0,0,1,0,8875.23,0.524116,0.523831,-0.0905293,7,1.84305,10,-4.7422e-05,-4.04321,-0.519629,-0.113543,0.523903,
2,0,0,1,0,8879.03,0.505139,0.504862,-0.0967728,7,1.84262,10,-4.88569e-05,-4.01425,-1.04116,-0.0566674,0.50494,
2,0,0,1,0,8882.82,0.486162,0.485886,-0.102347,7,1.84217,10,-4.97288e-05,-3.98993,-1.29715,-0.0454843,0.485968,
2,0,0,1,0,8886.62,0.467185,0.466917,-0.109057,7,1.8417,10,-5.09205e-05,-3.96235,-1.12157,-0.052605,0.467004,
2,0,0,1,0,8890.41,0.448208,0.44793,-0.11685,7,1.8412,10,-5.23404e-05,-3.93237,-0.382796,-0.154129,0.448023,
2,0,0,0,0,8894.21,0.429231,0.428968,-0.124296,7,1.84067,10,-5.33191e-05,-3.90554,1.58671,0.0371839,0.429067,
2,0,0,1,0,8898,0.410254,0.409997,-0.135975,7,1.8401,10,-5.57492e-05,-3.86654,-1.15321,-0.0511616,0.410106,
2,0,0,0,0,8901.8,0.391277,0.390978,-0.146347,7,1.8395,10,-5.72185e-05,-3.83462,-0.587408,-0.100441,0.391096,
2,0,0,1,0,8905.59,0.3723,0.371988,-0.157112,7,1.83885,10,-5.84437e-05,-3.80379,-0.608762,-0.096918,0.372113,
2,0,0,1,0,8909.39,0.353322,0.353017,-0.168376,7,1.83816,10,-5.94396e-05,-3.77372,-0.430727,-0.136978,0.353151,
2,0,0,1,0,8913.19,0.334345,0.334079,-0.179888,7,1.83742,10,-6.00968e-05,-3.745,-0.764753,-0.0771491,0.334223,
2,0,0,1,0,8916.98,0.315368,0.315075,-0.192919,7,1.83664,10,-6.0784e-05,-3.71462,-0.617119,-0.0956055,0.31523,
2,0,0,1,0,8920.78,0.296391,0.296085,-0.204885,7,1.83581,10,-6.06632e-05,-3.68849,-0.652164,-0.090468,0.296249,
2,0,0,1,0,8924.57,0.277414,0.277139,-0.217501,7,1.83493,10,-6.02779e-05,-3.66254,-0.640311,-0.0921427,0.277313,
2,0,0,1,0,8928.37,0.258437,0.258126,-0.229454,7,1.83401,10,-5.92278e-05,-3.63931,-1.05301,-0.0560298,0.258309,
2,0,0,1,0,8932.16,0.239461,0.239182,-0.242899,7,1.83304,10,-5.8097e-05,-3.61457,-0.616785,-0.0956573,0.239376,
2,0,0,0,0,8935.96,0.220483,0.220203,-0.25859,7,1.83201,10,-5.69424e-05,-3.58739,-0.43484,-0.135682,0.22041,
2,0,0,1,0,8939.75,0.201506,0.201199,-0.27946,7,1.83092,10,-5.6227e-05,-3.55368,-0.314274,-0.187734,0.201422,
2,0,0,0,0,8943.55,0.182529,0.182243,-0.316154,7,1.82972,10,-5.76168e-05,-3.5001,-0.196669,-0.299996,0.182496,
2,0,0,1,0,8947.34,0.163552,0.163241,-0.422236,7,1.82827,10,-6.89264e-05,-3.37444,-0.101918,-0.578898,0.163579,
2,0,0,0,0,8951.14,0.144575,0.144278,-0.736368,7,1.82606,10,-0.000106242,-3.1329,-0.0820912,-0.718713,0.144867,
2,0,0,1,0,8954.94,0.125598,0.125252,-0.900887,7,1.82274,10,-0.000112838,-3.04533,1.04081,0.0566868,0.125973,
2,0,0,1,0,8958.73,0.10662,0.106328,-0.783054,7,1.81944,10,-8.32605e-05,-3.10621,0.263441,0.223959,0.106954,
2,0,0,1,0,8962.53,0.0876433,0.0873354,-0.676723,7,1.81662,10,-5.91019e-05,-3.16959,0.447489,0.131847,0.0878768,
2,0,0,1,0,8966.32,0.0686664,0.0683994,-0.620167,7,1.81408,10,-4.2419e-05,-3.20749,0.537273,0.109814,0.0688955,
2,0,0,1,0,8970.12,0.0496895,0.0493643,-0.545677,7,1.81178,10,-2.6937e-05,-3.26306,0.370701,0.159158,0.0498008,
2,0,0,1,0,8973.91,0.0307126,0.0304194,-0.490114,7,1.80974,10,-1.4909e-05,-3.3097,0.677423,0.0870948,0.0308115,
2,0,0,1,0,8977.71,0.0117356,0.0114074,-0.476904,7,1.80784,10,-5.44021e-06,-3.32157,-3.7426,-0.0157645,0.0117889,
2,0,0,0,0,8980,0.000274105,-9.03109e-05,-0.488008,7,1.80668,10,4.40724e-08,-3.31157, , ,0.000300095,

File: 20221101_1-115_003_TrumpetPlot_ParaChange_from10_every3_16_CV_C01_0.csv
mode,ox/red,error,control changes,counter inc.,time/s,control/V,Ewe/V,<I>/mA,cycle number,(Q-Qo)/C,I Range,P/W,log(|I|),Tafel slope mV/dec,alpha_eff,E-IR/V,
2,0,0,0,0,1230.12,2.44065e-05,-0.000344411,-0.0357908,1,0.0000000E+000,10,1.23268e-08,-4.44623, , ,-0.000328663,
2,1,0,1,0,1233.87,0.0187763,0.0184996,0.266968,1,0.000960446,10,4.93881e-06,-3.57354,0.237608,0.248309,0.0183822,
2,1,0,1,0,1237.66,0.0377538,0.0374358,0.319236,1,0.00214585,10,1.19508e-05,-3.49589,0.238476,0.247404,0.0372953,
2,1,0,0,0,1241.46,0.0567309,0.0564372,0.391353,1,0.00357456,10,2.20869e-05,-3.40743,0.23501,0.251053,0.056265,
2,1,0,1,0,1245.26,0.075708,0.0753686,0.465888,1,0.00529751,10,3.51133e-05,-3.33172,0.346294,0.170376,0.0751636,
2,1,0,0,0,1249.05,0.094685,0.0943753,0.532289,1,0.0072673,10,5.02349e-05,-3.27385,0.290923,0.202803,0.0941411,
2,1,0,1,0,1252.85,0.113662,0.113388,0.663152,1,0.00958743,10,7.51938e-05,-3.17839,0.184167,0.320361,0.113097,
2,1,0,0,0,1256.64,0.132639,0.132344,0.790273,1,0.012438,10,0.000104588,-3.10222,0.438032,0.134693,0.131997,
2,1,0,1,0,1260.44,0.151617,0.151308,0.643099,1,0.0153954,10,9.7306e-05,-3.19172,-0.0763695,-0.772559,0.151025,
2,1,0,1,0,1264.23,0.170594,0.170264,0.393166,1,0.0173488,10,6.69422e-05,-3.40542,-0.131368,-0.449121,0.170091,
2,1,0,1,0,1268.03,0.189571,0.189267,0.325989,1,0.0187615,10,6.16989e-05,-3.4868,-0.474645,-0.124303,0.189123,
2,1,0,1,0,1271.82,0.208547,0.20827,0.301946,1,0.0200198,10,6.28864e-05,-3.52007,-2.51523,-0.0234571,0.208137,
2,1,0,1,0,1275.62,0.227524,0.227223,0.289855,1,0.0212127,10,6.58616e-05,-3.53782,-1.13542,-0.051963,0.227095,
2,1,0,1,0,1279.41,0.246501,0.246242,0.28078,1,0.0223684,10,6.91399e-05,-3.55163,-0.696312,-0.0847321,0.246119,
2,1,0,0,0,1283.21,0.265479,0.265234,0.276038,1,0.0234994,10,7.32149e-05,-3.55903,-0.740668,-0.0796578,0.265113,
2,1,0,1,0,1287,0.284456,0.284194,0.271146,1,0.0246113,10,7.70582e-05,-3.5668,12.2545,0.00481457,0.284075,
2,1,0,0,0,1290.8,0.303433,0.303123,0.26734,1,0.0257065,10,8.10369e-05,-3.57294,13.362,0.00441551,0.303005,
2,1,0,1,0,1294.6,0.32241,0.322088,0.263562,1,0.0267872,10,8.48902e-05,-3.57912,-2.63026,-0.0224312,0.321972,
2,1,0,0,0,1298.39,0.341387,0.341113,0.259374,1,0.0278531,10,8.84756e-05,-3.58607,-2.05288,-0.0287402,0.340999,
2,1,0,1,0,1302.19,0.360364,0.360091,0.257579,1,0.0289044,10,9.27518e-05,-3.58909,-2.02605,-0.0291207,0.359978,
2,1,0,1,0,1305.98,0.379342,0.379077,0.253261,1,0.0299427,10,9.60054e-05,-3.59643,-30.38,-0.00194207,0.378965,
2,1,0,1,0,1309.78,0.398318,0.398016,0.251717,1,0.0309723,10,0.000100187,-3.59909,-1.71294,-0.0344436,0.397905,
2,1,0,1,0,1313.57,0.417295,0.417034,0.250411,1,0.0319953,10,0.00010443,-3.60135,-1.31556,-0.0448478,0.416924,
2,1,0,1,0,1317.37,0.436272,0.436014,0.248673,1,0.0330118,10,0.000108425,-3.60437,3.51405,0.0167897,0.435905,
2,1,0,1,0,1321.16,0.455249,0.454937,0.250242,1,0.0340272,10,0.000113844,-3.60164,2.47565,0.0238321,0.454827,
2,1,0,1,0,1324.96,0.474226,0.473941,0.251404,1,0.0350466,10,0.000119151,-3.59963,0.748561,0.0788179,0.47383,
2,1,0,1,0,1328.75,0.493203,0.492947,0.254536,1,0.0360745,10,0.000125473,-3.59425,1.23638,0.0477199,0.492835,
2,1,0,0,0,1332.55,0.512181,0.511889,0.260423,1,0.0371176,10,0.000133308,-3.58432,1.17988,0.050005,0.511775,
2,1,0,1,0,1336.35,0.531158,0.530895,0.268054,1,0.0381866,10,0.000142309,-3.57178,0.86257,0.0684002,0.530777,
2,1,0,0,0,1340.14,0.550135,0.549851,0.281501,1,0.0392976,10,0.000154783,-3.55052,0.732614,0.0805336,0.549727,
2,1,0,1,0,1343.94,0.569112,0.568823,0.305972,1,0.0404782,10,0.000174044,-3.51432,0.474183,0.124425,0.568689,
2,1,0,0,0,1347.73,0.588089,0.587795,0.348394,1,0.0417771,10,0.000204785,-3.45793,0.256868,0.22969,0.587642,
2,1,0,1,0,1351.53,0.607066,0.606821,0.430833,1,0.0433025,10,0.000261438,-3.36569,0.15723,0.375246,0.606631,
2,1,0,1,0,1355.32,0.626043,0.625776,0.602507,1,0.0452873,10,0.000377034,-3.22004,0.105212,0.560773,0.625511,
2,1,0,1,0,1359.12,0.64502,0.64479,0.983612,1,0.048272,10,0.000634223,-3.00718,0.0757528,0.778849,0.644357,
2,1,0,1,0,1362.91,0.663997,0.663713,1.83535,1,0.0534918,10,0.00121815,-2.73628,0.0637074,0.926109,0.662905,
2,1,0,1,0,1366.71,0.682974,0.682697,3.56178,1,0.0634705,10,0.00243162,-2.44833,0.0646109,0.913159,0.68113,
2,1,0,1,0,1370.5,0.701951,0.701665,6.49728,1,0.08224,10,0.00455891,-2.18727,0.0733446,0.804421,0.698806,
2,1,0,1,0,1374.3,0.720928,0.720628,10.5552,1,0.114376,10,0.00760638,-1.97653,0.0913905,0.645582,0.715983,
2,1,0,1,0,1378.09,0.739905,0.739663,15.4488,1,0.163511,10,0.0114269,-1.81111,0.109622,0.538214,0.732865,
2,1,0,0,0,1381.89,0.758883,0.758624,21.5392,1,0.233307,10,0.0163401,-1.66677,0.115862,0.509225,0.749146,
2,1,0,1,0,1385.69,0.77786,0.777566,28.7107,1,0.328469,10,0.0223245,-1.54196,0.135338,0.435944,0.764933,
2,1,0,0,0,1389.48,0.796837,0.796586,36.4541,1,0.451972,10,0.0290388,-1.43825,0.247612,0.238276,0.780546,
2,1,0,1,0,1393.28,0.815814,0.815545,44.1148,1,0.604107,10,0.0359776,-1.35542,0.206512,0.285697,0.796134,
2,1,0,0,0,1397.07,0.834791,0.834577,51.2558,1,0.785442,10,0.0427769,-1.29026,0.302524,0.195026,0.812025,
2,1,0,0,0,1400.77,0.846726,0.846469,54.0206,1,0.985091,10,0.0457267,-1.26744,0.202366,0.291551,0.8227,
2,1,0,1,0,1404.56,0.827749,0.827545,46.3494,1,1.17451,10,0.0383562,-1.33396,0.245991,0.239846,0.807151,
2,1,0,1,0,1408.36,0.808772,0.808552,38.0221,1,1.33478,10,0.0307429,-1.41996,0.163258,0.361391,0.791822,
2,1,0,1,0,1412.15,0.789795,0.789553,29.7995,1,1.46345,10,0.0235283,-1.52579,0.127971,0.461043,0.776442,
2,1,0,1,0,1415.95,0.770818,0.770568,22.0931,1,1.56158,10,0.0170242,-1.65574,0.10603,0.556445,0.760847,
2,1,0,1,0,1419.74,0.751841,0.751629,15.395,1,1.63227,10,0.0115713,-1.81262,0.0936818,0.629791,0.744855,
2,1,0,1,0,1423.54,0.732865,0.732608,9.92073,1,1.67978,10,0.007268,-2.00346,0.0823467,0.716483,0.728243,
2,1,0,0,0,1427.34,0.713887,0.713625,5.8987,1,1.70931,10,0.00420946,-2.22924,0.0715376,0.824741,0.71103,
2,1,0,1,0,1431.13,0.69491,0.69467,3.17967,1,1.72607,10,0.00220882,-2.49762,0.0621492,0.949328,0.693271,
2,1,0,0,0,1434.93,0.675933,0.675657,1.51812,1,1.73463,10,0.00102573,-2.81869,0.0535558,1.10165,0.674989,
2,1,0,1,0,1438.72,0.656956,0.656714,0.639014,1,1.73846,10,0.000419649,-3.19449,0.0457538,1.28951,0.656433,
2,1,0,0,0,1442.52,0.637979,0.637717,0.229554,1,1.73993,10,0.00014639,-3.63912,0.0385507,1.53045,0.637616,
2,1,0,1,0,1446.31,0.619002,0.618757,0.0536246,1,1.74035,10,3.31806e-05,-4.27064,0.0183632,3.21294,0.618733,
2,0,0,0,0,1450.11,0.600024,0.599728,-0.0251171,1,1.74031,10,-1.50634e-05,-4.60003,-0.0193598,-3.04756,0.599739,
2,0,0,1,0,1453.9,0.581047,0.580758,-0.0586213,1,1.74008,10,-3.40448e-05,-4.23194,-0.497299,-0.118641,0.580784,
2,0,0,1,0,1457.7,0.56207,0.561758,-0.0738061,1,1.73976,10,-4.14612e-05,-4.13191,-0.39563,-0.149129,0.56179,
2,0,0,1,0,1461.49,0.543093,0.542799,-0.0846908,1,1.73938,10,-4.59701e-05,-4.07216,-0.285503,-0.206653,0.542836,
2,0,0,1,0,1465.29,0.524116,0.523813,-0.0913397,1,1.73898,10,-4.78449e-05,-4.03934,-0.339884,-0.173589,0.523853,
2,0,0,1,0,1469.09,0.505139,0.504879,-0.0970703,1,1.73855,10,-4.90087e-05,-4.01291,-0.678443,-0.0869638,0.504922,
2,0,0,1,0,1472.88,0.486162,0.485841,-0.102153,1,1.7381,10,-4.963e-05,-3.99075,-4.34724,-0.0135718,0.485886,
2,0,0,1,0,1476.68,0.467185,0.466863,-0.110809,1,1.73762,10,-5.17328e-05,-3.95542,-1.01591,-0.0580761,0.466911,
2,0,0,1,0,1480.47,0.448208,0.447923,-0.117899,1,1.73711,10,-5.28099e-05,-3.92849,-1.73339,-0.0340374,0.447975,
2,0,0,0,0,1484.27,0.429231,0.428988,-0.126768,1,1.73658,10,-5.43821e-05,-3.89699,3.18729,0.018511,0.429043,
2,0,0,1,0,1488.06,0.410254,0.409942,-0.135931,1,1.73601,10,-5.57236e-05,-3.86668,2.43212,0.0242586,0.410001,
2,0,0,0,0,1491.86,0.391277,0.390949,-0.14692,1,1.7354,10,-5.74381e-05,-3.83292,-1.28735,-0.0458306,0.391013,
2,0,0,1,0,1495.65,0.3723,0.372011,-0.157432,1,1.73476,10,-5.85666e-05,-3.80291,-0.920544,-0.0640926,0.37208,
2,0,0,1,0,1499.45,0.353322,0.353036,-0.16762,1,1.73407,10,-5.91757e-05,-3.77568,-0.575455,-0.102528,0.353109,
2,0,0,1,0,1503.24,0.334345,0.334059,-0.178203,1,1.73333,10,-5.95301e-05,-3.74909,-0.504255,-0.117004,0.334137,
2,0,0,1,0,1507.04,0.315368,0.315106,-0.19307,1,1.73255,10,-6.08374e-05,-3.71429,-1.08243,-0.0545067,0.315191,
2,0,0,1,0,1510.83,0.296391,0.296079,-0.205422,1,1.73172,10,-6.08213e-05,-3.68735,-0.775755,-0.076055,0.29617,
2,0,0,1,0,1514.63,0.277414,0.27708,-0.217323,1,1.73085,10,-6.02159e-05,-3.66289,-0.471681,-0.125084,0.277176,
2,0,0,1,0,1518.43,0.258437,0.258152,-0.230216,1,1.72992,10,-5.94309e-05,-3.63786,-0.622685,-0.0947509,0.258253,
2,0,0,1,0,1522.22,0.239461,0.239124,-0.243033,1,1.72895,10,-5.81151e-05,-3.61433,-0.795856,-0.074134,0.239231,
2,0,0,0,0,1526.02,0.220483,0.220201,-0.256121,1,1.72793,10,-5.63982e-05,-3.59155,-0.620024,-0.0951576,0.220314,
2,0,0,1,0,1529.81,0.201506,0.201221,-0.27564,1,1.72684,10,-5.54644e-05,-3.55966,-0.290584,-0.203039,0.201342,
2,0,0,0,0,1533.61,0.182529,0.18226,-0.310498,1,1.72566,10,-5.65912e-05,-3.50794,-0.235585,-0.25044,0.182396,
2,0,0,1,0,1537.4,0.163552,0.163248,-0.397683,1,1.72427,10,-6.49208e-05,-3.40046,-0.125411,-0.470455,0.163423,
2,0,0,0,0,1541.2,0.144575,0.144241,-0.669048,1,1.72224,10,-9.6504e-05,-3.17454,-0.0769543,-0.766689,0.144535,
2,0,0,1,0,1544.99,0.125598,0.125237,-0.868545,1,1.71911,10,-0.000108774,-3.06121,9.67195,0.00610011,0.12562,
2,0,0,1,0,1548.79,0.10662,0.106302,-0.780969,1,1.71587,10,-8.30183e-05,-3.10737,0.301637,0.195599,0.106645,
2,0,0,1,0,1552.58,0.0876433,0.0873279,-0.682175,1,1.71304,10,-5.95729e-05,-3.1661,0.531763,0.110952,0.087628,
2,0,0,1,0,1556.38,0.0686664,0.0684025,-0.625638,1,1.71048,10,-4.27952e-05,-3.20368,0.514724,0.114625,0.0686778,
2,0,0,1,0,1560.18,0.0496895,0.0493878,-0.559568,1,1.70815,10,-2.76358e-05,-3.25215,0.392353,0.150375,0.049634,
2,0,0,1,0,1563.97,0.0307126,0.0303863,-0.501282,1,1.70606,10,-1.52321e-05,-3.29992,0.672303,0.087758,0.0306068,
2,0,0,1,0,1567.77,0.0117356,0.0114274,-0.48031,1,1.70413,10,-5.48869e-06,-3.31848,-3.61108,-0.0163386,0.0116387,
2,0,0,0,0,1570.06,0.000274105,-8.7925e-05,-0.490265,1,1.70298,10,4.31066e-08,-3.30957, , ,0.000127792,