Folder: Figs_alphaMnO2_OER_Tafel_sleope/Figure_codes/Fig_3-5/workspace_calculate_alpha_eff (part 18)

File: 20221101_1-115_003_TrumpetPlot_ParaChange_from10_every3_16_CV_C01_27.csv
mode,ox/red,error,control changes,counter inc.,time/s,control/V,Ewe/V,<I>/mA,cycle number,(Q-Qo)/C,I Range,P/W,log(|I|),Tafel slope mV/dec,alpha_eff,E-IR/V,
2,0,0,1,0,18961.3,2.44065e-05,-0.000497109,-0.059324,28,0.0000000E+000,10,2.94905e-08,-4.22677, , ,-0.000471007,
2,1,0,1,0,18965,0.0187763,0.018416,0.27822,28,0.000940877,10,5.12369e-06,-3.55561,0.18152,0.325033,0.0182936,
2,1,0,0,0,18968.8,0.0377538,0.037422,0.344362,28,0.00218867,10,1.28867e-05,-3.46298,0.226737,0.260213,0.0372704,
2,1,0,1,0,18972.6,0.0567309,0.0563926,0.407473,28,0.00368707,10,2.29785e-05,-3.3899,0.323251,0.182521,0.0562134,
2,1,0,0,0,18976.4,0.075708,0.0754025,0.451848,28,0.00539223,10,3.40705e-05,-3.34501,0.444252,0.132807,0.0752037,
2,1,0,1,0,18980.2,0.0946851,0.0943753,0.509508,28,0.00726637,10,4.8085e-05,-3.29285,0.236293,0.24969,0.0941512,
2,1,0,0,0,18984,0.113662,0.113352,0.612161,28,0.00946426,10,6.93899e-05,-3.21313,0.339918,0.173571,0.113083,
2,1,0,1,0,18987.8,0.132639,0.132309,0.672265,28,0.0119798,10,8.89469e-05,-3.17246,-1.7414,-0.0338808,0.132013,
2,1,0,1,0,18991.6,0.151617,0.151281,0.457527,28,0.0142746,10,6.92153e-05,-3.33958,-0.0798436,-0.738945,0.15108,
2,1,0,1,0,18995.4,0.170594,0.170262,0.336441,28,0.0157807,10,5.72833e-05,-3.47309,-0.268312,-0.219894,0.170114,
2,1,0,1,0,18999.2,0.189571,0.189236,0.308768,28,0.0170547,10,5.843e-05,-3.51037,-0.701014,-0.0841638,0.1891,
2,1,0,1,0,19003,0.208547,0.208225,0.295055,28,0.0182559,10,6.14377e-05,-3.5301,-1.29484,-0.0455654,0.208095,
2,1,0,1,0,19006.8,0.227524,0.2272,0.286939,28,0.0194183,10,6.51924e-05,-3.54221,-1.56851,-0.0376152,0.227073,
2,1,0,1,0,19010.6,0.246501,0.246191,0.280927,28,0.0205563,10,6.91617e-05,-3.55141,-0.648316,-0.0910049,0.246068,
2,1,0,1,0,19014.4,0.265479,0.265219,0.277961,28,0.0216759,10,7.37205e-05,-3.55602,-1.61114,-0.03662,0.265096,
2,1,0,0,0,19018.2,0.284456,0.284149,0.273153,28,0.0227782,10,7.76161e-05,-3.56359,4.28646,0.0137643,0.284029,
2,1,0,1,0,19022,0.303433,0.30312,0.269387,28,0.0238635,10,8.16564e-05,-3.56962,-3.80148,-0.0155203,0.303001,
2,1,0,0,0,19025.8,0.32241,0.322063,0.265595,28,0.0249337,10,8.55384e-05,-3.57578,32.7798,0.00179989,0.321946,
2,1,0,1,0,19029.6,0.341387,0.341064,0.262122,28,0.0259916,10,8.94005e-05,-3.5815,-2.72646,-0.0216397,0.340949,
2,1,0,0,0,19033.4,0.360364,0.360078,0.259734,28,0.0270366,10,9.35246e-05,-3.58547,-1.99747,-0.0295374,0.359964,
2,1,0,1,0,19037.2,0.379342,0.379029,0.256739,28,0.0280716,10,9.73115e-05,-3.59051,-3.25391,-0.018132,0.378916,
2,1,0,1,0,19041,0.398319,0.39802,0.254912,28,0.0290975,10,0.00010146,-3.59361,147.356,0.00040039,0.397907,
2,1,0,1,0,19044.7,0.417295,0.416981,0.253933,28,0.0301163,10,0.000105885,-3.59528,63.7653,0.000925268,0.416869,
2,1,0,1,0,19048.5,0.436272,0.436006,0.254129,28,0.0311298,10,0.000110802,-3.59495,2.14503,0.0275054,0.435895,
2,1,0,1,0,19052.3,0.455249,0.454963,0.253072,28,0.0321416,10,0.000115138,-3.59676,13.0606,0.00451739,0.454852,
2,1,0,1,0,19056.1,0.474226,0.473907,0.254326,28,0.0331541,10,0.000120527,-3.59461,1.63852,0.0360081,0.473795,
2,1,0,1,0,19059.9,0.493203,0.492927,0.257179,28,0.0341724,10,0.00012677,-3.58977,1.29383,0.045601,0.492813,
2,1,0,1,0,19063.7,0.512181,0.51185,0.260712,28,0.0352023,10,0.000133445,-3.58384,4.23027,0.0139471,0.511735,
2,1,0,0,0,19067.5,0.531158,0.530846,0.267278,28,0.0362515,10,0.000141884,-3.57304,1.28205,0.0460201,0.530728,
2,1,0,1,0,19071.3,0.550135,0.549806,0.277511,28,0.0373312,10,0.000152577,-3.55672,1.34933,0.0437255,0.549684,
2,1,0,0,0,19075.1,0.569112,0.568865,0.293127,28,0.0384574,10,0.00016675,-3.53294,0.745648,0.0791258,0.568736,
2,1,0,1,0,19078.9,0.588089,0.587792,0.318953,28,0.0396589,10,0.000187478,-3.49627,0.472838,0.124779,0.587652,
2,1,0,0,0,19082.7,0.607066,0.606749,0.363738,28,0.0409896,10,0.000220697,-3.43921,0.261627,0.225512,0.606589,
2,1,0,1,0,19086.5,0.626044,0.625801,0.454499,28,0.0425696,10,0.000284426,-3.34247,0.164312,0.359072,0.625601,
2,1,0,1,0,19090.3,0.64502,0.644746,0.644629,28,0.0446577,10,0.000415622,-3.19069,0.102154,0.57756,0.644462,
2,1,0,1,0,19094.1,0.663997,0.663735,1.05219,28,0.0478325,10,0.000698375,-2.97791,0.0810068,0.728334,0.663272,
2,1,0,1,0,19097.9,0.682974,0.682675,1.86021,28,0.0532445,10,0.00126992,-2.73044,0.0727791,0.810672,0.681856,
2,1,0,1,0,19101.7,0.701951,0.701646,3.26075,28,0.0628011,10,0.00228789,-2.48668,0.0789333,0.747467,0.700211,
2,1,0,1,0,19105.5,0.720928,0.720646,5.33827,28,0.078952,10,0.003847,-2.2726,0.0913032,0.646198,0.718297,
2,1,0,1,0,19109.3,0.739905,0.739623,8.06767,28,0.104243,10,0.00596703,-2.09325,0.109045,0.541061,0.736073,
2,1,0,1,0,19113.1,0.758883,0.758631,11.4212,28,0.141066,10,0.00866451,-1.94229,0.124125,0.475328,0.753606,
2,1,0,0,0,19116.9,0.77786,0.777598,15.6772,28,0.192163,10,0.0121905,-1.80473,0.126181,0.467581,0.770701,
2,1,0,1,0,19120.7,0.796837,0.79658,21.1468,28,0.261708,10,0.0168451,-1.67476,0.131822,0.447572,0.787275,
2,1,0,0,0,19124.4,0.815814,0.81558,27.6738,28,0.354146,10,0.0225702,-1.55793,0.142241,0.414788,0.803404,
2,1,0,1,0,19128.2,0.834791,0.834557,34.9271,28,0.473064,10,0.0291486,-1.45684,0.180171,0.327467,0.819189,
2,1,0,1,0,19131.9,0.846727,0.846452,38.6898,28,0.614144,10,0.032749,-1.4124,0.135274,0.43615,0.829428,
2,1,0,1,0,19135.7,0.827749,0.827484,30.4245,28,0.744806,10,0.0251758,-1.51678,0.140545,0.419795,0.814097,
2,1,0,1,0,19139.5,0.808772,0.808497,22.196,28,0.843959,10,0.0179454,-1.65373,0.131916,0.447254,0.798731,
2,1,0,1,0,19143.3,0.789795,0.789532,16.4163,28,0.916914,10,0.0129612,-1.78472,0.116843,0.504953,0.782309,
2,1,0,1,0,19147.1,0.770818,0.770576,11.8277,28,0.969993,10,0.00911414,-1.9271,0.108719,0.542681,0.765372,
2,1,0,1,0,19150.9,0.751841,0.751576,8.0303,28,1.00731,10,0.00603538,-2.09527,0.098931,0.596375,0.748043,
2,1,0,1,0,19154.7,0.732865,0.732635,5.17512,28,1.03204,10,0.00379147,-2.28608,0.0872103,0.676526,0.730357,
2,1,0,1,0,19158.5,0.713887,0.713627,3.09898,28,1.04747,10,0.00221152,-2.50878,0.075492,0.78154,0.712264,
2,1,0,0,0,19162.3,0.69491,0.694648,1.68802,28,1.05632,10,0.00117258,-2.77262,0.0637166,0.925975,0.693905,
2,1,0,1,0,19166.1,0.675933,0.675677,0.810252,28,1.06087,10,0.000547469,-3.09138,0.0517451,1.1402,0.675321,
2,1,0,0,0,19169.9,0.656956,0.656674,0.326839,28,1.06288,10,0.000214626,-3.48567,0.0422319,1.39705,0.65653,
2,1,0,1,0,19173.7,0.637979,0.637731,0.0925168,28,1.06357,10,5.90008e-05,-4.03378,0.0269199,2.19169,0.63769,
2,0,0,0,0,19177.5,0.619002,0.618739,-0.0107044,28,1.06365,10,-6.62323e-06,-4.97044,-0.00646388,-9.12764,0.618744,
2,0,0,1,0,19181.3,0.600025,0.599724,-0.0552024,28,1.06347,10,-3.31062e-05,-4.25804,-0.0836563,-0.705267,0.599748,
2,0,0,1,0,19185.1,0.581047,0.580725,-0.0754019,28,1.06317,10,-4.37878e-05,-4.12262,-0.222473,-0.265201,0.580758,
2,0,0,1,0,19188.9,0.56207,0.561813,-0.0876559,28,1.06281,10,-4.92462e-05,-4.05722,-0.480879,-0.122692,0.561852,
2,0,0,1,0,19192.7,0.543093,0.542742,-0.0939466,28,1.06242,10,-5.09887e-05,-4.02712,-1.72205,-0.0342614,0.542783,
2,0,0,1,0,19196.5,0.524116,0.523784,-0.100303,28,1.06201,10,-5.25371e-05,-3.99869,9.92991,0.00594165,0.523828,
2,0,0,1,0,19200.3,0.505139,0.504845,-0.104752,28,1.06158,10,-5.28835e-05,-3.97984,-0.631349,-0.0934506,0.504891,
2,0,0,1,0,19204.1,0.486162,0.485841,-0.109995,28,1.06112,10,-5.344e-05,-3.95863,-0.786065,-0.0750574,0.485889,
2,0,0,1,0,19207.8,0.467185,0.466888,-0.116955,28,1.06064,10,-5.46049e-05,-3.93198,-0.772091,-0.0764159,0.466939,
2,0,0,0,0,19211.6,0.448208,0.447912,-0.123955,28,1.06014,10,-5.55208e-05,-3.90674,-1.59308,-0.0370352,0.447966,
2,0,0,1,0,19215.4,0.429231,0.428912,-0.132381,28,1.0596,10,-5.67798e-05,-3.87817,-1.34281,-0.0439378,0.428971,
2,0,0,0,0,19219.2,0.410254,0.409942,-0.141039,28,1.05903,10,-5.78179e-05,-3.85066,-1.44244,-0.0409028,0.410004,
2,0,0,1,0,19223,0.391277,0.390973,-0.150754,28,1.05843,10,-5.89406e-05,-3.82173,-0.534016,-0.110484,0.391039,
2,0,0,0,0,19226.8,0.3723,0.372008,-0.161525,28,1.05778,10,-6.00887e-05,-3.79176,-0.537256,-0.109817,0.372079,
2,0,0,1,0,19230.6,0.353322,0.353009,-0.171879,28,1.05709,10,-6.06748e-05,-3.76478,-0.446714,-0.132075,0.353085,
2,0,0,1,0,19234.4,0.334345,0.334061,-0.183209,28,1.05636,10,-6.12029e-05,-3.73705,-0.87465,-0.0674556,0.334141,
2,0,0,1,0,19238.2,0.315368,0.315029,-0.195342,28,1.05559,10,-6.15383e-05,-3.70921,-0.860602,-0.0685566,0.315115,
2,0,0,1,0,19242,0.296391,0.29608,-0.207871,28,1.05477,10,-6.15465e-05,-3.68221,-0.774549,-0.0761733,0.296172,
2,0,0,1,0,19245.8,0.277414,0.277111,-0.219934,28,1.0539,10,-6.09462e-05,-3.65771,-0.704216,-0.0837811,0.277208,
2,0,0,1,0,19249.6,0.258437,0.25813,-0.234448,28,1.05298,10,-6.0518e-05,-3.62995,-1.02699,-0.0574496,0.258233,
2,0,0,1,0,19253.4,0.239461,0.239182,-0.245234,28,1.05201,10,-5.86555e-05,-3.61042,-0.812048,-0.0726558,0.239289,
2,0,0,1,0,19257.2,0.220483,0.220164,-0.258278,28,1.05099,10,-5.68636e-05,-3.58791,-0.532425,-0.110814,0.220278,
2,0,0,0,0,19261,0.201506,0.201206,-0.272701,28,1.04993,10,-5.48691e-05,-3.56431,-0.525222,-0.112333,0.201326,
2,0,0,1,0,19264.8,0.182529,0.182215,-0.294363,28,1.0488,10,-5.36374e-05,-3.53112,-0.382009,-0.154447,0.182345,
2,0,0,0,0,19268.6,0.163552,0.163203,-0.337348,28,1.04755,10,-5.50563e-05,-3.47192,-0.227218,-0.259662,0.163352,
2,0,0,1,0,19272.4,0.144575,0.144267,-0.470925,28,1.046,10,-6.79392e-05,-3.32705,-0.0837315,-0.704634,0.144475,
2,0,0,0,0,19276.2,0.125598,0.125252,-0.719354,28,1.04365,10,-9.01007e-05,-3.14306,-0.222861,-0.264738,0.125569,
2,0,0,1,0,19280,0.10662,0.106331,-0.73148,28,1.04077,10,-7.77789e-05,-3.1358,0.784032,0.075252,0.106653,
2,0,0,1,0,19283.8,0.0876433,0.0873054,-0.675153,28,1.03803,10,-5.89445e-05,-3.1706,0.570302,0.103454,0.0876025,
2,0,0,1,0,19287.6,0.0686664,0.0683006,-0.627807,28,1.0355,10,-4.28796e-05,-3.20217,0.847464,0.0696195,0.0685768,
2,0,0,1,0,19291.3,0.0496895,0.0493474,-0.581143,28,1.03313,10,-2.86779e-05,-3.23572,0.585624,0.100747,0.0496031,
2,0,0,1,0,19295.1,0.0307126,0.0303831,-0.532334,28,1.03095,10,-1.6174e-05,-3.27382,0.513848,0.11482,0.0306173,
2,0,0,1,0,19298.9,0.0117356,0.0113852,-0.497644,28,1.02894,10,-5.66578e-06,-3.30308,1.16377,0.0506972,0.0116042,
2,0,0,1,0,19301.2,0.000274105,-8.07672e-05,-0.49707,28,1.02776,10,4.0147e-08,-3.30358, , ,0.000137943,

File: 20221101_1-115_003_TrumpetPlot_ParaChange_from10_every3_16_CV_C01_28.csv
mode,ox/red,error,control changes,counter inc.,time/s,control/V,Ewe/V,<I>/mA,cycle number,(Q-Qo)/C,I Range,P/W,log(|I|),Tafel slope mV/dec,alpha_eff,E-IR/V,
2,0,0,0,0,19331.3,2.44065e-05,-0.000401673,-0.0962139,29,0.0000000E+000,10,3.86465e-08,-4.01676, , ,-0.000359339,
2,1,0,1,0,19335,0.0187763,0.0184284,0.229511,29,0.000759405,10,4.22953e-06,-3.6392,0.163662,0.360499,0.0183274,
2,1,0,1,0,19338.8,0.0377538,0.037388,0.297138,29,0.00182452,10,1.11094e-05,-3.52704,0.178252,0.330992,0.0372573,
2,1,0,0,0,19342.6,0.0567309,0.0564404,0.360676,29,0.00314529,10,2.03567e-05,-3.44288,0.284691,0.207242,0.0562817,
2,1,0,1,0,19346.4,0.075708,0.0753729,0.410522,29,0.00468491,10,3.09422e-05,-3.38666,0.46938,0.125698,0.0751922,
2,1,0,0,0,19350.2,0.0946851,0.0943319,0.468655,29,0.00640563,10,4.42091e-05,-3.32915,0.227324,0.259542,0.0941257,
2,1,0,1,0,19354,0.113662,0.11333,0.575085,29,0.00845601,10,6.51745e-05,-3.24027,0.312735,0.188658,0.113077,
2,1,0,0,0,19357.8,0.132639,0.132332,0.640129,29,0.0108409,10,8.47092e-05,-3.19373,-1.71337,-0.034435,0.13205,
2,1,0,1,0,19361.6,0.151617,0.151287,0.426853,29,0.0130234,10,6.45772e-05,-3.36972,-0.0741206,-0.796,0.151099,
2,1,0,1,0,19365.4,0.170594,0.170268,0.302892,29,0.0144049,10,5.15727e-05,-3.51871,-0.21997,-0.268219,0.170135,
2,1,0,1,0,19369.2,0.189571,0.189262,0.273622,29,0.0155483,10,5.17862e-05,-3.56285,-0.671077,-0.0879184,0.189141,
2,1,0,1,0,19373,0.208547,0.208231,0.260977,29,0.0166172,10,5.43435e-05,-3.5834,-0.703104,-0.0839137,0.208116,
2,1,0,1,0,19376.8,0.227524,0.227195,0.252199,29,0.017645,10,5.72984e-05,-3.59826,-0.880412,-0.0670141,0.227084,
2,1,0,1,0,19380.6,0.246501,0.246203,0.245654,29,0.0186471,10,6.04808e-05,-3.60968,-1.47718,-0.0399408,0.246095,
2,1,0,0,0,19384.4,0.265479,0.265211,0.243094,29,0.0196314,10,6.44713e-05,-3.61423,-1.5038,-0.0392338,0.265104,
2,1,0,1,0,19388.2,0.284456,0.28418,0.237756,29,0.0205997,10,6.75654e-05,-3.62387,-2.57603,-0.0229035,0.284075,
2,1,0,0,0,19392,0.303433,0.303135,0.233607,29,0.0215512,10,7.08146e-05,-3.63151,-2.34728,-0.0251355,0.303033,
2,1,0,1,0,19395.8,0.32241,0.322142,0.230179,29,0.0224867,10,7.41505e-05,-3.63793,2.67759,0.0220347,0.322041,
2,1,0,0,0,19399.6,0.341387,0.341069,0.227391,29,0.0234101,10,7.75561e-05,-3.64323,-2.07857,-0.0283849,0.340969,
2,1,0,1,0,19403.4,0.360364,0.360074,0.225867,29,0.024323,10,8.13288e-05,-3.64615,2.80963,0.0209992,0.359975,
2,1,0,1,0,19407.2,0.379342,0.379006,0.223826,29,0.025227,10,8.48312e-05,-3.65009,9.26533,0.00636782,0.378907,
2,1,0,1,0,19411,0.398319,0.39801,0.221486,29,0.0261232,10,8.81537e-05,-3.65465,53.7406,0.00109787,0.397913,
2,1,0,1,0,19414.7,0.417295,0.417043,0.220913,29,0.0270139,10,9.21303e-05,-3.65578,-2.48382,-0.0237538,0.416946,
2,1,0,1,0,19418.5,0.436272,0.43597,0.222017,29,0.027901,10,9.67928e-05,-3.65361,10.5045,0.00561662,0.435873,
2,1,0,1,0,19422.3,0.455249,0.454979,0.2208,29,0.0287879,10,0.00010046,-3.656,1.7787,0.0331703,0.454882,
2,1,0,1,0,19426.1,0.474226,0.473882,0.222653,29,0.0296775,10,0.000105511,-3.65237,0.763808,0.0772446,0.473784,
2,1,0,1,0,19429.9,0.493203,0.49295,0.225854,29,0.0305753,10,0.000111335,-3.64617,1.54369,0.03822,0.49285,
2,1,0,0,0,19433.7,0.512181,0.511917,0.230153,29,0.0314872,10,0.000117819,-3.63798,0.954558,0.0618087,0.511815,
2,1,0,1,0,19437.5,0.531158,0.530856,0.236881,29,0.0324209,10,0.00012575,-3.62547,2.01275,0.0293131,0.530751,
2,1,0,0,0,19441.3,0.550135,0.549831,0.246815,29,0.0333845,10,0.000135706,-3.60763,0.802274,0.073541,0.549722,
2,1,0,1,0,19445.1,0.569112,0.568833,0.262817,29,0.0343946,10,0.000149499,-3.58035,0.479092,0.12315,0.568717,
2,1,0,0,0,19448.9,0.588089,0.587816,0.288936,29,0.0354815,10,0.000169841,-3.5392,0.389489,0.15148,0.587689,
2,1,0,1,0,19452.7,0.607066,0.606805,0.333619,29,0.0366975,10,0.000202442,-3.47675,0.264382,0.223162,0.606658,
2,1,0,1,0,19456.5,0.626044,0.625772,0.421755,29,0.0381549,10,0.000263922,-3.37494,0.149915,0.393558,0.625586,
2,1,0,1,0,19460.3,0.64502,0.644704,0.606571,29,0.0401082,10,0.000391059,-3.21712,0.0952964,0.619121,0.644437,
2,1,0,1,0,19464.1,0.663997,0.663675,1.00449,29,0.043123,10,0.000666657,-2.99805,0.0769875,0.766358,0.663233,
2,1,0,1,0,19467.9,0.682974,0.682703,1.79565,29,0.0483273,10,0.0012259,-2.74578,0.0724767,0.814055,0.681912,
2,1,0,1,0,19471.7,0.701951,0.701656,3.16347,29,0.0575853,10,0.00221967,-2.49984,0.0785055,0.75154,0.700264,
2,1,0,1,0,19475.5,0.720928,0.720684,5.19414,29,0.0732857,10,0.00374333,-2.28449,0.0899148,0.656176,0.718399,
2,1,0,1,0,19479.3,0.739905,0.739647,7.86059,29,0.0979091,10,0.00581406,-2.10455,0.105995,0.556629,0.736188,
2,1,0,0,0,19483.1,0.758883,0.758625,11.1301,29,0.133767,10,0.00844358,-1.9535,0.121342,0.486228,0.753727,
2,1,0,1,0,19486.9,0.77786,0.777549,15.3088,29,0.183624,10,0.0119033,-1.81506,0.124144,0.475253,0.770813,
2,1,0,0,0,19490.7,0.796837,0.796563,20.7372,29,0.251647,10,0.0165184,-1.68325,0.1268,0.465301,0.787438,
2,1,0,1,0,19494.5,0.815814,0.815561,27.323,29,0.342664,10,0.0222836,-1.56347,0.143362,0.411544,0.803539,
2,1,0,0,0,19498.2,0.834791,0.834576,34.8074,29,0.460525,10,0.0290494,-1.45833,0.162587,0.362882,0.819261,
2,1,0,0,0,19501.9,0.846727,0.846504,38.8464,29,0.601613,10,0.0328836,-1.41065,0.142277,0.414685,0.829411,
2,1,0,1,0,19505.7,0.827749,0.827494,30.0176,29,0.732274,10,0.0248394,-1.52262,0.149357,0.395027,0.814287,
2,1,0,1,0,19509.5,0.808772,0.808547,22.9115,29,0.832308,10,0.018525,-1.63995,0.131916,0.447255,0.798466,
2,1,0,1,0,19513.3,0.789795,0.789516,16.9391,29,0.907875,10,0.0133737,-1.77111,0.114609,0.514795,0.782063,
2,1,0,1,0,19517.1,0.770818,0.770582,11.9069,29,0.962135,10,0.00917528,-1.9242,0.107388,0.549412,0.765343,
2,1,0,1,0,19520.9,0.751841,0.751526,8.02106,29,0.999537,10,0.00602804,-2.09577,0.0979923,0.602088,0.747997,
2,1,0,1,0,19524.7,0.732865,0.732573,5.16152,29,1.02424,10,0.00378119,-2.28722,0.0853904,0.690944,0.730302,
2,1,0,0,0,19528.5,0.713887,0.713611,3.0787,29,1.03959,10,0.002197,-2.51163,0.0754055,0.782437,0.712257,
2,1,0,1,0,19532.3,0.69491,0.694604,1.66287,29,1.04836,10,0.00115503,-2.77914,0.0624615,0.944581,0.693872,
2,1,0,0,0,19536.1,0.675933,0.675606,0.783018,29,1.0528,10,0.000529012,-3.10623,0.0511102,1.15437,0.675262,
2,1,0,1,0,19539.9,0.656956,0.656681,0.303699,29,1.05472,10,0.000199433,-3.51756,0.0386542,1.52635,0.656548,
2,1,0,0,0,19543.7,0.637979,0.637699,0.0712436,29,1.05532,10,4.5432e-05,-4.14725,0.020164,2.926,0.637668,
2,0,0,1,0,19547.5,0.619002,0.618687,-0.0312282,29,1.05532,10,-1.93205e-05,-4.50545,-0.0204368,-2.88695,0.618701,
2,0,0,0,0,19551.3,0.600025,0.599691,-0.073918,29,1.05507,10,-4.43279e-05,-4.13125,-0.11313,-0.521523,0.599723,
2,0,0,1,0,19555.1,0.581047,0.580761,-0.0945584,29,1.05469,10,-5.49158e-05,-4.0243,-0.372898,-0.15822,0.580803,
2,0,0,1,0,19558.9,0.56207,0.561765,-0.104698,29,1.05427,10,-5.88159e-05,-3.98006,-0.762767,-0.07735,0.561811,
2,0,0,1,0,19562.7,0.543093,0.542801,-0.111322,29,1.05381,10,-6.04258e-05,-3.95342,-2.7363,-0.021562,0.54285,
2,0,0,1,0,19566.5,0.524116,0.523824,-0.115958,29,1.05333,10,-6.07417e-05,-3.9357,-1.79079,-0.0329463,0.523875,
2,0,0,1,0,19570.3,0.505139,0.504862,-0.120381,29,1.05284,10,-6.07759e-05,-3.91944,-0.877941,-0.0672027,0.504915,
2,0,0,1,0,19574.1,0.486162,0.485869,-0.126149,29,1.05232,10,-6.12918e-05,-3.89912,-1.4448,-0.0408361,0.485925,
2,0,0,1,0,19577.9,0.467185,0.466865,-0.132393,29,1.05178,10,-6.18098e-05,-3.87813,-1.10876,-0.0532128,0.466923,
2,0,0,1,0,19581.6,0.448208,0.447959,-0.139273,29,1.05122,10,-6.23885e-05,-3.85613,-0.788704,-0.0748063,0.448021,
2,0,0,0,0,19585.4,0.429231,0.428916,-0.147743,29,1.05063,10,-6.33692e-05,-3.83049,-2.15239,-0.0274114,0.428981,
2,0,0,1,0,19589.2,0.410254,0.409953,-0.156054,29,1.05,10,-6.39748e-05,-3.80673,-1.00088,-0.058948,0.410022,
2,0,0,0,0,19593,0.391277,0.391001,-0.165061,29,1.04934,10,-6.45391e-05,-3.78235,-0.790731,-0.0746145,0.391073,
2,0,0,1,0,19596.8,0.3723,0.371963,-0.176195,29,1.04864,10,-6.55379e-05,-3.75401,-0.479941,-0.122932,0.372041,
2,0,0,1,0,19600.6,0.353322,0.353029,-0.186309,29,1.0479,10,-6.57726e-05,-3.72977,-0.921749,-0.0640088,0.353111,
2,0,0,1,0,19604.4,0.334345,0.334069,-0.196951,29,1.04712,10,-6.57955e-05,-3.70564,-0.577301,-0.1022,0.334156,
2,0,0,1,0,19608.2,0.315368,0.315035,-0.209645,29,1.04629,10,-6.60456e-05,-3.67852,-0.55962,-0.105429,0.315127,
2,0,0,1,0,19612,0.296391,0.296078,-0.220644,29,1.04542,10,-6.53279e-05,-3.65631,-0.731634,-0.0806414,0.296175,
2,0,0,1,0,19615.8,0.277414,0.277113,-0.233363,29,1.0445,10,-6.46678e-05,-3.63197,-0.91718,-0.0643276,0.277216,
2,0,0,1,0,19619.6,0.258437,0.25813,-0.245537,29,1.04354,10,-6.33805e-05,-3.60988,-0.75728,-0.0779104,0.258238,
2,0,0,1,0,19623.4,0.239461,0.239114,-0.256842,29,1.04253,10,-6.14145e-05,-3.59033,-0.759798,-0.0776522,0.239227,
2,0,0,0,0,19627.2,0.220483,0.22016,-0.26864,29,1.04148,10,-5.91438e-05,-3.57083,-0.565664,-0.104302,0.220278,
2,0,0,1,0,19631,0.201506,0.201193,-0.282978,29,1.04037,10,-5.69332e-05,-3.54825,-0.489904,-0.120432,0.201318,
2,0,0,0,0,19634.8,0.182529,0.182222,-0.304242,29,1.0392,10,-5.54394e-05,-3.51678,-0.357453,-0.165057,0.182355,
2,0,0,1,0,19638.6,0.163552,0.163243,-0.346202,29,1.03791,10,-5.65153e-05,-3.46067,-0.235199,-0.250852,0.163396,
2,0,0,0,0,19642.4,0.144575,0.14426,-0.475495,29,1.03634,10,-6.85949e-05,-3.32285,-0.0876634,-0.673029,0.144469,
2,0,0,1,0,19646.2,0.125598,0.125266,-0.722994,29,1.03397,10,-9.05667e-05,-3.14087,-0.223164,-0.264379,0.125584,
2,0,0,1,0,19650,0.10662,0.106283,-0.740352,29,1.03108,10,-7.8687e-05,-3.13056,0.929081,0.0635036,0.106609,
2,0,0,1,0,19653.8,0.0876433,0.0872915,-0.682252,29,1.02831,10,-5.95548e-05,-3.16606,0.506211,0.116552,0.0875917,
2,0,0,1,0,19657.6,0.0686664,0.0683444,-0.633844,29,1.02576,10,-4.33197e-05,-3.19802,0.739786,0.0797528,0.0686233,
2,0,0,1,0,19661.3,0.0496895,0.04936,-0.588148,29,1.02337,10,-2.9031e-05,-3.23051,0.50622,0.11655,0.0496188,
2,0,0,1,0,19665.1,0.0307126,0.0304321,-0.53738,29,1.02116,10,-1.63536e-05,-3.26972,0.479597,0.12302,0.0306686,
2,0,0,1,0,19668.9,0.0117356,0.0114295,-0.502756,29,1.01913,10,-5.74626e-06,-3.29864,1.67734,0.0351748,0.0116507,
2,0,0,0,0,19671.2,0.000274105,-9.26968e-05,-0.502857,29,1.01794,10,4.66132e-08,-3.29856, , ,0.00012856,