Folder: Figs_alphaMnO2_OER_Tafel_sleope/Figure_codes/Fig_3-5/workspace_calculate_alpha_eff (part 37)

File: 20221101_1-115_003_TrumpetPlot_ParaChange_from10_every3_16_CV_C01_65.csv
mode,ox/red,error,control changes,counter inc.,time/s,control/V,Ewe/V,<I>/mA,cycle number,(Q-Qo)/C,I Range,P/W,log(|I|),Tafel slope mV/dec,alpha_eff,E-IR/V,
2,0,0,0,0,43342.9,2.44065e-05,-0.000363498,-0.0936697,66,0.0000000E+000,10,3.40488e-08,-4.0284, , ,-0.000322283,
2,1,0,1,0,43346.6,0.0187763,0.0184444,0.206809,66,0.000676954,10,3.81445e-06,-3.68443,0.152671,0.386453,0.0183534,
2,1,0,1,0,43350.4,0.0377538,0.0373817,0.270516,66,0.00164491,10,1.01123e-05,-3.56781,0.177654,0.332106,0.0372626,
2,1,0,0,0,43354.2,0.0567309,0.0564626,0.332769,66,0.00286108,10,1.8789e-05,-3.47786,0.318446,0.185275,0.0563162,
2,1,0,1,0,43358,0.075708,0.0753527,0.379899,66,0.00428387,10,2.86264e-05,-3.42033,0.394976,0.149376,0.0751856,
2,1,0,0,0,43361.8,0.094685,0.0943722,0.433283,66,0.00587686,10,4.08898e-05,-3.36323,0.254015,0.23227,0.0941815,
2,1,0,1,0,43365.6,0.113662,0.113333,0.531795,66,0.00777048,10,6.02701e-05,-3.27426,0.30694,0.19222,0.113099,
2,1,0,0,0,43369.4,0.132639,0.132385,0.572216,66,0.00994833,10,7.57525e-05,-3.24244,-0.723015,-0.0816028,0.132133,
2,1,0,1,0,43373.2,0.151617,0.151289,0.371452,66,0.0118717,10,5.61966e-05,-3.4301,-0.0745402,-0.791519,0.151125,
2,1,0,1,0,43377,0.170594,0.170287,0.276783,66,0.0131038,10,4.71324e-05,-3.55786,-0.305512,-0.193119,0.170165,
2,1,0,1,0,43380.8,0.189571,0.189255,0.257277,66,0.0141665,10,4.86911e-05,-3.5896,-0.906462,-0.0650882,0.189142,
2,1,0,1,0,43384.6,0.208547,0.208285,0.249273,66,0.015181,10,5.19199e-05,-3.60332,-1.36371,-0.0432644,0.208175,
2,1,0,1,0,43388.4,0.227524,0.227236,0.242761,66,0.0161686,10,5.5164e-05,-3.61482,-1.58785,-0.0371572,0.227129,
2,1,0,1,0,43392.2,0.246501,0.24622,0.239241,66,0.017138,10,5.89059e-05,-3.62116,-1.23819,-0.0476503,0.246115,
2,1,0,0,0,43395.9,0.265479,0.265143,0.235562,66,0.018093,10,6.24577e-05,-3.62789,-0.701201,-0.0841414,0.26504,
2,1,0,1,0,43399.7,0.284456,0.28417,0.232252,66,0.0190332,10,6.59992e-05,-3.63404,-1.87102,-0.0315336,0.284068,
2,1,0,0,0,43403.5,0.303433,0.303126,0.228162,66,0.0199563,10,6.91619e-05,-3.64176,-2.67617,-0.0220465,0.303025,
2,1,0,1,0,43407.3,0.32241,0.322142,0.225621,66,0.0208651,10,7.26821e-05,-3.64662,-8.8018,-0.00670318,0.322043,
2,1,0,0,0,43411.1,0.341387,0.341098,0.22244,66,0.021762,10,7.58737e-05,-3.65279,-6.12529,-0.0096322,0.341,
2,1,0,1,0,43414.9,0.360364,0.360051,0.219806,66,0.0226482,10,7.91411e-05,-3.65796,-7.66463,-0.00769769,0.359954,
2,1,0,1,0,43418.7,0.379342,0.379045,0.219082,66,0.0235254,10,8.30418e-05,-3.65939,15.8019,0.00373372,0.378949,
2,1,0,1,0,43422.5,0.398319,0.398006,0.216012,66,0.0243952,10,8.5974e-05,-3.66552,7.31278,0.00806807,0.397911,
2,1,0,1,0,43426.3,0.417295,0.416995,0.216951,66,0.0252606,10,9.04673e-05,-3.66364,-4.62675,-0.0127519,0.416899,
2,1,0,1,0,43430.1,0.436272,0.436017,0.215893,66,0.0261222,10,9.41332e-05,-3.66576,-5.76317,-0.0102374,0.435922,
2,1,0,1,0,43433.9,0.455249,0.455,0.215991,66,0.0269817,10,9.82758e-05,-3.66556,1.24877,0.0472464,0.454905,
2,1,0,1,0,43437.7,0.474226,0.473922,0.217478,66,0.0278446,10,0.000103068,-3.66258,0.92356,0.0638833,0.473826,
2,1,0,1,0,43441.5,0.493203,0.492889,0.220662,66,0.0287151,10,0.000108762,-3.65627,1.98287,0.0297548,0.492792,
2,1,0,0,0,43445.3,0.512181,0.511909,0.22509,66,0.0295979,10,0.000115226,-3.64764,1.49979,0.0393388,0.51181,
2,1,0,1,0,43449.1,0.531158,0.530848,0.231936,66,0.0304991,10,0.000123123,-3.63463,1.4198,0.0415552,0.530746,
2,1,0,0,0,43452.9,0.550135,0.549852,0.240725,66,0.0314286,10,0.000132363,-3.61848,0.749881,0.0786792,0.549746,
2,1,0,1,0,43456.7,0.569112,0.568785,0.253587,66,0.0323999,10,0.000144237,-3.59587,0.640166,0.0921636,0.568674,
2,1,0,0,0,43460.5,0.588089,0.587769,0.273456,66,0.0334327,10,0.000160729,-3.56311,0.347101,0.169979,0.587648,
2,1,0,1,0,43464.3,0.607066,0.606755,0.309005,66,0.0345672,10,0.00018749,-3.51003,0.279481,0.211105,0.606619,
2,1,0,1,0,43468.1,0.626044,0.625764,0.37383,66,0.0358842,10,0.000233929,-3.42733,0.169523,0.348035,0.625599,
2,1,0,1,0,43471.9,0.64502,0.644744,0.50874,66,0.0375647,10,0.000328007,-3.2935,0.115514,0.510761,0.64452,
2,1,0,1,0,43475.7,0.663997,0.663694,0.785533,66,0.0399927,10,0.000521354,-3.10484,0.0878431,0.671652,0.663348,
2,1,0,1,0,43479.4,0.682974,0.682661,1.32707,66,0.0439334,10,0.000905938,-2.87711,0.0793533,0.74351,0.682078,
2,1,0,1,0,43483.2,0.701951,0.701652,2.25814,66,0.0506348,10,0.00158443,-2.64625,0.0834837,0.706724,0.700658,
2,1,0,1,0,43487,0.720928,0.720612,3.64151,66,0.0617181,10,0.00262411,-2.43872,0.0943981,0.625012,0.71901,
2,1,0,1,0,43490.8,0.739905,0.73967,5.50994,66,0.0789632,10,0.00407554,-2.25885,0.108807,0.542246,0.737246,
2,1,0,0,0,43494.6,0.758883,0.758588,7.92951,66,0.104311,10,0.00601523,-2.10075,0.118823,0.496536,0.7551,
2,1,0,1,0,43498.4,0.77786,0.777585,11.0786,66,0.140137,10,0.00861453,-1.95552,0.120493,0.489654,0.77271,
2,1,0,0,0,43502.2,0.796837,0.796554,15.3481,66,0.1899,10,0.0122256,-1.81394,0.121763,0.484546,0.789801,
2,1,0,1,0,43506,0.815814,0.815554,21.0504,66,0.258524,10,0.0171677,-1.67674,0.123157,0.479061,0.806292,
2,1,0,0,0,43509.8,0.834791,0.83457,27.8046,66,0.351029,10,0.0232049,-1.55588,0.141752,0.416221,0.822336,
2,1,0,0,0,43513.5,0.846726,0.846511,31.613,66,0.4657,10,0.0267607,-1.50013,0.106608,0.553429,0.832601,
2,1,0,1,0,43517.3,0.827749,0.827489,23.271,66,0.569209,10,0.0192565,-1.63319,0.107575,0.548453,0.81725,
2,1,0,1,0,43521.1,0.808772,0.808508,16.8694,66,0.644508,10,0.0136391,-1.7729,0.116464,0.506594,0.801085,
2,1,0,1,0,43524.9,0.789795,0.789512,12.0198,66,0.698915,10,0.00948976,-1.9201,0.110576,0.53357,0.784223,
2,1,0,1,0,43528.7,0.770818,0.770537,8.33596,66,0.737148,10,0.00642317,-2.07904,0.108005,0.546271,0.76687,
2,1,0,1,0,43532.5,0.751841,0.751555,5.63735,66,0.763346,10,0.00423678,-2.24893,0.10315,0.571982,0.749075,
2,1,0,1,0,43536.3,0.732865,0.732606,3.72122,66,0.780836,10,0.00272619,-2.42931,0.0906408,0.650921,0.730968,
2,1,0,0,0,43540.1,0.713887,0.713623,2.2596,66,0.792,10,0.0016125,-2.64597,0.0785243,0.75136,0.712629,
2,1,0,1,0,43543.9,0.69491,0.694658,1.23417,66,0.798467,10,0.000857323,-2.90863,0.0634199,0.930307,0.694115,
2,1,0,0,0,43547.7,0.675933,0.67567,0.579206,66,0.801769,10,0.000391352,-3.23717,0.0508728,1.15976,0.675415,
2,1,0,1,0,43551.5,0.656956,0.656661,0.210987,66,0.803158,10,0.000138547,-3.67575,0.0356134,1.65668,0.656568,
2,1,0,0,0,43555.3,0.637979,0.637735,0.0280052,66,0.80353,10,1.78599e-05,-4.55276,0.00980869,6.01507,0.637723,
2,0,0,1,0,43559.1,0.619002,0.618727,-0.0518963,66,0.803426,10,-3.21097e-05,-4.28486,-0.0447705,-1.31783,0.61875,
2,0,0,0,0,43562.8,0.600024,0.599712,-0.087391,66,0.803116,10,-5.24094e-05,-4.05853,-0.14843,-0.397494,0.59975,
2,0,0,1,0,43566.6,0.581047,0.580813,-0.104833,66,0.802711,10,-6.08884e-05,-3.9795,-0.555808,-0.106152,0.580859,
2,0,0,1,0,43570.4,0.56207,0.561767,-0.112836,66,0.80226,10,-6.33875e-05,-3.94755,-0.507721,-0.116205,0.561817,
2,0,0,1,0,43574.2,0.543093,0.542752,-0.119632,66,0.801783,10,-6.49305e-05,-3.92215,-0.892221,-0.0661271,0.542805,
2,0,0,1,0,43578,0.524116,0.523797,-0.123845,66,0.801285,10,-6.48697e-05,-3.90712,-2.59649,-0.022723,0.523851,
2,0,0,1,0,43581.8,0.505139,0.504817,-0.127844,66,0.80077,10,-6.45379e-05,-3.89332,-4.44247,-0.0132809,0.504874,
2,0,0,1,0,43585.6,0.486162,0.485903,-0.133356,66,0.800236,10,-6.47984e-05,-3.87499,3.73865,0.0157811,0.485962,
2,0,0,1,0,43589.4,0.467185,0.466886,-0.138744,66,0.799681,10,-6.47776e-05,-3.85779,-0.720922,-0.0818396,0.466947,
2,0,0,1,0,43593.2,0.448208,0.447885,-0.146026,66,0.799102,10,-6.54029e-05,-3.83557,-1.63789,-0.0360219,0.447949,
2,0,0,0,0,43597,0.429231,0.428901,-0.153569,66,0.798494,10,-6.58657e-05,-3.8137,-0.942504,-0.0625992,0.428968,
2,0,0,1,0,43600.8,0.410254,0.409937,-0.162401,66,0.797853,10,-6.65742e-05,-3.78941,-0.864085,-0.0682803,0.410009,
2,0,0,0,0,43604.6,0.391277,0.390975,-0.171641,66,0.797178,10,-6.71074e-05,-3.76538,-0.961394,-0.0613692,0.391051,
2,0,0,1,0,43608.4,0.3723,0.372004,-0.181465,66,0.796464,10,-6.75055e-05,-3.74121,-0.546844,-0.107892,0.372083,
2,0,0,1,0,43612.2,0.353322,0.353015,-0.191181,66,0.795711,10,-6.74897e-05,-3.71856,-0.527961,-0.111751,0.353099,
2,0,0,1,0,43616,0.334345,0.334013,-0.203113,66,0.794917,10,-6.78423e-05,-3.69226,-0.815549,-0.0723439,0.334102,
2,0,0,1,0,43619.8,0.315368,0.315023,-0.213004,66,0.794079,10,-6.71012e-05,-3.67161,-0.951432,-0.0620118,0.315116,
2,0,0,1,0,43623.6,0.296391,0.296125,-0.226456,66,0.793198,10,-6.70593e-05,-3.64502,-0.612103,-0.0963891,0.296225,
2,0,0,1,0,43627.4,0.277414,0.277076,-0.23653,66,0.79227,10,-6.55367e-05,-3.62611,-0.760701,-0.07756,0.27718,
2,0,0,1,0,43631.2,0.258437,0.258131,-0.24993,66,0.791296,10,-6.45147e-05,-3.60218,-1.03152,-0.0571973,0.258241,
2,0,0,1,0,43635,0.239461,0.239125,-0.260744,66,0.790277,10,-6.23506e-05,-3.58379,-0.792373,-0.0744599,0.23924,
2,0,0,0,0,43638.8,0.220483,0.220158,-0.272392,66,0.789215,10,-5.99691e-05,-3.56481,-0.631554,-0.0934204,0.220277,
2,0,0,1,0,43642.6,0.201506,0.201191,-0.285074,66,0.788104,10,-5.73544e-05,-3.54504,-0.608828,-0.0969075,0.201317,
2,0,0,0,0,43646.3,0.182529,0.18221,-0.304594,66,0.786932,10,-5.55e-05,-3.51628,-0.44342,-0.133057,0.182344,
2,0,0,1,0,43650.1,0.163552,0.163216,-0.336216,66,0.785667,10,-5.48758e-05,-3.47338,-0.340917,-0.173062,0.163364,
2,0,0,0,0,43653.9,0.144575,0.144246,-0.431173,66,0.784189,10,-6.21951e-05,-3.36535,-0.110915,-0.53194,0.144436,
2,0,0,1,0,43657.7,0.125598,0.125272,-0.644022,66,0.782089,10,-8.06782e-05,-3.1911,-0.178246,-0.331004,0.125556,
2,0,0,1,0,43661.5,0.10662,0.106286,-0.696831,66,0.779426,10,-7.40636e-05,-3.15687,3.91617,0.0150657,0.106593,
2,0,0,1,0,43665.3,0.0876433,0.0873118,-0.677104,66,0.776769,10,-5.91192e-05,-3.16934,9.23055,0.00639182,0.0876098,
2,0,0,1,0,43669.1,0.0686664,0.0683358,-0.623205,66,0.774254,10,-4.25872e-05,-3.20537,0.599099,0.0984812,0.06861,
2,0,0,1,0,43672.9,0.0496895,0.0493738,-0.577126,66,0.771909,10,-2.8495e-05,-3.23873,0.52897,0.111538,0.0496278,
2,0,0,1,0,43676.7,0.0307126,0.0303461,-0.530874,66,0.769746,10,-1.611e-05,-3.27501,0.656716,0.089841,0.0305797,
2,0,0,1,0,43680.5,0.0117356,0.0114358,-0.500319,66,0.767741,10,-5.72156e-06,-3.30075,1.32849,0.0444113,0.011656,
2,0,0,0,0,43682.8,0.000274105,-0.00013445,-0.501545,66,0.766561,10,6.74329e-08,-3.29969, , ,8.62295e-05,

File: 20221101_1-115_003_TrumpetPlot_ParaChange_from10_every3_16_CV_C01_66.csv
mode,ox/red,error,control changes,counter inc.,time/s,control/V,Ewe/V,<I>/mA,cycle number,(Q-Qo)/C,I Range,P/W,log(|I|),Tafel slope mV/dec,alpha_eff,E-IR/V,
2,0,0,1,0,44573,2.44065e-05,-0.000344411,-0.0574159,67,0.0000000E+000,10,1.97747e-08,-4.24097, , ,-0.000319148,
2,1,0,1,0,44576.7,0.0187763,0.01847,0.264646,67,0.000890899,10,4.888e-06,-3.57734,0.178577,0.330389,0.0183535,
2,1,0,0,0,44580.5,0.0377538,0.0374082,0.329118,67,0.00207732,10,1.23117e-05,-3.48265,0.231459,0.254905,0.0372634,
2,1,0,1,0,44584.3,0.0567309,0.0564223,0.387593,67,0.00350371,10,2.18689e-05,-3.41162,0.337711,0.174706,0.0562518,
2,1,0,0,0,44588.1,0.075708,0.0753972,0.430893,67,0.00512607,10,3.24882e-05,-3.36563,0.611282,0.0965185,0.0752076,
2,1,0,1,0,44591.9,0.094685,0.0943806,0.481525,67,0.00690221,10,4.54467e-05,-3.31738,0.265459,0.222256,0.0941688,
2,1,0,0,0,44595.7,0.113662,0.113339,0.576113,67,0.00897116,10,6.52958e-05,-3.23949,0.368931,0.159921,0.113085,
2,1,0,1,0,44599.5,0.132639,0.132327,0.610823,67,0.0113062,10,8.08285e-05,-3.21408,-0.574685,-0.102665,0.132058,
2,1,0,1,0,44603.3,0.151617,0.151321,0.408885,67,0.0133657,10,6.18728e-05,-3.3884,-0.0828843,-0.711836,0.151141,
2,1,0,1,0,44607.1,0.170594,0.170288,0.319076,67,0.0147504,10,5.43347e-05,-3.49611,-0.351831,-0.167694,0.170147,
2,1,0,1,0,44610.9,0.189571,0.189278,0.301049,67,0.0159751,10,5.69821e-05,-3.52136,-0.948269,-0.0622186,0.189146,
2,1,0,1,0,44614.7,0.208547,0.208229,0.294663,67,0.0171562,10,6.13573e-05,-3.53067,-1.51016,-0.0390686,0.208099,
2,1,0,1,0,44618.5,0.227524,0.227211,0.289158,67,0.0183125,10,6.56998e-05,-3.53887,-1.05469,-0.0559406,0.227084,
2,1,0,1,0,44622.3,0.246501,0.246192,0.283672,67,0.0194507,10,6.9838e-05,-3.54718,-1.71314,-0.0344398,0.246068,
2,1,0,1,0,44626.1,0.265479,0.26515,0.279949,67,0.0205722,10,7.42283e-05,-3.55292,-2.71059,-0.0217665,0.265026,
2,1,0,0,0,44629.9,0.284456,0.284147,0.276673,67,0.0216782,10,7.86157e-05,-3.55803,-3.41216,-0.0172911,0.284025,
2,1,0,1,0,44633.7,0.303433,0.303115,0.272942,67,0.0227689,10,8.2733e-05,-3.56393,-1.5722,-0.0375271,0.302995,
2,1,0,0,0,44637.5,0.32241,0.322102,0.26942,67,0.0238448,10,8.67808e-05,-3.56957,-3.78554,-0.0155856,0.321983,
2,1,0,1,0,44641.3,0.341387,0.341074,0.266511,67,0.0249068,10,9.08999e-05,-3.57428,-1.44255,-0.0408999,0.340956,
2,1,0,0,0,44645.1,0.360364,0.360073,0.263084,67,0.025956,10,9.47293e-05,-3.57991,-8.99805,-0.00655697,0.359957,
2,1,0,1,0,44648.9,0.379342,0.379071,0.261749,67,0.0269952,10,9.92214e-05,-3.58211,-12.0766,-0.00488546,0.378956,
2,1,0,1,0,44652.6,0.398319,0.397971,0.258886,67,0.0280246,10,0.000103029,-3.58689,2.48685,0.0237248,0.397857,
2,1,0,1,0,44656.4,0.417295,0.417017,0.257012,67,0.0290461,10,0.000107179,-3.59005,30.5767,0.00192957,0.416904,
2,1,0,1,0,44660.2,0.436272,0.435944,0.257154,67,0.0300621,10,0.000112105,-3.58981,-15.1825,-0.00388606,0.435831,
2,1,0,1,0,44664,0.455249,0.454948,0.25576,67,0.0310746,10,0.000116357,-3.59217,4.40175,0.0134038,0.454835,
2,1,0,1,0,44667.8,0.474226,0.473909,0.256705,67,0.0320877,10,0.000121655,-3.59057,1.17054,0.050404,0.473796,
2,1,0,1,0,44671.6,0.493203,0.492882,0.258588,67,0.0331042,10,0.000127453,-3.58739,2.99707,0.0196859,0.492768,
2,1,0,1,0,44675.4,0.512181,0.511914,0.263088,67,0.0341306,10,0.000134678,-3.5799,1.15582,0.0510459,0.511798,
2,1,0,0,0,44679.2,0.531158,0.530825,0.268334,67,0.0351736,10,0.000142438,-3.57132,1.51281,0.0390002,0.530707,
2,1,0,1,0,44683,0.550135,0.549805,0.276638,67,0.036242,10,0.000152097,-3.55809,1.27283,0.0463535,0.549683,
2,1,0,0,0,44686.8,0.569112,0.568835,0.290358,67,0.0373496,10,0.000165166,-3.53707,0.770383,0.0765852,0.568707,
2,1,0,1,0,44690.6,0.588089,0.587789,0.309785,67,0.0385178,10,0.000182088,-3.50894,0.519911,0.113481,0.587653,
2,1,0,0,0,44694.4,0.607066,0.606766,0.344974,67,0.0397884,10,0.000209319,-3.46221,0.323813,0.182204,0.606614,
2,1,0,1,0,44698.2,0.626044,0.625754,0.412645,67,0.0412464,10,0.000258214,-3.38442,0.194777,0.30291,0.625572,
2,1,0,1,0,44702,0.64502,0.644747,0.548926,67,0.0430754,10,0.000353918,-3.26049,0.127664,0.46215,0.644505,
2,1,0,1,0,44705.8,0.663997,0.663696,0.832108,67,0.0456663,10,0.000552267,-3.07982,0.0926195,0.637015,0.66333,
2,1,0,1,0,44709.6,0.682974,0.682686,1.37996,67,0.0497932,10,0.000942077,-2.86013,0.082646,0.713889,0.682079,
2,1,0,1,0,44713.4,0.701951,0.701621,2.31554,67,0.0567048,10,0.00162463,-2.63535,0.0835509,0.706156,0.700602,
2,1,0,1,0,44717.2,0.720928,0.720619,3.70087,67,0.0680098,10,0.00266692,-2.4317,0.0959112,0.615152,0.718991,
2,1,0,1,0,44721,0.739905,0.739665,5.55633,67,0.0854593,10,0.00410983,-2.25521,0.109073,0.540923,0.73722,
2,1,0,1,0,44724.8,0.758883,0.758623,7.93698,67,0.110923,10,0.00602118,-2.10034,0.121629,0.485081,0.755131,
2,1,0,0,0,44728.6,0.77786,0.777595,10.9776,67,0.146603,10,0.00853617,-1.95949,0.128705,0.458414,0.772765,
2,1,0,1,0,44732.3,0.796837,0.796524,15.0176,67,0.195581,10,0.0119619,-1.8234,0.126483,0.466466,0.789917,
2,1,0,0,0,44736.1,0.815814,0.81551,20.2191,67,0.262075,10,0.0164889,-1.69424,0.125588,0.46979,0.806613,
2,1,0,1,0,44739.9,0.834791,0.834493,26.4395,67,0.350555,10,0.0220636,-1.57775,0.143534,0.411053,0.82286,
2,1,0,1,0,44743.6,0.846726,0.846496,29.9392,67,0.459652,10,0.0253434,-1.52376,0.102827,0.57378,0.833323,
2,1,0,1,0,44747.4,0.827749,0.827506,22.2635,67,0.557857,10,0.0184232,-1.65241,0.12263,0.481123,0.81771,
2,1,0,1,0,44751.2,0.808772,0.808479,16.3559,67,0.630641,10,0.0132234,-1.78633,0.121114,0.487146,0.801283,
2,1,0,1,0,44755,0.789795,0.7895,11.7287,67,0.683493,10,0.00925979,-1.93075,0.115774,0.509612,0.78434,
2,1,0,1,0,44758.8,0.770818,0.770536,8.24197,67,0.721049,10,0.00635073,-2.08397,0.111461,0.529334,0.76691,
2,1,0,1,0,44762.6,0.751841,0.751553,5.63905,67,0.747124,10,0.00423805,-2.24879,0.103409,0.570553,0.749072,
2,1,0,1,0,44766.4,0.732865,0.73257,3.68745,67,0.7646,10,0.00270131,-2.43327,0.0925361,0.637589,0.730947,
2,1,0,1,0,44770.2,0.713887,0.713591,2.27046,67,0.775731,10,0.00162018,-2.64389,0.0796837,0.740427,0.712592,
2,1,0,0,0,44774,0.69491,0.69461,1.25644,67,0.782262,10,0.000872737,-2.90086,0.0648763,0.909423,0.694057,
2,1,0,1,0,44777.8,0.675933,0.675705,0.604403,67,0.785654,10,0.000408398,-3.21867,0.0529575,1.1141,0.675439,
2,1,0,0,0,44781.6,0.656956,0.656669,0.237192,67,0.787142,10,0.000155757,-3.6249,0.0390775,1.50982,0.656564,
2,1,0,1,0,44785.4,0.637979,0.637674,0.0546641,67,0.787614,10,3.48578e-05,-4.2623,0.0188866,3.12391,0.63765,
2,0,0,0,0,44789.2,0.619002,0.618704,-0.02749,67,0.787606,10,-1.70082e-05,-4.56082,-0.026966,-2.18794,0.618716,
2,0,0,1,0,44793,0.600024,0.599716,-0.0630582,67,0.787389,10,-3.7817e-05,-4.20026,-0.107004,-0.551384,0.599744,
2,0,0,1,0,44796.8,0.581047,0.580774,-0.0804662,67,0.787078,10,-4.67327e-05,-4.09439,-0.361929,-0.163015,0.580809,
2,0,0,1,0,44800.6,0.56207,0.56179,-0.089115,67,0.786717,10,-5.00639e-05,-4.05005,-0.582141,-0.10135,0.561829,
2,0,0,1,0,44804.4,0.543093,0.542777,-0.0960038,67,0.786328,10,-5.21086e-05,-4.01771,-0.988203,-0.0597043,0.542819,
2,0,0,1,0,44808.2,0.524116,0.523795,-0.100788,67,0.785918,10,-5.27921e-05,-3.99659,-0.790384,-0.0746473,0.52384,
2,0,0,1,0,44812,0.505139,0.504869,-0.106427,67,0.785488,10,-5.37317e-05,-3.97295,-0.658525,-0.0895941,0.504915,
2,0,0,1,0,44815.7,0.486162,0.48581,-0.11207,67,0.785036,10,-5.44445e-05,-3.95051,-2.3969,-0.0246151,0.485859,
2,0,0,1,0,44819.5,0.467185,0.466847,-0.117901,67,0.78456,10,-5.50416e-05,-3.92848,-0.708791,-0.0832404,0.466899,
2,0,0,0,0,44823.3,0.448208,0.447907,-0.125442,67,0.784057,10,-5.61864e-05,-3.90156,-0.463112,-0.127399,0.447963,
2,0,0,1,0,44827.1,0.429231,0.428898,-0.133562,67,0.783525,10,-5.72842e-05,-3.87432,-7.95915,-0.00741285,0.428956,
2,0,0,0,0,44830.9,0.410254,0.40993,-0.144061,67,0.782958,10,-5.90547e-05,-3.84145,-0.699833,-0.0843059,0.409993,
2,0,0,1,0,44834.7,0.391277,0.390954,-0.152252,67,0.782354,10,-5.95237e-05,-3.81744,-1.07091,-0.0550932,0.391021,
2,0,0,0,0,44838.5,0.3723,0.372028,-0.162411,67,0.781712,10,-6.04216e-05,-3.78938,-0.43266,-0.136366,0.372099,
2,0,0,1,0,44842.3,0.353322,0.352995,-0.17214,67,0.781031,10,-6.07648e-05,-3.76412,-1.44118,-0.0409388,0.353071,
2,0,0,1,0,44846.1,0.334345,0.334068,-0.183654,67,0.780306,10,-6.13529e-05,-3.736,-0.551949,-0.106894,0.334149,
2,0,0,1,0,44849.9,0.315368,0.31503,-0.196092,67,0.779535,10,-6.17747e-05,-3.70754,-0.753683,-0.0782823,0.315116,
2,0,0,1,0,44853.7,0.296391,0.296078,-0.209731,67,0.77872,10,-6.2097e-05,-3.67834,-0.895998,-0.0658484,0.296171,
2,0,0,1,0,44857.5,0.277414,0.277085,-0.220181,67,0.777855,10,-6.10087e-05,-3.65722,-1.12681,-0.05236,0.277181,
2,0,0,1,0,44861.3,0.258437,0.258172,-0.23357,67,0.776941,10,-6.03014e-05,-3.63158,-0.731677,-0.0806367,0.258275,
2,0,0,1,0,44865.1,0.239461,0.239139,-0.24586,67,0.775979,10,-5.87947e-05,-3.60931,-0.886476,-0.0665556,0.239247,
2,0,0,1,0,44868.9,0.220483,0.220206,-0.256965,67,0.774973,10,-5.65853e-05,-3.59013,-0.60966,-0.0967752,0.220319,
2,0,0,0,0,44872.7,0.201506,0.201182,-0.269823,67,0.773917,10,-5.42833e-05,-3.56892,-0.503462,-0.117189,0.2013,
2,0,0,1,0,44876.5,0.182529,0.182229,-0.289154,67,0.772801,10,-5.26922e-05,-3.53887,-0.370945,-0.159053,0.182356,
2,0,0,0,0,44880.3,0.163552,0.163251,-0.322859,67,0.77159,10,-5.2707e-05,-3.49099,-0.288857,-0.204253,0.163393,
2,0,0,1,0,44884.1,0.144575,0.144255,-0.416328,67,0.770166,10,-6.00573e-05,-3.38056,-0.108353,-0.544518,0.144438,
2,0,0,0,0,44887.9,0.125598,0.125266,-0.629143,67,0.768125,10,-7.88103e-05,-3.20125,-0.175188,-0.336781,0.125543,
2,0,0,1,0,44891.7,0.10662,0.106318,-0.68291,67,0.765516,10,-7.26059e-05,-3.16564,-47.7737,-0.00123499,0.106619,
2,0,0,1,0,44895.5,0.0876433,0.087285,-0.653503,67,0.76291,10,-5.7041e-05,-3.18475,0.71373,0.0826643,0.0875726,
2,0,0,1,0,44899.2,0.0686664,0.0683656,-0.612984,67,0.76045,10,-4.1907e-05,-3.21255,0.7324,0.080557,0.0686353,
2,0,0,1,0,44903,0.0496895,0.0493717,-0.571233,67,0.75814,10,-2.82027e-05,-3.24319,0.555033,0.1063,0.049623,
2,0,0,1,0,44906.8,0.0307126,0.0304192,-0.523811,67,0.756001,10,-1.59339e-05,-3.28083,0.531333,0.111042,0.0306497,
2,0,0,1,0,44910.6,0.0117356,0.0114244,-0.492656,67,0.754016,10,-5.6283e-06,-3.30746,1.3342,0.0442212,0.0116412,
2,0,0,1,0,44912.9,0.000274105,-0.000101048,-0.494845,67,0.752848,10,5.00029e-08,-3.30553, , ,0.000116684,