Folder: Figs_alphaMnO2_OER_Tafel_sleope/Figure_codes/Fig_3-5/workspace_calculate_alpha_eff (part 2)

File: 20221101_1-115_002_TrumpetPlot_ParaChange_18_CV_C01_2.csv
mode,ox/red,error,control changes,counter inc.,time/s,control/V,Ewe/V,<I>/mA,cycle number,(Q-Qo)/C,I Range,P/W,log(|I|),Tafel slope mV/dec,alpha_eff,E-IR/V,
2,1,0,0,0,3713.55,2.44065e-05,-0.000401673,0.0901435,3,0.0000000E+000,10,-3.62082e-08,-4.04507, , ,-0.000473788,
2,1,0,1,0,3717.2,0.0182777,0.0179862,0.26308,3,0.000960797,10,4.7318e-06,-3.57991,0.350625,0.168271,0.0177757,
2,1,0,0,0,3720.89,0.036755,0.0364655,0.293248,3,0.00206878,10,1.06934e-05,-3.53276,0.342862,0.172081,0.0362309,
2,1,0,1,0,3724.59,0.0552323,0.0549871,0.337761,3,0.00330336,10,1.85725e-05,-3.47139,0.225441,0.261709,0.0547169,
2,1,0,1,0,3728.28,0.0737106,0.0734029,0.418727,3,0.00477484,10,3.07358e-05,-3.37807,0.24236,0.24344,0.0730679,
2,1,0,1,0,3731.98,0.0921881,0.0918897,0.49957,3,0.00655324,10,4.59053e-05,-3.3014,0.270412,0.218186,0.0914901,
2,1,0,1,0,3735.67,0.110665,0.110374,0.601881,3,0.00863554,10,6.64322e-05,-3.22049,0.160338,0.367974,0.109893,
2,1,0,1,0,3739.37,0.129144,0.128858,0.840874,3,0.011354,10,0.000108353,-3.07527,0.128912,0.457676,0.128185,
2,1,0,0,0,3743.07,0.147621,0.147335,0.924916,3,0.0148291,10,0.000136273,-3.0339,-0.232525,-0.253736,0.146595,
2,1,0,0,0,3746.76,0.166099,0.165838,0.569533,3,0.0177172,10,9.44504e-05,-3.24448,-0.0762992,-0.773271,0.165383,
2,1,0,1,0,3750.46,0.184576,0.184272,0.382312,3,0.0194888,10,7.04495e-05,-3.41758,-0.185985,-0.317229,0.183967,
2,1,0,1,0,3754.15,0.203054,0.202774,0.327273,3,0.0208637,10,6.63626e-05,-3.48509,-0.443028,-0.133174,0.202512,
2,1,0,1,0,3757.85,0.221532,0.221233,0.302142,3,0.0220957,10,6.68438e-05,-3.51979,-0.721153,-0.0818135,0.220991,
2,1,0,1,0,3761.54,0.240009,0.23971,0.288007,3,0.0232602,10,6.90382e-05,-3.5406,-0.812881,-0.0725813,0.23948,
2,1,0,1,0,3765.24,0.258488,0.25821,0.279669,3,0.0243876,10,7.22132e-05,-3.55336,-2.26371,-0.0260634,0.257986,
2,1,0,0,0,3768.93,0.276965,0.276688,0.274129,3,0.0254895,10,7.58481e-05,-3.56205,3.76567,0.0156679,0.276469,
2,1,0,1,0,3772.63,0.295442,0.295135,0.26965,3,0.0265716,10,7.95829e-05,-3.5692,-71.7973,-0.000821758,0.294919,
2,1,0,1,0,3776.33,0.313921,0.313648,0.264452,3,0.027638,10,8.29449e-05,-3.57765,-1.48339,-0.0397738,0.313436,
2,1,0,1,0,3780.02,0.332398,0.332092,0.260972,3,0.0286895,10,8.66669e-05,-3.58341,9.75643,0.0060473,0.331883,
2,1,0,1,0,3783.72,0.350875,0.350571,0.256102,3,0.0297261,10,8.97817e-05,-3.59159,-2.25291,-0.0261883,0.350366,
2,1,0,1,0,3787.41,0.369354,0.369094,0.253567,3,0.0307468,10,9.35901e-05,-3.59591,4.3198,0.013658,0.368891,
2,1,0,0,0,3791.11,0.387831,0.387554,0.25152,3,0.0317559,10,9.74778e-05,-3.59943,3.19955,0.0184401,0.387353,
2,1,0,1,0,3794.8,0.406308,0.406024,0.249291,3,0.0327554,10,0.000101218,-3.60329,-1.32609,-0.0444917,0.405825,
2,1,0,1,0,3798.5,0.424786,0.424528,0.247338,3,0.0337479,10,0.000105002,-3.60671,-1.16106,-0.0508156,0.42433,
2,1,0,1,0,3802.19,0.443264,0.443003,0.247196,3,0.0347357,10,0.000109509,-3.60696,1.98145,0.0297761,0.442805,
2,1,0,1,0,3805.89,0.461741,0.461452,0.248241,3,0.0357241,10,0.000114551,-3.60513,6.03761,0.00977207,0.461253,
2,1,0,1,0,3809.59,0.480219,0.479935,0.251483,3,0.0367198,10,0.000120695,-3.59949,-10.1477,-0.00581413,0.479734,
2,1,0,0,0,3813.28,0.498697,0.498418,0.254723,3,0.0377285,10,0.000126958,-3.59393,1.78447,0.033063,0.498214,
2,1,0,1,0,3816.98,0.517174,0.516916,0.261575,3,0.0387584,10,0.000135212,-3.5824,1.19104,0.0495366,0.516707,
2,1,0,1,0,3820.67,0.535652,0.535353,0.274183,3,0.0398248,10,0.000146785,-3.56196,0.861472,0.0684874,0.535134,
2,1,0,1,0,3824.37,0.55413,0.553857,0.296231,3,0.0409538,10,0.00016407,-3.52837,0.534471,0.11039,0.55362,
2,1,0,1,0,3828.06,0.572608,0.572299,0.332582,3,0.0421865,10,0.000190336,-3.4781,0.32027,0.18422,0.572033,
2,1,0,1,0,3831.76,0.591085,0.590783,0.399939,3,0.0436015,10,0.000236277,-3.39801,0.179134,0.329362,0.590463,
2,1,0,0,0,3835.45,0.609563,0.60931,0.539248,3,0.0453793,10,0.000328569,-3.26821,0.122031,0.483486,0.608878,
2,1,0,0,0,3839.15,0.628041,0.627817,0.828226,3,0.0479089,10,0.000519974,-3.08185,0.0818972,0.720416,0.627154,
2,1,0,1,0,3842.85,0.646518,0.646254,1.4599,3,0.0520609,10,0.00094347,-2.83568,0.0645399,0.914164,0.645086,
2,1,0,1,0,3846.54,0.664996,0.664761,2.80079,3,0.0597141,10,0.00186185,-2.55272,0.0595911,0.990081,0.66252,
2,1,0,1,0,3850.24,0.683474,0.68323,5.36548,3,0.0744383,10,0.00366586,-2.27039,0.059214,0.996386,0.678937,
2,1,0,1,0,3853.93,0.701951,0.701723,9.41063,3,0.101401,10,0.00660365,-2.02638,0.0674292,0.874992,0.694194,
2,1,0,1,0,3857.63,0.720429,0.720192,14.5196,3,0.145472,10,0.0104569,-1.83805,0.0855922,0.689315,0.708577,
2,1,0,0,0,3861.32,0.738907,0.73868,20.583,3,0.21002,10,0.0152042,-1.68649,0.0913124,0.646133,0.722214,
2,1,0,1,0,3865.02,0.757384,0.757138,27.8393,3,0.299204,10,0.0210782,-1.55534,0.0999913,0.590051,0.734866,
2,1,0,1,0,3868.71,0.775862,0.775598,35.7258,3,0.416603,10,0.0277089,-1.44702,0.11944,0.493971,0.747017,
2,1,0,1,0,3872.41,0.79434,0.794082,43.7178,3,0.563851,10,0.0347155,-1.35934,0.185833,0.317489,0.759108,
2,1,0,1,0,3876.11,0.812817,0.812569,50.8482,3,0.739026,10,0.0413177,-1.29372,0.260972,0.226078,0.771891,
2,1,0,1,0,3879.8,0.831295,0.831044,55.8437,3,0.9364,10,0.0464086,-1.25303,0.343818,0.171603,0.786369,
2,1,0,0,0,3883.49,0.849748,0.849574,60.4287,3,1.1513,10,0.0513386,-1.21876,-0.385496,-0.153049,0.801231,
2,1,0,1,0,3887.09,0.832244,0.83202,53.9028,3,1.35529,10,0.0448482,-1.26839,0.364838,0.161716,0.788898,
2,1,0,1,0,3890.79,0.813766,0.813553,47.4914,3,1.54252,10,0.0386368,-1.32338,1.01936,0.0578793,0.77556,
2,1,0,0,0,3894.48,0.795288,0.795034,40.8531,3,1.7079,10,0.0324796,-1.38878,0.142577,0.413812,0.762351,
2,1,0,0,0,3898.18,0.776811,0.776535,32.4635,3,1.84309,10,0.0252091,-1.4886,0.105098,0.561381,0.750564,
2,1,0,1,0,3901.87,0.758333,0.758089,24.0111,3,1.9471,10,0.0182025,-1.61959,0.0864151,0.682751,0.73888,
2,1,0,1,0,3905.57,0.739855,0.739635,16.6361,3,2.02172,10,0.0123046,-1.77895,0.0721732,0.817478,0.726326,
2,1,0,1,0,3909.27,0.721378,0.721133,10.5878,3,2.07139,10,0.00763518,-1.9752,0.0662887,0.890046,0.712663,
2,1,0,1,0,3912.96,0.7029,0.702633,6.07839,3,2.1016,10,0.00427088,-2.21621,0.0593225,0.994564,0.69777,
2,1,0,0,0,3916.66,0.684422,0.684196,3.13489,3,2.11809,10,0.00214488,-2.50378,0.0539156,1.0943,0.681688,
2,1,0,0,0,3920.35,0.665945,0.665694,1.45968,3,2.12618,10,0.000971697,-2.83574,0.0507278,1.16307,0.664526,
2,1,0,1,0,3924.05,0.647467,0.647227,0.618571,3,2.12975,10,0.000400356,-3.20861,0.0456544,1.29232,0.646732,
2,1,0,1,0,3927.74,0.62899,0.628761,0.233911,3,2.13115,10,0.000147074,-3.63095,0.0395156,1.49308,0.628574,
2,1,0,1,0,3931.44,0.610512,0.610242,0.060883,3,2.13158,10,3.71534e-05,-4.2155,0.0205394,2.87253,0.610193,
2,0,0,1,0,3935.13,0.592034,0.591787,-0.0175085,3,2.13157,10,-1.03613e-05,-4.75675,-0.0131429,-4.48912,0.591801,
2,0,0,1,0,3938.83,0.573556,0.573328,-0.0543388,3,2.13135,10,-3.11539e-05,-4.26489,-0.115031,-0.512906,0.573371,
2,0,0,0,0,3942.53,0.555079,0.554783,-0.0711583,3,2.13104,10,-3.94774e-05,-4.14777,-0.135979,-0.433889,0.55484,
2,0,0,1,0,3946.22,0.536601,0.536315,-0.0832043,3,2.13067,10,-4.46237e-05,-4.07985,-1.05771,-0.0557807,0.536381,
2,0,0,1,0,3949.92,0.518123,0.517837,-0.0896456,3,2.13027,10,-4.64218e-05,-4.04747,-0.431714,-0.136665,0.517908,
2,0,0,1,0,3953.61,0.499646,0.499348,-0.0955455,3,2.12985,10,-4.77104e-05,-4.01979,0.370973,0.159041,0.499424,
2,0,0,1,0,3957.31,0.481168,0.480874,-0.103373,3,2.12941,10,-4.97092e-05,-3.98559,-0.832291,-0.0708887,0.480956,
2,0,0,1,0,3961,0.46269,0.462421,-0.110643,3,2.12894,10,-5.11639e-05,-3.95607,-0.575883,-0.102451,0.462509,
2,0,0,0,0,3964.7,0.444213,0.443972,-0.117303,3,2.12844,10,-5.20793e-05,-3.93069,-0.506856,-0.116404,0.444066,
2,0,0,1,0,3968.39,0.425735,0.42548,-0.127154,3,2.12791,10,-5.41015e-05,-3.89567,-0.548677,-0.107531,0.425582,
2,0,0,1,0,3972.09,0.407257,0.406993,-0.136373,3,2.12735,10,-5.55028e-05,-3.86527,-0.463582,-0.12727,0.407102,
2,0,0,1,0,3975.79,0.38878,0.388517,-0.145833,3,2.12675,10,-5.66587e-05,-3.83614,-0.797192,-0.0740097,0.388634,
2,0,0,1,0,3979.48,0.370302,0.370019,-0.158464,3,2.1261,10,-5.86346e-05,-3.80007,-0.801279,-0.0736323,0.370146,
2,0,0,1,0,3983.18,0.351824,0.351552,-0.168461,3,2.12542,10,-5.92227e-05,-3.7735,-1.02608,-0.0575003,0.351687,
2,0,0,0,0,3986.87,0.333347,0.333065,-0.179955,3,2.12469,10,-5.99368e-05,-3.74484,-0.847332,-0.0696303,0.333209,
2,0,0,0,0,3990.57,0.314869,0.314575,-0.193381,3,2.12392,10,-6.08328e-05,-3.71359,-0.481802,-0.122457,0.31473,
2,0,0,1,0,3994.26,0.296391,0.296069,-0.206314,3,2.1231,10,-6.10831e-05,-3.68547,-1.15046,-0.0512837,0.296234,
2,0,0,1,0,3997.96,0.277914,0.27764,-0.217933,3,2.12224,10,-6.05069e-05,-3.66168,-1.76405,-0.0334457,0.277814,
2,0,0,1,0,4001.65,0.259436,0.25916,-0.230383,3,2.12133,10,-5.97061e-05,-3.63755,-0.612014,-0.0964031,0.259345,
2,0,0,1,0,4005.35,0.240958,0.240683,-0.244314,3,2.12037,10,-5.88021e-05,-3.61205,-1.22783,-0.0480521,0.240878,
2,0,0,0,0,4009.04,0.222481,0.22217,-0.260058,3,2.11936,10,-5.77771e-05,-3.58493,-0.682172,-0.0864885,0.222378,
2,0,0,0,0,4012.74,0.204003,0.203681,-0.285419,3,2.11827,10,-5.81343e-05,-3.54452,-0.4405,-0.133939,0.203909,
2,0,0,1,0,4016.44,0.185526,0.185224,-0.334161,3,2.11705,10,-6.18946e-05,-3.47604,-0.201838,-0.292313,0.185491,
2,0,0,1,0,4020.13,0.167047,0.16677,-0.458041,3,2.11555,10,-7.63874e-05,-3.3391,-0.104055,-0.567006,0.167136,
2,0,0,1,0,4023.83,0.14857,0.148274,-0.798456,3,2.11321,10,-0.00011839,-3.09775,-0.0823785,-0.716206,0.148912,
2,0,0,1,0,4027.52,0.130092,0.129819,-0.988308,3,2.10968,10,-0.000128301,-3.00511,0.714375,0.0825896,0.130609,
2,0,0,1,0,4031.22,0.111614,0.11131,-0.799548,3,2.10625,10,-8.89975e-05,-3.09716,0.191458,0.308162,0.111949,
2,0,0,0,0,4034.91,0.0931369,0.09286,-0.673619,3,2.10349,10,-6.25523e-05,-3.17159,0.445842,0.132334,0.0933989,
2,0,0,1,0,4038.61,0.0746596,0.0743891,-0.610165,3,2.10104,10,-4.53896e-05,-3.21455,0.38185,0.154511,0.0748773,
2,0,0,1,0,4042.3,0.0561813,0.0558875,-0.5316,3,2.09884,10,-2.97098e-05,-3.27441,0.350295,0.16843,0.0563128,
2,0,0,1,0,4046,0.0377039,0.0373986,-0.48518,3,2.09689,10,-1.81451e-05,-3.3141,0.630793,0.0935331,0.0377868,
2,0,0,1,0,4049.7,0.0192267,0.0189481,-0.475088,3,2.09504,10,-9.00201e-06,-3.32323,-1.69873,-0.0347318,0.0193282,
2,0,0,1,0,4053.39,0.00074842,0.00039568,-0.492252,3,2.09318,10,-1.94774e-07,-3.30781, , ,0.000789481,
2,0,0,0,0,4053.49,0.000274105,-8.07672e-05,-0.490497,3,2.09313,10,3.96161e-08,-3.30936, , ,0.000311631,

File: 20221101_1-115_002_TrumpetPlot_ParaChange_18_CV_C01_3.csv
mode,ox/red,error,control changes,counter inc.,time/s,control/V,Ewe/V,<I>/mA,cycle number,(Q-Qo)/C,I Range,P/W,log(|I|),Tafel slope mV/dec,alpha_eff,E-IR/V,
2,1,0,0,0,4945.17,2.44065e-05,-0.000363498,0.081875,4,0.0000000E+000,10,-2.97614e-08,-4.08685, , ,-0.000428998,
2,1,0,1,0,4948.83,0.0182777,0.0179681,0.263351,4,0.000961462,10,4.73191e-06,-3.57947,0.359135,0.164284,0.0177574,
2,1,0,0,0,4952.52,0.036755,0.0364305,0.297434,4,0.00207804,10,1.08357e-05,-3.52661,0.336529,0.175319,0.0361925,
2,1,0,1,0,4956.22,0.0552323,0.0549606,0.35091,4,0.00333972,10,1.92862e-05,-3.4548,0.22973,0.256823,0.0546798,
2,1,0,1,0,4959.91,0.0737106,0.0733967,0.432618,4,0.0048617,10,3.17527e-05,-3.3639,0.25134,0.234742,0.0730506,
2,1,0,1,0,4963.61,0.0921881,0.0919099,0.50904,4,0.0066852,10,4.67858e-05,-3.29325,0.28678,0.205733,0.0915027,
2,1,0,1,0,4967.3,0.110665,0.110389,0.611021,4,0.00880471,10,6.74501e-05,-3.21394,0.146247,0.403428,0.1099,
2,1,0,1,0,4971,0.129144,0.128877,0.83352,4,0.0115433,10,0.000107421,-3.07908,0.145716,0.404896,0.12821,
2,1,0,0,0,4974.69,0.147621,0.147326,0.888888,4,0.0149309,10,0.000130956,-3.05115,-0.193112,-0.305523,0.146615,
2,1,0,0,0,4978.39,0.166099,0.165762,0.543372,4,0.0176872,10,9.00704e-05,-3.2649,-0.077264,-0.763615,0.165327,
2,1,0,1,0,4982.09,0.184576,0.184305,0.371231,4,0.0193987,10,6.84198e-05,-3.43036,-0.189373,-0.311554,0.184008,
2,1,0,1,0,4985.78,0.203054,0.202767,0.323353,4,0.0207513,10,6.55653e-05,-3.49032,-0.396714,-0.148722,0.202508,
2,1,0,1,0,4989.48,0.221532,0.2213,0.299483,4,0.0219748,10,6.62756e-05,-3.52363,-0.47321,-0.12468,0.22106,
2,1,0,1,0,4993.17,0.240009,0.239758,0.287728,4,0.0231362,10,6.8985e-05,-3.54102,-0.854804,-0.0690217,0.239528,
2,1,0,1,0,4996.87,0.258488,0.258248,0.280342,4,0.0242629,10,7.23977e-05,-3.55231,-1.95966,-0.0301072,0.258024,
2,1,0,0,0,5000.56,0.276965,0.276696,0.273145,4,0.0253649,10,7.55783e-05,-3.56361,-2.08446,-0.0283047,0.276478,
2,1,0,1,0,5004.26,0.295442,0.295138,0.269537,4,0.0264487,10,7.95506e-05,-3.56938,-3.75439,-0.0157149,0.294922,
2,1,0,1,0,5007.95,0.313921,0.313651,0.266189,4,0.0275177,10,8.34905e-05,-3.57481,-5.91693,-0.00997138,0.313438,
2,1,0,1,0,5011.65,0.332398,0.332127,0.260453,4,0.0285714,10,8.65034e-05,-3.58427,-2.60677,-0.0226334,0.331919,
2,1,0,1,0,5015.34,0.350875,0.350552,0.255667,4,0.0296103,10,8.96248e-05,-3.59232,-1.28112,-0.0460535,0.350348,
2,1,0,1,0,5019.04,0.369354,0.369111,0.254439,4,0.0306342,10,9.39164e-05,-3.59442,-1.48435,-0.0397481,0.368907,
2,1,0,0,0,5022.74,0.387831,0.38756,0.251185,4,0.0316457,10,9.7349e-05,-3.60001,-1.72296,-0.0342434,0.387359,
2,1,0,1,0,5026.43,0.406308,0.406062,0.249269,4,0.0326484,10,0.000101219,-3.60333,-2.74122,-0.0215233,0.405863,
2,1,0,1,0,5030.13,0.424786,0.424534,0.248012,4,0.0336443,10,0.00010529,-3.60553,-16.1549,-0.00365214,0.424336,
2,1,0,1,0,5033.82,0.443264,0.443023,0.247966,4,0.0346362,10,0.000109855,-3.60561,-2.8401,-0.0207739,0.442825,
2,1,0,1,0,5037.52,0.461741,0.461492,0.248776,4,0.0356293,10,0.000114808,-3.60419,5.0143,0.0117664,0.461293,
2,1,0,1,0,5041.21,0.480219,0.479949,0.250479,4,0.0366288,10,0.000120217,-3.60123,-9.09206,-0.00648918,0.479748,
2,1,0,0,0,5044.91,0.498697,0.498409,0.25494,4,0.037639,10,0.000127065,-3.59356,1.58793,0.0371552,0.498205,
2,1,0,1,0,5048.6,0.517174,0.516897,0.262184,4,0.0386689,10,0.000135522,-3.58139,0.847641,0.0696049,0.516687,
2,1,0,1,0,5052.3,0.535652,0.535332,0.272932,4,0.0397334,10,0.000146109,-3.56395,0.78706,0.0749625,0.535114,
2,1,0,1,0,5056,0.55413,0.553812,0.294114,4,0.0408555,10,0.000162884,-3.53148,0.756213,0.0780204,0.553577,
2,1,0,1,0,5059.69,0.572608,0.57235,0.328081,4,0.0420731,10,0.000187777,-3.48402,0.359364,0.164179,0.572088,
2,1,0,1,0,5063.39,0.591085,0.590799,0.3901,4,0.0434586,10,0.000230471,-3.40882,0.184998,0.318922,0.590487,
2,1,0,0,0,5067.08,0.609563,0.609339,0.51441,4,0.0451752,10,0.00031345,-3.28869,0.122211,0.482773,0.608928,
2,1,0,0,0,5070.78,0.628041,0.627804,0.778616,4,0.0475752,10,0.000488818,-3.10868,0.084397,0.699077,0.627182,
2,1,0,1,0,5074.47,0.646518,0.646302,1.35465,4,0.0514532,10,0.000875512,-2.86817,0.0661924,0.89134,0.645218,
2,1,0,1,0,5078.17,0.664996,0.664714,2.5916,4,0.0585469,10,0.00172267,-2.58643,0.0584559,1.00931,0.662641,
2,1,0,1,0,5081.86,0.683474,0.683263,4.9939,4,0.0722138,10,0.00341214,-2.30156,0.0585088,1.0084,0.679267,
2,1,0,1,0,5085.56,0.701951,0.701677,8.85536,4,0.0974503,10,0.00621361,-2.05279,0.0658352,0.896178,0.694593,
2,1,0,1,0,5089.26,0.720429,0.720227,13.8269,4,0.139195,10,0.00995847,-1.85928,0.0862341,0.684184,0.709165,
2,1,0,0,0,5092.95,0.738907,0.738705,19.742,4,0.200918,10,0.0145835,-1.70461,0.0921196,0.640472,0.722911,
2,1,0,1,0,5096.65,0.757384,0.757135,26.8454,4,0.286738,10,0.0203256,-1.57113,0.0945651,0.623909,0.735658,
2,1,0,1,0,5100.34,0.775862,0.775561,34.7239,4,0.400442,10,0.0269305,-1.45937,0.122666,0.48098,0.747782,
2,1,0,1,0,5104.04,0.79434,0.794038,42.8794,4,0.543774,10,0.0340479,-1.36775,0.152612,0.386602,0.759734,
2,1,0,1,0,5107.73,0.812817,0.812599,49.9359,4,0.715585,10,0.0405778,-1.30159,0.220373,0.267728,0.77265,
2,1,0,1,0,5111.43,0.831295,0.831067,55.8252,4,0.911507,10,0.0463945,-1.25317,0.316802,0.186236,0.786407,
2,1,0,0,0,5115.12,0.849748,0.849542,61.8539,4,1.12753,10,0.0525475,-1.20863,-0.227413,-0.25944,0.800059,
2,1,0,1,0,5118.72,0.832244,0.832013,54.381,4,1.33584,10,0.0452457,-1.26455,0.293802,0.200816,0.788509,
2,1,0,1,0,5122.42,0.813766,0.813518,47.5739,4,1.52471,10,0.0387022,-1.32263,0.0842178,0.700564,0.775459,
2,1,0,0,0,5126.11,0.795289,0.79506,40.5458,4,1.68355,10,0.0322363,-1.39205,0.163055,0.361842,0.762624,
2,1,0,0,0,5129.81,0.776811,0.77653,30.2498,4,1.81446,10,0.0234898,-1.51928,0.104714,0.563441,0.75233,
2,1,0,1,0,5133.5,0.758333,0.758045,22.332,4,1.9115,10,0.0169287,-1.65107,0.0871685,0.67685,0.740179,
2,1,0,1,0,5137.2,0.739856,0.73963,15.4349,4,1.98084,10,0.0114161,-1.8115,0.0771198,0.765043,0.727282,
2,1,0,1,0,5140.89,0.721378,0.721117,9.83484,4,2.02702,10,0.00709207,-2.00723,0.0662818,0.890139,0.713249,
2,1,0,1,0,5144.59,0.7029,0.702638,5.68719,4,2.05518,10,0.00399604,-2.2451,0.0594907,0.991751,0.698089,
2,1,0,0,0,5148.28,0.684423,0.684172,2.9422,4,2.07064,10,0.00201297,-2.53133,0.0548314,1.07603,0.681819,
2,1,0,0,0,5151.98,0.665945,0.665677,1.36661,4,2.07823,10,0.000909723,-2.86435,0.0499675,1.18077,0.664584,
2,1,0,1,0,5155.68,0.647467,0.647195,0.573507,4,2.08156,10,0.000371171,-3.24146,0.04513,1.30733,0.646736,
2,1,0,1,0,5159.37,0.62899,0.628767,0.211718,4,2.08285,10,0.000133121,-3.67424,0.0391135,1.50843,0.628598,
2,1,0,1,0,5163.07,0.610512,0.610277,0.0488043,4,2.08322,10,2.97842e-05,-4.31154,0.0188723,3.12628,0.610238,
2,0,0,1,0,5166.76,0.592034,0.591788,-0.0226249,4,2.08319,10,-1.33891e-05,-4.64541,-0.0187013,-3.15485,0.591806,
2,0,0,1,0,5170.46,0.573556,0.573287,-0.056404,4,2.08296,10,-3.23357e-05,-4.24869,-0.109816,-0.537261,0.573332,
2,0,0,0,0,5174.15,0.555079,0.554816,-0.07386,4,2.08264,10,-4.09787e-05,-4.13159,-0.239248,-0.246606,0.554875,
2,0,0,1,0,5177.85,0.536601,0.536309,-0.0851499,4,2.08227,10,-4.56666e-05,-4.06982,-1.52142,-0.0387797,0.536377,
2,0,0,1,0,5181.54,0.518123,0.51786,-0.0922762,4,2.08187,10,-4.77861e-05,-4.03491,-0.731567,-0.0806488,0.517934,
2,0,0,1,0,5185.24,0.499646,0.499358,-0.0984753,4,2.08145,10,-4.91745e-05,-4.00667,4.51831,0.013058,0.499437,
2,0,0,1,0,5188.94,0.481168,0.480879,-0.103123,4,2.081,10,-4.95897e-05,-3.98664,-0.522557,-0.112906,0.480961,
2,0,0,1,0,5192.63,0.46269,0.462384,-0.111776,4,2.08053,10,-5.16834e-05,-3.95165,2.89625,0.0203712,0.462473,
2,0,0,0,0,5196.33,0.444213,0.443969,-0.118708,4,2.08004,10,-5.27025e-05,-3.92552,1.92182,0.0307001,0.444064,
2,0,0,1,0,5200.02,0.425735,0.425456,-0.126837,4,2.07951,10,-5.39636e-05,-3.89675,-0.855784,-0.0689426,0.425557,
2,0,0,1,0,5203.72,0.407257,0.407001,-0.137613,4,2.07895,10,-5.60085e-05,-3.86134,-0.455178,-0.12962,0.407111,
2,0,0,1,0,5207.41,0.38878,0.388496,-0.146826,4,2.07835,10,-5.70411e-05,-3.8332,-0.746275,-0.0790594,0.388614,
2,0,0,1,0,5211.11,0.370303,0.369987,-0.15918,4,2.07771,10,-5.88945e-05,-3.79811,-0.569098,-0.103673,0.370114,
2,0,0,1,0,5214.8,0.351824,0.351543,-0.170074,4,2.07703,10,-5.97882e-05,-3.76936,-0.990842,-0.0595453,0.351679,
2,0,0,0,0,5218.5,0.333347,0.333045,-0.18107,4,2.0763,10,-6.03044e-05,-3.74215,-2.25833,-0.0261255,0.33319,
2,0,0,0,0,5222.2,0.314869,0.314612,-0.192814,4,2.07553,10,-6.06617e-05,-3.71486,-1.29458,-0.0455746,0.314766,
2,0,0,1,0,5225.89,0.296391,0.2961,-0.207895,4,2.07471,10,-6.15576e-05,-3.68216,-0.558931,-0.105559,0.296266,
2,0,0,1,0,5229.59,0.277914,0.277624,-0.219505,4,2.07385,10,-6.094e-05,-3.65855,-0.579178,-0.101868,0.2778,
2,0,0,1,0,5233.28,0.259436,0.259179,-0.231163,4,2.07295,10,-5.99127e-05,-3.63608,-0.663807,-0.0888813,0.259364,
2,0,0,1,0,5236.98,0.240958,0.240657,-0.244193,4,2.07199,10,-5.87668e-05,-3.61227,-0.891626,-0.0661713,0.240853,
2,0,0,0,0,5240.67,0.222481,0.222179,-0.259573,4,2.07099,10,-5.76716e-05,-3.58574,-0.75799,-0.0778375,0.222386,
2,0,0,0,0,5244.37,0.204003,0.203705,-0.282895,4,2.06991,10,-5.76273e-05,-3.54837,-0.399754,-0.147591,0.203932,
2,0,0,1,0,5248.06,0.185526,0.185213,-0.328316,4,2.06871,10,-6.08084e-05,-3.48371,-0.210251,-0.280617,0.185476,
2,0,0,1,0,5251.76,0.167047,0.16679,-0.441148,4,2.06725,10,-7.3579e-05,-3.35542,-0.104959,-0.562124,0.167143,
2,0,0,1,0,5255.46,0.14857,0.148307,-0.762689,4,2.06502,10,-0.000113112,-3.11765,-0.0806887,-0.731205,0.148917,
2,0,0,1,0,5259.15,0.130092,0.129778,-0.9682,4,2.06161,10,-0.000125651,-3.01404,1.67356,0.0352542,0.130553,
2,0,0,1,0,5262.85,0.111614,0.111275,-0.811879,4,2.05821,10,-9.03417e-05,-3.09051,0.199388,0.295905,0.111924,
2,0,0,0,0,5266.54,0.0931369,0.0928526,-0.684672,4,2.05541,10,-6.35735e-05,-3.16452,0.46706,0.126322,0.0934003,
2,0,0,1,0,5270.24,0.0746596,0.0743711,-0.623345,4,2.05292,10,-4.63589e-05,-3.20527,0.426201,0.138432,0.0748698,
2,0,0,1,0,5273.93,0.0561813,0.0559002,-0.544045,4,2.05068,10,-3.04123e-05,-3.26437,0.32546,0.181282,0.0563355,
2,0,0,1,0,5277.63,0.0377039,0.0374145,-0.491893,4,2.0487,10,-1.8404e-05,-3.30813,0.617079,0.0956117,0.0378081,
2,0,0,1,0,5281.32,0.0192267,0.0188972,-0.478244,4,2.04684,10,-9.03747e-06,-3.32035,-2.05335,-0.0287336,0.0192798,
2,0,0,1,0,5285.02,0.00074842,0.000381864,-0.493147,4,2.04497,10,-1.88315e-07,-3.30702, , ,0.000776381,
2,0,0,0,0,5285.11,0.000274105,-0.000122521,-0.492846,4,2.04492,10,6.03839e-08,-3.30729, , ,0.000271756,