Folder: Figs_alphaMnO2_OER_Tafel_sleope/Figure_codes/Fig_3-5/workspace_calculate_alpha_eff (part 32)

File: 20221101_1-115_003_TrumpetPlot_ParaChange_from10_every3_16_CV_C01_55.csv
mode,ox/red,error,control changes,counter inc.,time/s,control/V,Ewe/V,<I>/mA,cycle number,(Q-Qo)/C,I Range,P/W,log(|I|),Tafel slope mV/dec,alpha_eff,E-IR/V,
2,0,0,0,0,37062.5,2.44065e-05,-0.000268062,-0.0860374,56,0.0000000E+000,10,2.30633e-08,-4.06531, , ,-0.000230205,
2,1,0,1,0,37066.2,0.0187763,0.0184637,0.219624,56,0.000711824,10,4.05506e-06,-3.65832,0.147159,0.400927,0.018367,
2,1,0,1,0,37070,0.0377538,0.0373944,0.284252,56,0.00172481,10,1.06294e-05,-3.5463,0.172925,0.341189,0.0372693,
2,1,0,0,0,37073.8,0.0567309,0.0564001,0.345086,56,0.00298516,10,1.94629e-05,-3.46207,0.275662,0.21403,0.0562482,
2,1,0,1,0,37077.6,0.075708,0.0754036,0.392818,56,0.00445339,10,2.96199e-05,-3.40581,0.456459,0.129256,0.0752308,
2,1,0,0,0,37081.4,0.094685,0.094405,0.44735,56,0.00609091,10,4.22321e-05,-3.34935,0.265172,0.222497,0.0942082,
2,1,0,1,0,37085.2,0.113662,0.11335,0.544762,56,0.00803051,10,6.17489e-05,-3.26379,0.310537,0.189994,0.113111,
2,1,0,0,0,37089,0.132639,0.132338,0.58965,56,0.0102593,10,7.80331e-05,-3.22941,-0.773808,-0.0762463,0.132078,
2,1,0,1,0,37092.8,0.151617,0.151295,0.390888,56,0.0122526,10,5.91395e-05,-3.40795,-0.077525,-0.761045,0.151123,
2,1,0,1,0,37096.6,0.170594,0.170239,0.291437,56,0.0135453,10,4.9614e-05,-3.53546,-0.338942,-0.174071,0.170111,
2,1,0,1,0,37100.4,0.189571,0.189256,0.270459,56,0.0146565,10,5.11861e-05,-3.5679,-0.708896,-0.083228,0.189137,
2,1,0,1,0,37104.2,0.208547,0.208258,0.260779,56,0.0157134,10,5.43091e-05,-3.58373,-1.57453,-0.0374715,0.208143,
2,1,0,1,0,37108,0.227524,0.227222,0.25369,56,0.0167394,10,5.76438e-05,-3.5957,-1.46827,-0.0401834,0.22711,
2,1,0,1,0,37111.8,0.246501,0.246191,0.248089,56,0.0177439,10,6.10774e-05,-3.60539,-0.974265,-0.0605584,0.246082,
2,1,0,0,0,37115.6,0.265479,0.265174,0.245075,56,0.0187298,10,6.49874e-05,-3.6107,-1.20136,-0.0491111,0.265066,
2,1,0,1,0,37119.4,0.284456,0.28415,0.241085,56,0.0196977,10,6.85042e-05,-3.61783,-1.02795,-0.0573961,0.284044,
2,1,0,0,0,37123.1,0.303433,0.303146,0.236088,56,0.0206483,10,7.15691e-05,-3.62693,-2.28579,-0.0258117,0.303042,
2,1,0,1,0,37126.9,0.32241,0.322076,0.232625,56,0.0215841,10,7.4923e-05,-3.63334,10.4496,0.00564612,0.321974,
2,1,0,0,0,37130.7,0.341387,0.341081,0.229546,56,0.0225074,10,7.82939e-05,-3.63913,-1.74911,-0.0337314,0.34098,
2,1,0,1,0,37134.5,0.360364,0.360131,0.228691,56,0.0234202,10,8.23587e-05,-3.64075,4.03527,0.0146211,0.360031,
2,1,0,1,0,37138.3,0.379342,0.379004,0.226631,56,0.0243237,10,8.58941e-05,-3.64468,2.63117,0.0224235,0.378904,
2,1,0,1,0,37142.1,0.398319,0.397993,0.223937,56,0.0252204,10,8.91256e-05,-3.64987,-5.19343,-0.0113605,0.397895,
2,1,0,1,0,37145.9,0.417295,0.417001,0.223188,56,0.0261111,10,9.30695e-05,-3.65133,-4.87936,-0.0120917,0.416903,
2,1,0,1,0,37149.7,0.436272,0.435999,0.223199,56,0.0269965,10,9.73146e-05,-3.65131,1.71702,0.0343619,0.435901,
2,1,0,1,0,37153.5,0.455249,0.454957,0.222557,56,0.0278809,10,0.000101254,-3.65256,1.52093,0.0387921,0.454859,
2,1,0,1,0,37157.3,0.474226,0.473951,0.224548,56,0.0287681,10,0.000106425,-3.64869,2.78577,0.021179,0.473852,
2,1,0,1,0,37161.1,0.493203,0.492916,0.227176,56,0.0296622,10,0.000111979,-3.64364,1.99939,0.029509,0.492816,
2,1,0,0,0,37164.9,0.512181,0.511864,0.231139,56,0.030568,10,0.000118312,-3.63613,2.63586,0.0223836,0.511762,
2,1,0,1,0,37168.7,0.531158,0.530826,0.237573,56,0.0314925,10,0.00012611,-3.6242,1.28835,0.0457951,0.530721,
2,1,0,0,0,37172.5,0.550135,0.549859,0.246083,56,0.0324436,10,0.000135311,-3.60892,0.894581,0.0659527,0.549751,
2,1,0,1,0,37176.3,0.569112,0.568805,0.259248,56,0.0334351,10,0.000147462,-3.58628,0.603734,0.0977251,0.568691,
2,1,0,0,0,37180.1,0.588089,0.587779,0.280532,56,0.0344907,10,0.000164891,-3.55202,0.438794,0.13446,0.587656,
2,1,0,1,0,37183.9,0.607066,0.606739,0.31578,56,0.0356513,10,0.000191596,-3.50062,0.313999,0.187899,0.6066,
2,1,0,1,0,37187.7,0.626044,0.625747,0.383641,56,0.0369991,10,0.000240062,-3.41608,0.174569,0.337975,0.625578,
2,1,0,1,0,37191.5,0.64502,0.644713,0.522168,56,0.0387213,10,0.000336648,-3.28219,0.116883,0.504777,0.644483,
2,1,0,1,0,37195.3,0.663997,0.66368,0.808864,56,0.0412163,10,0.000536827,-3.09212,0.0892268,0.661236,0.663324,
2,1,0,1,0,37199.1,0.682974,0.682715,1.37038,56,0.0452796,10,0.000935582,-2.86316,0.0798292,0.739078,0.682112,
2,1,0,1,0,37202.9,0.701951,0.701676,2.33358,56,0.0522026,10,0.00163742,-2.63198,0.0833588,0.707784,0.70065,
2,1,0,1,0,37206.6,0.720928,0.72065,3.76028,56,0.0636524,10,0.00270985,-2.42478,0.0962956,0.612697,0.718995,
2,1,0,1,0,37210.4,0.739905,0.739623,5.66651,56,0.0814218,10,0.00419108,-2.24668,0.108795,0.542302,0.737129,
2,1,0,0,0,37214.2,0.758883,0.758625,8.09162,56,0.107386,10,0.0061385,-2.09196,0.12144,0.485838,0.755064,
2,1,0,1,0,37218,0.77786,0.777584,11.1748,56,0.143731,10,0.00868938,-1.95176,0.127199,0.46384,0.772667,
2,1,0,0,0,37221.8,0.796837,0.796533,15.2852,56,0.19359,10,0.0121751,-1.81573,0.123061,0.479436,0.789808,
2,1,0,1,0,37225.6,0.815814,0.815505,20.6533,56,0.26146,10,0.0168429,-1.68501,0.147846,0.399063,0.806417,
2,1,0,0,0,37229.4,0.834791,0.834545,26.7927,56,0.351119,10,0.0223597,-1.57198,0.150033,0.393247,0.822757,
2,1,0,0,0,37233.1,0.846726,0.846464,30.3979,56,0.461265,10,0.0257307,-1.51716,0.119473,0.493836,0.833089,
2,1,0,1,0,37236.9,0.827749,0.827561,23.2021,56,0.561924,10,0.0192012,-1.63447,0.164355,0.358979,0.817352,
2,1,0,1,0,37240.7,0.808772,0.808529,17.0576,56,0.637885,10,0.0137915,-1.76808,0.120107,0.491227,0.801024,
2,1,0,1,0,37244.5,0.789795,0.789497,12.2366,56,0.693035,10,0.00966077,-1.91234,0.114571,0.514965,0.784113,
2,1,0,1,0,37248.3,0.770818,0.770538,8.56604,56,0.732148,10,0.00660047,-2.06722,0.1107,0.532971,0.766769,
2,1,0,1,0,37252.1,0.751841,0.751611,5.83266,56,0.75919,10,0.00438389,-2.23413,0.10204,0.578202,0.749045,
2,1,0,1,0,37255.9,0.732865,0.732644,3.79533,56,0.777231,10,0.00278062,-2.42075,0.0909003,0.649063,0.730974,
2,1,0,0,0,37259.7,0.713887,0.713591,2.29223,56,0.788571,10,0.00163571,-2.63974,0.0769928,0.766306,0.712583,
2,1,0,1,0,37263.5,0.69491,0.694621,1.25153,56,0.795128,10,0.000869336,-2.90256,0.0641322,0.919974,0.69407,
2,1,0,0,0,37267.3,0.675933,0.675669,0.587804,56,0.798479,10,0.000397161,-3.23077,0.050956,1.15786,0.67541,
2,1,0,1,0,37271.1,0.656956,0.656675,0.222768,56,0.799915,10,0.000146286,-3.65215,0.036399,1.62093,0.656577,
2,1,0,0,0,37274.9,0.637979,0.637715,0.0358673,56,0.800325,10,2.28731e-05,-4.4453,0.0121547,4.8541,0.637699,
2,0,0,1,0,37278.7,0.619002,0.618723,-0.0453299,56,0.800249,10,-2.80466e-05,-4.34362,-0.0382113,-1.54405,0.618743,
2,0,0,0,0,37282.5,0.600024,0.599709,-0.0815103,56,0.799961,10,-4.88825e-05,-4.08879,-0.145165,-0.406435,0.599745,
2,0,0,1,0,37286.3,0.581047,0.580741,-0.0995213,56,0.799577,10,-5.77961e-05,-4.00208,-0.509234,-0.11586,0.580785,
2,0,0,1,0,37290,0.56207,0.561789,-0.108476,56,0.799144,10,-6.09406e-05,-3.96467,-0.554088,-0.106481,0.561836,
2,0,0,1,0,37293.8,0.543093,0.542785,-0.113894,56,0.798684,10,-6.18202e-05,-3.9435,-5.11363,-0.0115378,0.542835,
2,0,0,1,0,37297.6,0.524116,0.523803,-0.118939,56,0.798207,10,-6.23006e-05,-3.92468,-5.51249,-0.010703,0.523855,
2,0,0,1,0,37301.4,0.505139,0.504849,-0.123176,56,0.797711,10,-6.21853e-05,-3.90947,-1.11919,-0.0527166,0.504904,
2,0,0,1,0,37305.2,0.486162,0.485889,-0.128945,56,0.797194,10,-6.26528e-05,-3.8896,-3.16454,-0.0186441,0.485946,
2,0,0,1,0,37309,0.467185,0.466858,-0.134632,56,0.796657,10,-6.28543e-05,-3.87085,-1.20541,-0.048946,0.466918,
2,0,0,1,0,37312.8,0.448208,0.447924,-0.140808,56,0.796094,10,-6.30714e-05,-3.85137,-0.972115,-0.0606924,0.447986,
2,0,0,0,0,37316.6,0.429231,0.428937,-0.148703,56,0.795503,10,-6.3784e-05,-3.82768,2.67096,0.0220895,0.429002,
2,0,0,1,0,37320.4,0.410254,0.409955,-0.157927,56,0.794878,10,-6.47429e-05,-3.80154,-1.46916,-0.0401589,0.410025,
2,0,0,0,0,37324.2,0.391277,0.390956,-0.167338,56,0.794218,10,-6.54216e-05,-3.77641,-0.66686,-0.0884743,0.39103,
2,0,0,1,0,37328,0.3723,0.371991,-0.177303,56,0.79352,10,-6.59553e-05,-3.75128,-0.533161,-0.110661,0.372069,
2,0,0,1,0,37331.8,0.353322,0.352997,-0.187571,56,0.792782,10,-6.62122e-05,-3.72683,-0.835605,-0.0706076,0.35308,
2,0,0,1,0,37335.6,0.334345,0.334065,-0.198236,56,0.792002,10,-6.62238e-05,-3.70282,-0.667574,-0.0883797,0.334152,
2,0,0,1,0,37339.4,0.315368,0.315084,-0.209202,56,0.791178,10,-6.59162e-05,-3.67943,-0.590096,-0.0999838,0.315176,
2,0,0,1,0,37343.2,0.296391,0.296095,-0.221305,56,0.790311,10,-6.55273e-05,-3.65501,-0.642143,-0.0918799,0.296193,
2,0,0,1,0,37347,0.277414,0.277123,-0.233712,56,0.789397,10,-6.4767e-05,-3.63132,-0.78867,-0.0748094,0.277226,
2,0,0,1,0,37350.8,0.258437,0.258117,-0.245823,56,0.788437,10,-6.34511e-05,-3.60938,-0.861771,-0.0684637,0.258225,
2,0,0,1,0,37354.6,0.239461,0.239163,-0.257223,56,0.787431,10,-6.15181e-05,-3.58969,-0.820208,-0.071933,0.239276,
2,0,0,0,0,37358.4,0.220483,0.220216,-0.269125,56,0.78638,10,-5.92655e-05,-3.57005,-0.645782,-0.0913621,0.220334,
2,0,0,1,0,37362.2,0.201506,0.201188,-0.282685,56,0.785282,10,-5.68727e-05,-3.5487,-0.639292,-0.0922896,0.201312,
2,0,0,0,0,37366,0.182529,0.182208,-0.302223,56,0.784122,10,-5.50674e-05,-3.51967,-0.456286,-0.129305,0.182341,
2,0,0,1,0,37369.8,0.163552,0.163253,-0.336261,56,0.782864,10,-5.48957e-05,-3.47332,-0.31067,-0.189912,0.163401,
2,0,0,0,0,37373.5,0.144575,0.144253,-0.435867,56,0.781383,10,-6.28749e-05,-3.36065,-0.103169,-0.571875,0.144444,
2,0,0,1,0,37377.3,0.125598,0.125317,-0.656287,56,0.779245,10,-8.22439e-05,-3.18291,-0.179144,-0.329344,0.125606,
2,0,0,1,0,37381.1,0.10662,0.106332,-0.703287,56,0.776544,10,-7.4782e-05,-3.15287,2.74927,0.0214602,0.106642,
2,0,0,1,0,37384.9,0.0876433,0.0873394,-0.666559,56,0.773874,10,-5.82169e-05,-3.17616,0.706537,0.0835059,0.0876327,
2,0,0,1,0,37388.7,0.0686664,0.0683657,-0.623464,56,0.771367,10,-4.26235e-05,-3.20519,0.684879,0.0861467,0.06864,
2,0,0,1,0,37392.5,0.0496895,0.0493317,-0.58041,56,0.769018,10,-2.86326e-05,-3.23627,0.58335,0.10114,0.0495871,
2,0,0,1,0,37396.3,0.0307126,0.030361,-0.532194,56,0.766844,10,-1.6158e-05,-3.27393,0.560175,0.105324,0.0305952,
2,0,0,1,0,37400.1,0.0117356,0.0114157,-0.500995,56,0.764834,10,-5.71922e-06,-3.30017,1.47683,0.0399505,0.0116362,
2,0,0,0,0,37402.4,0.000274105,-0.000120135,-0.501361,56,0.763652,10,6.0231e-08,-3.29985, , ,0.000100464,

File: 20221101_1-115_003_TrumpetPlot_ParaChange_from10_every3_16_CV_C01_56.csv
mode,ox/red,error,control changes,counter inc.,time/s,control/V,Ewe/V,<I>/mA,cycle number,(Q-Qo)/C,I Range,P/W,log(|I|),Tafel slope mV/dec,alpha_eff,E-IR/V,
2,0,0,0,0,37432.5,2.44065e-05,-0.000458935,-0.113387,57,0.0000000E+000,10,5.20371e-08,-3.94544, , ,-0.000409045,
2,1,0,1,0,37436.2,0.0187763,0.0184233,0.209496,57,0.000680741,10,3.85961e-06,-3.67882,0.142518,0.413982,0.0183312,
2,1,0,1,0,37440,0.0377538,0.0374273,0.274336,57,0.00165933,10,1.02677e-05,-3.56172,0.180165,0.327478,0.0373066,
2,1,0,0,0,37443.8,0.0567309,0.0564043,0.337723,57,0.00288765,10,1.9049e-05,-3.47144,0.306944,0.192218,0.0562557,
2,1,0,1,0,37447.6,0.075708,0.0753219,0.384062,57,0.00432329,10,2.89283e-05,-3.4156,0.508463,0.116036,0.075153,
2,1,0,0,0,37451.4,0.094685,0.0943944,0.439332,57,0.00592957,10,4.14705e-05,-3.35721,0.252264,0.233882,0.0942011,
2,1,0,1,0,37455.2,0.113662,0.113366,0.537527,57,0.00784254,10,6.09374e-05,-3.2696,0.332231,0.177587,0.11313,
2,1,0,0,0,37459,0.132639,0.13235,0.581214,57,0.0100448,10,7.69235e-05,-3.23566,-0.723026,-0.0816015,0.132094,
2,1,0,1,0,37462.8,0.151617,0.151279,0.380337,57,0.0120025,10,5.7537e-05,-3.41983,-0.0727093,-0.811451,0.151112,
2,1,0,1,0,37466.6,0.170594,0.170281,0.281208,57,0.0132564,10,4.78843e-05,-3.55097,-0.320035,-0.184355,0.170157,
2,1,0,1,0,37470.4,0.189571,0.189274,0.260535,57,0.0143315,10,4.93125e-05,-3.58413,-1.00684,-0.058599,0.18916,
2,1,0,1,0,37474.2,0.208547,0.208208,0.250802,57,0.015354,10,5.22189e-05,-3.60067,-0.924596,-0.0638117,0.208097,
2,1,0,1,0,37478,0.227524,0.227233,0.244377,57,0.0163451,10,5.55304e-05,-3.61194,-1.19098,-0.0495391,0.227125,
2,1,0,1,0,37481.8,0.246501,0.246166,0.239998,57,0.0173157,10,5.90794e-05,-3.61979,-2.40294,-0.0245532,0.24606,
2,1,0,0,0,37485.6,0.265479,0.2652,0.236937,57,0.0182717,10,6.28359e-05,-3.62537,-1.20218,-0.0490776,0.265096,
2,1,0,1,0,37489.4,0.284456,0.284192,0.232744,57,0.0192126,10,6.61441e-05,-3.63312,-1.17401,-0.050255,0.28409,
2,1,0,0,0,37493.1,0.303433,0.303125,0.228318,57,0.0201357,10,6.9209e-05,-3.64146,-3.48546,-0.0169275,0.303024,
2,1,0,1,0,37496.9,0.32241,0.322133,0.225297,57,0.0210437,10,7.25756e-05,-3.64724,-1.97944,-0.0298064,0.322033,
2,1,0,0,0,37500.7,0.341387,0.341097,0.222415,57,0.0219396,10,7.58649e-05,-3.65284,2.79079,0.021141,0.340999,
2,1,0,1,0,37504.5,0.360364,0.360058,0.221042,57,0.0228257,10,7.95881e-05,-3.65552,5.66519,0.0104145,0.359961,
2,1,0,1,0,37508.3,0.379342,0.378987,0.219528,57,0.0237033,10,8.31984e-05,-3.65851,-4.22082,-0.0139783,0.37889,
2,1,0,1,0,37512.1,0.398319,0.398003,0.216941,57,0.0245729,10,8.63431e-05,-3.66366,2.90443,0.0203138,0.397907,
2,1,0,1,0,37515.9,0.417295,0.417004,0.21664,57,0.025438,10,9.03397e-05,-3.66426,2.19146,0.0269227,0.416909,
2,1,0,1,0,37519.7,0.436272,0.435979,0.216453,57,0.0262994,10,9.43688e-05,-3.66464,8.648,0.00682239,0.435884,
2,1,0,1,0,37523.5,0.455249,0.454992,0.216859,57,0.0271589,10,9.8669e-05,-3.66382,1.32539,0.0445152,0.454897,
2,1,0,1,0,37527.3,0.474226,0.473927,0.217892,57,0.0280214,10,0.000103265,-3.66176,1.22267,0.0482549,0.473831,
2,1,0,1,0,37531.1,0.493203,0.492873,0.222027,57,0.0288924,10,0.000109431,-3.65359,2.00323,0.0294524,0.492775,
2,1,0,0,0,37534.9,0.512181,0.511869,0.225724,57,0.0297773,10,0.000115541,-3.64642,1.9252,0.0306462,0.51177,
2,1,0,1,0,37538.7,0.531158,0.530894,0.231656,57,0.0306795,10,0.000122985,-3.63516,3.69946,0.0159483,0.530792,
2,1,0,0,0,37542.5,0.550135,0.54983,0.240484,57,0.0316094,10,0.000132225,-3.61891,0.732059,0.0805946,0.549725,
2,1,0,1,0,37546.3,0.569112,0.568814,0.253549,57,0.0325807,10,0.000144222,-3.59594,0.798573,0.0738818,0.568702,
2,1,0,0,0,37550.1,0.588089,0.587767,0.274716,57,0.0336158,10,0.000161469,-3.56112,0.526703,0.112018,0.587646,
2,1,0,1,0,37553.9,0.607066,0.606765,0.310386,57,0.0347559,10,0.000188331,-3.5081,0.286608,0.205856,0.606628,
2,1,0,1,0,37557.7,0.626044,0.625755,0.378914,57,0.0360856,10,0.000237107,-3.42146,0.178465,0.330598,0.625588,
2,1,0,1,0,37561.5,0.64502,0.64473,0.519128,57,0.037794,10,0.000334697,-3.28473,0.111364,0.529795,0.644501,
2,1,0,1,0,37565.3,0.663997,0.663741,0.80922,57,0.0402826,10,0.000537113,-3.09193,0.0866185,0.681148,0.663385,
2,1,0,1,0,37569.1,0.682974,0.682698,1.37546,57,0.0443532,10,0.000939024,-2.86155,0.0779574,0.756824,0.682093,
2,1,0,1,0,37572.9,0.701951,0.70165,2.34776,57,0.05131,10,0.00164731,-2.62935,0.083622,0.705556,0.700617,
2,1,0,1,0,37576.6,0.720928,0.720628,3.78287,57,0.0628282,10,0.00272604,-2.42218,0.0955644,0.617384,0.718963,
2,1,0,1,0,37580.4,0.739905,0.739633,5.70073,57,0.0807047,10,0.00421645,-2.24407,0.106992,0.551443,0.737125,
2,1,0,0,0,37584.2,0.758883,0.758563,8.14539,57,0.106836,10,0.00617879,-2.08909,0.123011,0.479633,0.754979,
2,1,0,1,0,37588,0.77786,0.777578,11.2736,57,0.143468,10,0.00876609,-1.94794,0.125378,0.470578,0.772618,
2,1,0,0,0,37591.8,0.796837,0.796588,15.4866,57,0.19387,10,0.0123364,-1.81004,0.12116,0.486959,0.789774,
2,1,0,1,0,37595.6,0.815814,0.815527,20.9515,57,0.262788,10,0.0170865,-1.67879,0.133962,0.440425,0.806308,
2,1,0,0,0,37599.4,0.834791,0.83456,27.3869,57,0.354372,10,0.022856,-1.56246,0.150972,0.390802,0.82251,
2,1,0,0,0,37603.1,0.846726,0.846471,31.0635,57,0.467015,10,0.0262943,-1.50775,0.116729,0.505446,0.832803,
2,1,0,1,0,37606.9,0.827749,0.827516,23.3065,57,0.569517,10,0.0192865,-1.63252,0.127398,0.463114,0.817261,
2,1,0,1,0,37610.7,0.808772,0.808448,17.171,57,0.645806,10,0.0138818,-1.7652,0.122127,0.483102,0.800892,
2,1,0,1,0,37614.5,0.789795,0.789499,12.2603,57,0.701224,10,0.00967951,-1.9115,0.112245,0.525635,0.784105,
2,1,0,1,0,37618.3,0.770818,0.770573,8.55688,57,0.740312,10,0.0065937,-2.06768,0.108108,0.545749,0.766808,
2,1,0,1,0,37622.1,0.751841,0.751556,5.79959,57,0.767258,10,0.00435872,-2.2366,0.102964,0.573015,0.749005,
2,1,0,1,0,37625.9,0.732865,0.732604,3.76588,57,0.785183,10,0.0027589,-2.42413,0.0907094,0.650429,0.730947,
2,1,0,0,0,37629.7,0.713887,0.713583,2.27807,57,0.796458,10,0.00162559,-2.64243,0.0762089,0.774188,0.71258,
2,1,0,1,0,37633.5,0.69491,0.694674,1.23942,57,0.802966,10,0.00086099,-2.90678,0.063439,0.930027,0.694128,
2,1,0,0,0,37637.3,0.675933,0.67567,0.579674,57,0.806278,10,0.000391669,-3.23682,0.0509951,1.15697,0.675415,
2,1,0,1,0,37641.1,0.656956,0.656685,0.210218,57,0.807666,10,0.000138047,-3.67733,0.0349181,1.68967,0.656592,
2,1,0,0,0,37644.9,0.637979,0.637674,0.0271233,57,0.808036,10,1.72958e-05,-4.56666,0.00951113,6.20326,0.637662,
2,0,0,1,0,37648.7,0.619002,0.618743,-0.0523056,57,0.80793,10,-3.23637e-05,-4.28145,-0.0468016,-1.26064,0.618766,
2,0,0,0,0,37652.5,0.600024,0.599718,-0.0871543,57,0.807619,10,-5.22681e-05,-4.05971,-0.185531,-0.318007,0.599757,
2,0,0,1,0,37656.3,0.581047,0.580745,-0.104846,57,0.807215,10,-6.08886e-05,-3.97945,-0.548691,-0.107529,0.580791,
2,0,0,1,0,37660,0.56207,0.561796,-0.112664,57,0.806765,10,-6.3294e-05,-3.94822,-0.932547,-0.0632676,0.561845,
2,0,0,1,0,37663.8,0.543093,0.542772,-0.118683,57,0.806289,10,-6.44176e-05,-3.92561,-0.544063,-0.108443,0.542825,
2,0,0,1,0,37667.6,0.524116,0.523856,-0.123529,57,0.805792,10,-6.47114e-05,-3.90823,-3.23573,-0.0182339,0.52391,
2,0,0,1,0,37671.4,0.505139,0.504817,-0.127475,57,0.805278,10,-6.43515e-05,-3.89458,-1.82339,-0.0323573,0.504873,
2,0,0,1,0,37675.2,0.486162,0.485861,-0.133028,57,0.804745,10,-6.46331e-05,-3.87606,-75.8902,-0.000777439,0.485919,
2,0,0,1,0,37679,0.467185,0.46683,-0.137458,57,0.804191,10,-6.41695e-05,-3.86183,-0.882411,-0.0668623,0.46689,
2,0,0,1,0,37682.8,0.448208,0.44791,-0.145346,57,0.803613,10,-6.51018e-05,-3.8376,-1.72362,-0.0342302,0.447973,
2,0,0,0,0,37686.6,0.429231,0.428959,-0.153081,57,0.803005,10,-6.56656e-05,-3.81508,5.50733,0.010713,0.429026,
2,0,0,1,0,37690.4,0.410254,0.409912,-0.162033,57,0.802366,10,-6.64192e-05,-3.7904,-2.91278,-0.0202556,0.409983,
2,0,0,0,0,37694.2,0.391277,0.390932,-0.171288,57,0.801692,10,-6.69618e-05,-3.76627,-0.719565,-0.081994,0.391007,
2,0,0,1,0,37698,0.3723,0.37201,-0.180194,57,0.800979,10,-6.70338e-05,-3.74426,-0.708167,-0.0833137,0.372089,
2,0,0,1,0,37701.8,0.353322,0.353005,-0.190459,57,0.800228,10,-6.72329e-05,-3.7202,-1.11665,-0.0528367,0.353089,
2,0,0,1,0,37705.6,0.334345,0.334031,-0.201553,57,0.799435,10,-6.73248e-05,-3.69561,-0.493314,-0.119599,0.33412,
2,0,0,1,0,37709.4,0.315368,0.315034,-0.213365,57,0.798599,10,-6.72172e-05,-3.67088,-0.98602,-0.0598365,0.315128,
2,0,0,1,0,37713.2,0.296391,0.296041,-0.22662,57,0.797718,10,-6.7089e-05,-3.6447,-0.646864,-0.0912093,0.296141,
2,0,0,1,0,37717,0.277414,0.277071,-0.237537,57,0.796791,10,-6.58145e-05,-3.62427,-1.60851,-0.0366799,0.277175,
2,0,0,1,0,37720.8,0.258437,0.258132,-0.248732,57,0.795817,10,-6.42057e-05,-3.60427,-0.86503,-0.0682057,0.258241,
2,0,0,1,0,37724.6,0.239461,0.239177,-0.260687,57,0.794799,10,-6.23505e-05,-3.58388,-1.40081,-0.0421185,0.239292,
2,0,0,0,0,37728.4,0.220483,0.220203,-0.272094,57,0.793736,10,-5.9916e-05,-3.56528,-0.610304,-0.0966731,0.220323,
2,0,0,1,0,37732.2,0.201506,0.201183,-0.284936,57,0.792625,10,-5.73241e-05,-3.54525,-0.69419,-0.0849912,0.201308,
2,0,0,0,0,37736,0.182529,0.182184,-0.305016,57,0.791453,10,-5.55692e-05,-3.51568,-0.483905,-0.121925,0.182319,
2,0,0,1,0,37739.8,0.163552,0.163214,-0.338292,57,0.790185,10,-5.52139e-05,-3.47071,-0.307483,-0.19188,0.163363,
2,0,0,0,0,37743.5,0.144575,0.144252,-0.438448,57,0.788693,10,-6.32467e-05,-3.35808,-0.103709,-0.568897,0.144444,
2,0,0,1,0,37747.3,0.125598,0.125272,-0.658609,57,0.786543,10,-8.25055e-05,-3.18137,-0.175703,-0.335794,0.125562,
2,0,0,1,0,37751.1,0.10662,0.106261,-0.706528,57,0.783834,10,-7.50765e-05,-3.15087,1.56313,0.0377447,0.106572,
2,0,0,1,0,37754.9,0.0876433,0.0873074,-0.669234,57,0.781158,10,-5.84291e-05,-3.17442,0.686453,0.0859491,0.0876019,
2,0,0,1,0,37758.7,0.0686664,0.0683328,-0.625131,57,0.778646,10,-4.27169e-05,-3.20403,0.741895,0.0795261,0.0686078,
2,0,0,1,0,37762.5,0.0496895,0.0493434,-0.579017,57,0.776295,10,-2.85707e-05,-3.23731,0.45958,0.128378,0.0495981,
2,0,0,1,0,37766.3,0.0307126,0.0303928,-0.530428,57,0.774125,10,-1.61212e-05,-3.27537,0.558718,0.105599,0.0306262,
2,0,0,1,0,37770.1,0.0117356,0.0114223,-0.49861,57,0.77212,10,-5.69526e-06,-3.30224,1.22939,0.0479914,0.0116417,
2,0,0,0,0,37772.4,0.000274105,-0.000120135,-0.499155,57,0.770943,10,5.99659e-08,-3.30176, , ,9.94934e-05,