Folder: Figs_alphaMnO2_OER_Tafel_sleope/Figure_codes/Fig_3-5/workspace_calculate_alpha_eff (part 9)

File: 20221101_1-115_003_TrumpetPlot_ParaChange_from10_every3_16_CV_C01_9.csv
mode,ox/red,error,control changes,counter inc.,time/s,control/V,Ewe/V,<I>/mA,cycle number,(Q-Qo)/C,I Range,P/W,log(|I|),Tafel slope mV/dec,alpha_eff,E-IR/V,
2,0,0,1,0,7140.51,2.44065e-05,-0.000287149,-0.0491475,10,0.0000000E+000,10,1.41127e-08,-4.3085, , ,-0.000265524,
2,1,0,1,0,7144.26,0.0187763,0.0184255,0.276942,10,0.000962192,10,5.1028e-06,-3.55761,0.189755,0.310927,0.0183036,
2,1,0,0,0,7148.06,0.0377538,0.0374135,0.340292,10,0.00220955,10,1.27315e-05,-3.46815,0.221234,0.266686,0.0372638,
2,1,0,1,0,7151.85,0.0567309,0.0564202,0.408589,10,0.00371645,10,2.30527e-05,-3.38871,0.302293,0.195175,0.0562404,
2,1,0,0,0,7155.65,0.075708,0.0753962,0.464011,10,0.00545803,10,3.49847e-05,-3.33347,0.471516,0.125128,0.075192,
2,1,0,1,0,7159.44,0.0946851,0.0943944,0.528595,10,0.00740076,10,4.98964e-05,-3.27688,0.245486,0.24034,0.0941619,
2,1,0,0,0,7163.24,0.113662,0.113379,0.644067,10,0.00969278,10,7.30236e-05,-3.19107,0.286686,0.2058,0.113095,
2,1,0,1,0,7167.03,0.132639,0.132334,0.724031,10,0.0123764,10,9.58137e-05,-3.14024,1.62904,0.0362177,0.132015,
2,1,0,1,0,7170.83,0.151617,0.151274,0.520711,10,0.0149355,10,7.87701e-05,-3.2834,-0.0752466,-0.784089,0.151045,
2,1,0,1,0,7174.62,0.170594,0.170294,0.354409,10,0.0165891,10,6.03538e-05,-3.4505,-0.207121,-0.284858,0.170138,
2,1,0,1,0,7178.42,0.189571,0.189296,0.31263,10,0.0179062,10,5.91796e-05,-3.50497,-0.538688,-0.109525,0.189158,
2,1,0,1,0,7182.21,0.208547,0.208273,0.296358,10,0.0191239,10,6.17235e-05,-3.52818,-0.966727,-0.0610307,0.208143,
2,1,0,1,0,7186.01,0.227524,0.227207,0.285542,10,0.0202934,10,6.48772e-05,-3.54433,-1.18404,-0.0498294,0.227081,
2,1,0,1,0,7189.8,0.246501,0.246227,0.280462,10,0.0214329,10,6.90574e-05,-3.55213,-0.738384,-0.0799043,0.246104,
2,1,0,1,0,7193.6,0.265479,0.265154,0.274943,10,0.0225519,10,7.29022e-05,-3.56076,-0.910357,-0.0648097,0.265033,
2,1,0,0,0,7197.4,0.284456,0.284149,0.270526,10,0.0236542,10,7.68697e-05,-3.56779,-10.6414,-0.00554436,0.28403,
2,1,0,1,0,7201.19,0.303433,0.303169,0.266075,10,0.0247389,10,8.06659e-05,-3.575,-6.93981,-0.00850168,0.303052,
2,1,0,0,0,7204.99,0.32241,0.322128,0.262242,10,0.0258083,10,8.44755e-05,-3.5813,-3.20573,-0.0184046,0.322013,
2,1,0,1,0,7208.78,0.341387,0.341104,0.259508,10,0.0268638,10,8.85192e-05,-3.58585,-1.90818,-0.0309196,0.34099,
2,1,0,0,0,7212.58,0.360364,0.360111,0.258135,10,0.0279084,10,9.29574e-05,-3.58815,3.96786,0.0148695,0.359997,
2,1,0,1,0,7216.37,0.379342,0.379015,0.253906,10,0.0289424,10,9.62344e-05,-3.59533,-5.65032,-0.0104419,0.378904,
2,1,0,1,0,7220.17,0.398319,0.39801,0.251431,10,0.0299652,10,0.000100072,-3.59958,-28.8678,-0.0020438,0.3979,
2,1,0,1,0,7223.96,0.417295,0.417042,0.250051,10,0.0309797,10,0.000104282,-3.60197,2.5862,0.0228134,0.416932,
2,1,0,1,0,7227.76,0.436272,0.435969,0.249861,10,0.0319904,10,0.000108932,-3.6023,-1.26377,-0.0466857,0.435859,
2,1,0,1,0,7231.55,0.455249,0.454922,0.249543,10,0.0329998,10,0.000113523,-3.60285,1.19997,0.0491678,0.454812,
2,1,0,1,0,7235.35,0.474226,0.473922,0.25137,10,0.0340108,10,0.00011913,-3.59969,1.89658,0.0311086,0.473812,
2,1,0,1,0,7239.15,0.493203,0.492894,0.253882,10,0.0350297,10,0.000125137,-3.59537,1.88529,0.031295,0.492782,
2,1,0,1,0,7242.94,0.512181,0.511872,0.259231,10,0.0360631,10,0.000132693,-3.58631,1.3161,0.0448295,0.511758,
2,1,0,0,0,7246.74,0.531158,0.530868,0.266848,10,0.0371192,10,0.000141661,-3.57374,1.60927,0.0366626,0.530751,
2,1,0,1,0,7250.53,0.550135,0.549818,0.277315,10,0.0382104,10,0.000152473,-3.55703,0.641484,0.0919743,0.549696,
2,1,0,0,0,7254.33,0.569112,0.568865,0.297284,10,0.0393579,10,0.000169114,-3.52683,0.527516,0.111845,0.568734,
2,1,0,1,0,7258.12,0.588089,0.587814,0.330993,10,0.0405999,10,0.000194563,-3.48018,0.353839,0.166742,0.587669,
2,1,0,0,0,7261.92,0.607066,0.606759,0.391455,10,0.0420115,10,0.000237519,-3.40732,0.194296,0.303661,0.606587,
2,1,0,1,0,7265.71,0.626044,0.625809,0.516151,10,0.0437629,10,0.000323012,-3.28722,0.130575,0.451847,0.625582,
2,1,0,1,0,7269.51,0.64502,0.644737,0.788503,10,0.0462305,10,0.000508377,-3.1032,0.0864815,0.682227,0.64439,
2,1,0,1,0,7273.3,0.663997,0.663734,1.38509,10,0.0502743,10,0.00091933,-2.85852,0.0695594,0.848196,0.663125,
2,1,0,1,0,7277.1,0.682974,0.682705,2.58587,10,0.0576313,10,0.00176539,-2.58739,0.0682457,0.864523,0.681567,
2,1,0,1,0,7280.89,0.701951,0.701676,4.66581,10,0.0711535,10,0.00327389,-2.33107,0.0741451,0.795737,0.699623,
2,1,0,1,0,7284.69,0.720928,0.720646,7.68433,10,0.0943746,10,0.00553768,-2.11439,0.0897828,0.657142,0.717265,
2,1,0,1,0,7288.49,0.739905,0.739653,11.4892,10,0.130603,10,0.00849805,-1.93971,0.110242,0.535188,0.734598,
2,1,0,1,0,7292.28,0.758883,0.758657,16.1376,10,0.182741,10,0.0122429,-1.79216,0.117982,0.500076,0.751557,
2,1,0,0,0,7296.08,0.77786,0.777601,22.0379,10,0.254872,10,0.0171367,-1.65683,0.127793,0.461683,0.767904,
2,1,0,1,0,7299.87,0.796837,0.796573,29.0257,10,0.351546,10,0.0231211,-1.53722,0.144274,0.408943,0.783802,
2,1,0,0,0,7303.67,0.815814,0.815573,36.6062,10,0.476012,10,0.029855,-1.43645,0.183371,0.321752,0.799466,
2,1,0,1,0,7307.46,0.834791,0.834534,44.2923,10,0.629563,10,0.0369634,-1.35367,0.220119,0.268037,0.815045,
2,1,0,1,0,7311.16,0.846727,0.846548,48.1325,10,0.8057,10,0.0407464,-1.31756,0.166682,0.353968,0.82537,
2,1,0,1,0,7314.95,0.827749,0.827512,40.0515,10,0.972602,10,0.0331431,-1.39738,0.179661,0.328397,0.80989,
2,1,0,1,0,7318.75,0.808772,0.808526,31.5469,10,1.10824,10,0.0255065,-1.50104,0.138397,0.426309,0.794645,
2,1,0,1,0,7322.55,0.789795,0.789535,23.8361,10,1.21299,10,0.0188194,-1.62277,0.11959,0.49335,0.779047,
2,1,0,1,0,7326.34,0.770818,0.770541,17.1262,10,1.29025,10,0.0131965,-1.76634,0.10779,0.547358,0.763006,
2,1,0,1,0,7330.14,0.751841,0.751557,11.6511,10,1.34438,10,0.00875647,-1.93363,0.0920149,0.6412,0.746431,
2,1,0,1,0,7333.93,0.732865,0.732582,7.41312,10,1.38008,10,0.00543071,-2.13,0.0827956,0.712598,0.72932,
2,1,0,1,0,7337.73,0.713887,0.713623,4.3747,10,1.40204,10,0.00312189,-2.35905,0.0720431,0.818954,0.711698,
2,1,0,0,0,7341.52,0.69491,0.694643,2.34836,10,1.41445,10,0.00163127,-2.62924,0.0622037,0.948497,0.69361,
2,1,0,1,0,7345.32,0.675933,0.675689,1.11358,10,1.42073,10,0.000752435,-2.95328,0.0535267,1.10225,0.675199,
2,1,0,0,0,7349.11,0.656956,0.656678,0.476328,10,1.42357,10,0.000312794,-3.32209,0.0449525,1.3125,0.656469,
2,1,0,1,0,7352.91,0.637979,0.63771,0.158664,10,1.42463,10,0.000101182,-3.79952,0.033549,1.75862,0.63764,
2,1,0,0,0,7356.7,0.619002,0.618712,0.0191567,10,1.42487,10,1.18525e-05,-4.71768,0.00876396,6.73212,0.618704,
2,0,0,1,0,7360.5,0.600025,0.599786,-0.0396657,10,1.42475,10,-2.3791e-05,-4.40158,-0.0414671,-1.42281,0.599804,
2,0,0,1,0,7364.29,0.581047,0.580792,-0.0670403,10,1.42448,10,-3.89365e-05,-4.17366,-0.14201,-0.415464,0.580822,
2,0,0,1,0,7368.09,0.56207,0.561788,-0.0810799,10,1.42413,10,-4.55498e-05,-4.09109,-0.254102,-0.23219,0.561824,
2,0,0,1,0,7371.89,0.543093,0.542857,-0.088269,10,1.42375,10,-4.79175e-05,-4.05419,-0.371339,-0.158885,0.542896,
2,0,0,1,0,7375.68,0.524116,0.523812,-0.0952294,10,1.42334,10,-4.98823e-05,-4.02123,-1.01508,-0.0581237,0.523854,
2,0,0,1,0,7379.48,0.505139,0.50486,-0.100848,10,1.4229,10,-5.09142e-05,-3.99633,-0.572525,-0.103052,0.504904,
2,0,0,1,0,7383.27,0.486162,0.485879,-0.106274,10,1.42244,10,-5.16363e-05,-3.97357,-0.611839,-0.0964306,0.485926,
2,0,0,1,0,7387.07,0.467185,0.466876,-0.112837,10,1.42196,10,-5.26809e-05,-3.94755,-0.47674,-0.123757,0.466925,
2,0,0,0,0,7390.86,0.448208,0.447917,-0.120299,10,1.42145,10,-5.3884e-05,-3.91974,-0.657219,-0.0897722,0.44797,
2,0,0,1,0,7394.66,0.429231,0.42894,-0.128466,10,1.42092,10,-5.51042e-05,-3.89121,-14.0245,-0.00420692,0.428996,
2,0,0,0,0,7398.45,0.410254,0.409952,-0.137796,10,1.42035,10,-5.64898e-05,-3.86076,-2.23435,-0.0264059,0.410013,
2,0,0,1,0,7402.25,0.391277,0.390964,-0.147836,10,1.41974,10,-5.77983e-05,-3.83022,-0.780871,-0.0755566,0.391029,
2,0,0,0,0,7406.04,0.3723,0.371992,-0.15757,10,1.41909,10,-5.86149e-05,-3.80253,-0.733689,-0.0804156,0.372061,
2,0,0,1,0,7409.84,0.353322,0.353017,-0.1683,10,1.4184,10,-5.9413e-05,-3.77391,-0.542454,-0.108765,0.353092,
2,0,0,1,0,7413.64,0.334345,0.334061,-0.179935,10,1.41767,10,-6.01092e-05,-3.74488,-0.57411,-0.102768,0.33414,
2,0,0,1,0,7417.43,0.315368,0.315062,-0.192673,10,1.41689,10,-6.07039e-05,-3.71518,-0.726775,-0.0811806,0.315146,
2,0,0,1,0,7421.23,0.296391,0.29605,-0.206527,10,1.41607,10,-6.11422e-05,-3.68502,-0.811378,-0.0727158,0.296141,
2,0,0,1,0,7425.02,0.277414,0.27713,-0.216575,10,1.4152,10,-6.00195e-05,-3.66439,-0.63622,-0.0927352,0.277225,
2,0,0,1,0,7428.82,0.258437,0.258151,-0.229862,10,1.41428,10,-5.93391e-05,-3.63853,-0.682132,-0.0864935,0.258252,
2,0,0,1,0,7432.61,0.239461,0.239176,-0.243699,10,1.41331,10,-5.82871e-05,-3.61315,-0.832329,-0.0708855,0.239284,
2,0,0,1,0,7436.41,0.220483,0.220165,-0.255326,10,1.41229,10,-5.62139e-05,-3.5929,-0.551087,-0.107061,0.220277,
2,0,0,0,0,7440.2,0.201506,0.201202,-0.270634,10,1.41122,10,-5.4452e-05,-3.56762,-0.432387,-0.136452,0.201321,
2,0,0,1,0,7444,0.182529,0.182214,-0.29701,10,1.41007,10,-5.41194e-05,-3.52723,-0.326354,-0.180785,0.182345,
2,0,0,0,0,7447.79,0.163552,0.163254,-0.355588,10,1.40877,10,-5.80512e-05,-3.44905,-0.159909,-0.368959,0.163411,
2,0,0,1,0,7451.59,0.144575,0.144297,-0.542133,10,1.40706,10,-7.82282e-05,-3.26589,-0.0754779,-0.781686,0.144536,
2,0,0,0,0,7455.38,0.125598,0.125255,-0.792861,10,1.40436,10,-9.93102e-05,-3.1008,-0.458488,-0.128684,0.125604,
2,0,0,1,0,7459.18,0.10662,0.106323,-0.763369,10,1.40128,10,-8.11634e-05,-3.11727,0.49171,0.119989,0.106659,
2,0,0,1,0,7462.98,0.0876433,0.0873562,-0.683448,10,1.39846,10,-5.97034e-05,-3.16529,0.447861,0.131737,0.0876569,
2,0,0,1,0,7466.77,0.0686664,0.0683772,-0.630285,10,1.39591,10,-4.30971e-05,-3.20046,0.619389,0.0952552,0.0686546,
2,0,0,1,0,7470.57,0.0496895,0.0493794,-0.578556,10,1.39353,10,-2.85687e-05,-3.23765,0.547785,0.107706,0.0496339,
2,0,0,1,0,7474.36,0.0307126,0.030413,-0.524969,10,1.39135,10,-1.59658e-05,-3.27987,0.432393,0.13645,0.0306439,
2,0,0,1,0,7478.16,0.0117356,0.0114063,-0.489633,10,1.38936,10,-5.58488e-06,-3.31013,1.29821,0.0454473,0.0116217,
2,0,0,1,0,7480.45,0.000274105,-0.000118942,-0.492008,10,1.38818,10,5.85204e-08,-3.30803, , ,9.75416e-05,

File: 20221101_1-115_003_TrumpetPlot_ParaChange_from10_every3_16_CV_C01_10.csv
mode,ox/red,error,control changes,counter inc.,time/s,control/V,Ewe/V,<I>/mA,cycle number,(Q-Qo)/C,I Range,P/W,log(|I|),Tafel slope mV/dec,alpha_eff,E-IR/V,
2,0,0,0,0,7510.51,2.44065e-05,-0.000401673,-0.0968499,11,0.0000000E+000,10,3.8902e-08,-4.0139, , ,-0.000359059,
2,1,0,1,0,7514.26,0.0187763,0.0184234,0.227189,11,0.000783048,10,4.18558e-06,-3.64361,0.138244,0.426782,0.0183234,
2,1,0,1,0,7518.06,0.0377538,0.037423,0.294542,11,0.0018531,10,1.10227e-05,-3.53085,0.171536,0.34395,0.0372934,
2,1,0,0,0,7521.85,0.0567309,0.0563895,0.361174,11,0.00318551,10,2.03664e-05,-3.44228,0.248243,0.23767,0.0562305,
2,1,0,1,0,7525.65,0.075708,0.0754036,0.421334,11,0.00475894,10,3.17701e-05,-3.37537,0.376441,0.156731,0.0752182,
2,1,0,0,0,7529.44,0.0946851,0.0943404,0.486536,11,0.00654528,10,4.58999e-05,-3.31289,0.234287,0.251828,0.0941263,
2,1,0,1,0,7533.24,0.113662,0.113357,0.603711,11,0.00868971,10,6.84347e-05,-3.21917,0.286306,0.206073,0.113091,
2,1,0,0,0,7537.03,0.132639,0.13234,0.690735,11,0.0112333,10,9.14118e-05,-3.16069,2.16709,0.0272254,0.132036,
2,1,0,1,0,7540.83,0.151617,0.151289,0.48155,11,0.013653,10,7.2853e-05,-3.31736,-0.0699456,-0.843512,0.151077,
2,1,0,1,0,7544.62,0.170594,0.170294,0.318719,11,0.0151717,10,5.4276e-05,-3.49659,-0.176874,-0.33357,0.170154,
2,1,0,1,0,7548.42,0.189571,0.189256,0.27595,11,0.0163599,10,5.22252e-05,-3.55917,-0.511962,-0.115243,0.189135,
2,1,0,1,0,7552.21,0.208547,0.208264,0.259183,11,0.0174452,10,5.39785e-05,-3.58639,-1.06585,-0.0553548,0.20815,
2,1,0,1,0,7556.01,0.227524,0.227229,0.24913,11,0.0184795,10,5.66097e-05,-3.60357,-1.78053,-0.0331361,0.22712,
2,1,0,1,0,7559.81,0.246501,0.246174,0.24348,11,0.0194844,10,5.99385e-05,-3.61354,-0.601975,-0.0980107,0.246067,
2,1,0,0,0,7563.6,0.265479,0.265196,0.23736,11,0.0204693,10,6.29469e-05,-3.62459,-1.22171,-0.0482928,0.265092,
2,1,0,1,0,7567.4,0.284456,0.284174,0.234359,11,0.0214361,10,6.65989e-05,-3.63012,-1.77002,-0.033333,0.284071,
2,1,0,0,0,7571.19,0.303433,0.303196,0.229916,11,0.0223861,10,6.97096e-05,-3.63843,5.58641,0.0105613,0.303095,
2,1,0,1,0,7574.99,0.32241,0.322122,0.226331,11,0.0233224,10,7.29062e-05,-3.64526,-1.12387,-0.052497,0.322022,
2,1,0,0,0,7578.78,0.341387,0.341131,0.223379,11,0.0242452,10,7.62014e-05,-3.65096,-1.52962,-0.0385716,0.341033,
2,1,0,1,0,7582.58,0.360364,0.36009,0.220944,11,0.0251552,10,7.95596e-05,-3.65572,-11.2224,-0.00525733,0.359993,
2,1,0,1,0,7586.37,0.379342,0.379058,0.218756,11,0.026055,10,8.29213e-05,-3.66004,3.70516,0.0159237,0.378962,
2,1,0,1,0,7590.17,0.398319,0.398038,0.216631,11,0.0269475,10,8.62276e-05,-3.66428,3.16684,0.0186306,0.397943,
2,1,0,1,0,7593.96,0.417295,0.417017,0.215383,11,0.0278342,10,8.98182e-05,-3.66679,-13.432,-0.00439251,0.416922,
2,1,0,1,0,7597.76,0.436272,0.43598,0.216251,11,0.0287189,10,9.42811e-05,-3.66504,-2.71966,-0.0216939,0.435885,
2,1,0,1,0,7601.56,0.455249,0.454948,0.217467,11,0.0296042,10,9.89365e-05,-3.66261,3.32722,0.0177325,0.454853,
2,1,0,1,0,7605.35,0.474226,0.473958,0.218489,11,0.0304948,10,0.000103554,-3.66057,0.97846,0.0602988,0.473862,
2,1,0,1,0,7609.15,0.493203,0.492947,0.221918,11,0.0313954,10,0.000109394,-3.65381,1.49805,0.0393845,0.492849,
2,1,0,0,0,7612.94,0.512181,0.511914,0.227728,11,0.0323122,10,0.000116577,-3.64258,1.51715,0.0388888,0.511813,
2,1,0,1,0,7616.74,0.531158,0.530875,0.236164,11,0.0332523,10,0.000125374,-3.62679,1.18677,0.0497149,0.530771,
2,1,0,0,0,7620.53,0.550135,0.549821,0.24736,11,0.0342284,10,0.000136004,-3.60667,0.609951,0.0967291,0.549712,
2,1,0,1,0,7624.33,0.569112,0.568831,0.264808,11,0.0352603,10,0.000150631,-3.57707,0.371614,0.158767,0.568714,
2,1,0,0,0,7628.12,0.588089,0.587787,0.297668,11,0.0363846,10,0.000174965,-3.52627,0.322533,0.182927,0.587656,
2,1,0,1,0,7631.92,0.607066,0.606809,0.356185,11,0.0376727,10,0.000216137,-3.44832,0.211688,0.278712,0.606653,
2,1,0,1,0,7635.71,0.626044,0.625767,0.476449,11,0.0392865,10,0.000298146,-3.32198,0.119145,0.495197,0.625557,
2,1,0,1,0,7639.51,0.64502,0.644756,0.734663,11,0.0415868,10,0.000473679,-3.13391,0.0844478,0.698657,0.644433,
2,1,0,1,0,7643.3,0.663997,0.663749,1.31104,11,0.0454013,10,0.0008702,-2.88238,0.0688565,0.856855,0.663172,
2,1,0,1,0,7647.1,0.682974,0.682689,2.48301,11,0.0524285,10,0.00169512,-2.60502,0.0673856,0.875557,0.681596,
2,1,0,1,0,7650.9,0.701951,0.701664,4.52782,11,0.0654932,10,0.00317701,-2.34411,0.0744139,0.792862,0.699671,
2,1,0,1,0,7654.69,0.720928,0.72063,7.52593,11,0.0881478,10,0.00542341,-2.12344,0.087169,0.676846,0.717318,
2,1,0,1,0,7658.49,0.739905,0.739673,11.3507,11,0.123799,10,0.0083958,-1.94498,0.10497,0.562063,0.734678,
2,1,0,0,0,7662.28,0.758883,0.758566,16.0799,11,0.175559,10,0.0121977,-1.79372,0.11323,0.521064,0.751491,
2,1,0,1,0,7666.08,0.77786,0.77755,22.1426,11,0.24771,10,0.0172169,-1.65477,0.114222,0.516539,0.767807,
2,1,0,0,0,7669.87,0.796837,0.796627,29.5227,11,0.345446,10,0.0235186,-1.52984,0.129051,0.457185,0.783637,
2,1,0,1,0,7673.67,0.815814,0.815592,37.4264,11,0.472655,10,0.0305246,-1.42682,0.178252,0.330992,0.799124,
2,1,0,0,0,7677.46,0.834791,0.834554,45.4752,11,0.630121,10,0.0379515,-1.34223,0.218891,0.269541,0.814545,
2,1,0,0,0,7681.16,0.846727,0.846479,46.2039,11,0.808581,10,0.0391107,-1.33532,0.283698,0.207967,0.82615,
2,1,0,1,0,7684.96,0.827749,0.827489,37.8922,11,0.967734,10,0.0313553,-1.42145,0.174758,0.337609,0.810816,
2,1,0,1,0,7688.75,0.808772,0.808556,30.7126,11,1.09685,10,0.0248329,-1.51268,0.140065,0.421232,0.795042,
2,1,0,1,0,7692.55,0.789795,0.789541,23.1733,11,1.19874,10,0.0182963,-1.63501,0.117094,0.50387,0.779344,
2,1,0,1,0,7696.34,0.770818,0.77054,16.6479,11,1.27386,10,0.0128279,-1.77864,0.104164,0.566412,0.763215,
2,1,0,1,0,7700.14,0.751841,0.751585,11.3094,11,1.32642,10,0.00849999,-1.94656,0.0942053,0.626292,0.746609,
2,1,0,1,0,7703.93,0.732865,0.732595,7.21456,11,1.36114,10,0.00528535,-2.14179,0.082915,0.711572,0.729421,
2,1,0,0,0,7707.73,0.713887,0.713623,4.253,11,1.3825,10,0.00303504,-2.3713,0.0724211,0.814679,0.711752,
2,1,0,1,0,7711.52,0.69491,0.694641,2.26865,11,1.39453,10,0.0015759,-2.64423,0.0610234,0.966843,0.693643,
2,1,0,0,0,7715.32,0.675933,0.675681,1.06658,11,1.40059,10,0.000720671,-2.972,0.0511862,1.15265,0.675211,
2,1,0,1,0,7719.11,0.656956,0.656677,0.426325,11,1.40322,10,0.000279958,-3.37026,0.0410247,1.43816,0.65649,
2,1,0,0,0,7722.91,0.637979,0.63774,0.125125,11,1.40413,10,7.97974e-05,-3.90266,0.0266188,2.21648,0.637685,
2,0,0,1,0,7726.7,0.619002,0.618772,-0.00650688,11,1.40426,10,-4.02627e-06,-5.18663,-0.00391741,-15.061,0.618775,
2,0,0,0,0,7730.5,0.600025,0.599723,-0.0610766,11,1.40405,10,-3.66291e-05,-4.21412,-0.0732698,-0.805243,0.59975,
2,0,0,1,0,7734.3,0.581047,0.580756,-0.0876035,11,1.4037,10,-5.08763e-05,-4.05748,-0.283371,-0.208208,0.580795,
2,0,0,1,0,7738.09,0.56207,0.561746,-0.0999795,11,1.40328,10,-5.61631e-05,-4.00009,-0.45479,-0.12973,0.56179,
2,0,0,1,0,7741.89,0.543093,0.542825,-0.108904,11,1.40283,10,-5.91158e-05,-3.96296,-1.54796,-0.0381146,0.542873,
2,0,0,1,0,7745.68,0.524116,0.523811,-0.113556,11,1.40235,10,-5.94821e-05,-3.94479,-0.469231,-0.125738,0.523861,
2,0,0,1,0,7749.48,0.505139,0.504841,-0.118241,11,1.40185,10,-5.96929e-05,-3.92723,-1.0445,-0.0564864,0.504893,
2,0,0,1,0,7753.27,0.486162,0.48587,-0.122818,11,1.40133,10,-5.96737e-05,-3.91074,-1.91887,-0.0307472,0.485924,
2,0,0,1,0,7757.07,0.467185,0.466876,-0.130249,11,1.40079,10,-6.08103e-05,-3.88522,2.21454,0.0266422,0.466934,
2,0,0,1,0,7760.86,0.448208,0.447934,-0.134984,11,1.40022,10,-6.04639e-05,-3.86972,4.29912,0.0137237,0.447993,
2,0,0,0,0,7764.66,0.429231,0.428988,-0.144589,11,1.39963,10,-6.20269e-05,-3.83986,-1.75488,-0.0336205,0.429051,
2,0,0,1,0,7768.45,0.410254,0.409929,-0.152429,11,1.39901,10,-6.24851e-05,-3.81693,-0.953552,-0.0618739,0.409996,
2,0,0,0,0,7772.25,0.391277,0.390987,-0.164103,11,1.39834,10,-6.41621e-05,-3.78488,-1.06249,-0.0555299,0.391059,
2,0,0,1,0,7776.05,0.3723,0.371976,-0.172347,11,1.39764,10,-6.4109e-05,-3.7636,-1.12804,-0.0523031,0.372052,
2,0,0,1,0,7779.84,0.353322,0.352996,-0.182966,11,1.3969,10,-6.45865e-05,-3.73763,-0.467981,-0.126074,0.353077,
2,0,0,1,0,7783.64,0.334345,0.334087,-0.193294,11,1.39612,10,-6.45772e-05,-3.71378,-0.663746,-0.0888894,0.334172,
2,0,0,1,0,7787.43,0.315368,0.315101,-0.205881,11,1.39529,10,-6.48735e-05,-3.68638,-0.649223,-0.0908778,0.315192,
2,0,0,1,0,7791.23,0.296391,0.296111,-0.219246,11,1.39442,10,-6.49212e-05,-3.65907,-0.853636,-0.0691161,0.296208,
2,0,0,1,0,7795.02,0.277414,0.277127,-0.230034,11,1.3935,10,-6.37486e-05,-3.63821,-1.16334,-0.0507162,0.277228,
2,0,0,1,0,7798.82,0.258437,0.258183,-0.242989,11,1.39253,10,-6.27355e-05,-3.61441,-0.62444,-0.0944846,0.25829,
2,0,0,1,0,7802.61,0.239461,0.23919,-0.256042,11,1.39152,10,-6.12428e-05,-3.59169,-0.893915,-0.0660018,0.239303,
2,0,0,0,0,7806.41,0.220483,0.220181,-0.266709,11,1.39046,10,-5.87242e-05,-3.57396,-0.51454,-0.114666,0.220298,
2,0,0,1,0,7810.2,0.201506,0.201196,-0.281416,11,1.38935,10,-5.66198e-05,-3.55065,-0.453225,-0.130178,0.20132,
2,0,0,0,0,7814,0.182529,0.182236,-0.307653,11,1.38816,10,-5.60656e-05,-3.51194,-0.30672,-0.192358,0.182372,
2,0,0,1,0,7817.79,0.163552,0.163219,-0.362856,11,1.38683,10,-5.92249e-05,-3.44027,-0.174667,-0.337786,0.163379,
2,0,0,0,0,7821.59,0.144575,0.144287,-0.538371,11,1.38512,10,-7.76797e-05,-3.26892,-0.0781716,-0.75475,0.144523,
2,0,0,1,0,7825.39,0.125598,0.125265,-0.788115,11,1.38244,10,-9.87232e-05,-3.10341,-0.413939,-0.142533,0.125612,
2,0,0,1,0,7829.18,0.10662,0.106275,-0.766591,11,1.37937,10,-8.14693e-05,-3.11544,0.564448,0.104527,0.106612,
2,0,0,1,0,7832.98,0.0876433,0.0873255,-0.687868,11,1.37653,10,-6.00684e-05,-3.1625,0.42488,0.138863,0.0876281,
2,0,0,1,0,7836.77,0.0686664,0.068358,-0.637036,11,1.37395,10,-4.35466e-05,-3.19584,0.710646,0.083023,0.0686383,
2,0,0,1,0,7840.57,0.0496895,0.0493963,-0.587861,11,1.37155,10,-2.90382e-05,-3.23073,0.492078,0.1199,0.049655,
2,0,0,1,0,7844.36,0.0307126,0.0303928,-0.532403,11,1.36934,10,-1.61812e-05,-3.27376,0.50254,0.117404,0.030627,
2,0,0,1,0,7848.16,0.0117356,0.0114159,-0.497562,11,1.36732,10,-5.68011e-06,-3.30315,1.52404,0.0387128,0.0116348,
2,0,0,0,0,7850.45,0.000274105,-0.000116556,-0.498892,11,1.36613,10,5.81488e-08,-3.30199, , ,0.000102956,