Folder: Figs_alphaMnO2_OER_Tafel_sleope/Figure_codes/Fig_3-5/workspace_calculate_alpha_eff (part 12)

File: 20221101_1-115_003_TrumpetPlot_ParaChange_from10_every3_16_CV_C01_15.csv
mode,ox/red,error,control changes,counter inc.,time/s,control/V,Ewe/V,<I>/mA,cycle number,(Q-Qo)/C,I Range,P/W,log(|I|),Tafel slope mV/dec,alpha_eff,E-IR/V,
2,0,0,1,0,11080.8,2.44065e-05,-0.000363498,-0.0376989,16,0.0000000E+000,10,1.37035e-08,-4.42367, , ,-0.000346911,
2,1,0,1,0,11084.5,0.0187763,0.0184762,0.278778,16,0.000961311,10,5.15078e-06,-3.55474,0.182014,0.324151,0.0183536,
2,1,0,0,0,11088.3,0.0377538,0.0374145,0.346283,16,0.00222222,10,1.2956e-05,-3.46057,0.239281,0.246572,0.0372622,
2,1,0,1,0,11092.1,0.0567309,0.0563905,0.410888,16,0.00373613,10,2.31702e-05,-3.38628,0.353782,0.166769,0.0562097,
2,1,0,0,0,11095.9,0.075708,0.0754036,0.460803,16,0.00546866,10,3.47462e-05,-3.33648,0.522891,0.112834,0.0752009,
2,1,0,1,0,11099.7,0.0946851,0.0943541,0.521751,16,0.00738715,10,4.92294e-05,-3.28254,0.276784,0.213163,0.0941246,
2,1,0,0,0,11103.5,0.113662,0.113294,0.630662,16,0.00964485,10,7.14502e-05,-3.2002,0.374091,0.157716,0.113017,
2,1,0,1,0,11107.3,0.132639,0.132349,0.703598,16,0.0122568,10,9.31201e-05,-3.15268,-126.958,-0.000464721,0.132039,
2,1,0,1,0,11111.1,0.151617,0.151309,0.487253,16,0.0146881,10,7.37258e-05,-3.31225,-0.0758366,-0.777989,0.151094,
2,1,0,1,0,11114.9,0.170594,0.170302,0.344155,16,0.0162679,10,5.86102e-05,-3.46325,-0.232893,-0.253336,0.17015,
2,1,0,1,0,11118.7,0.189571,0.189245,0.310618,16,0.0175652,10,5.87828e-05,-3.50777,-0.69596,-0.084775,0.189108,
2,1,0,1,0,11122.5,0.208547,0.208265,0.295643,16,0.0187757,10,6.15722e-05,-3.52923,-1.52118,-0.0387857,0.208135,
2,1,0,1,0,11126.3,0.227524,0.227214,0.286212,16,0.0199419,10,6.50313e-05,-3.54331,-1.15871,-0.0509187,0.227088,
2,1,0,1,0,11130.1,0.246501,0.246224,0.279291,16,0.0210803,10,6.87682e-05,-3.55394,-2.83309,-0.0208253,0.246101,
2,1,0,1,0,11133.9,0.265479,0.265146,0.27734,16,0.022199,10,7.35357e-05,-3.55699,-0.827343,-0.0713126,0.265024,
2,1,0,0,0,11137.7,0.284456,0.284168,0.272633,16,0.0233019,10,7.74736e-05,-3.56442,-26.2657,-0.00224628,0.284048,
2,1,0,1,0,11141.5,0.303433,0.303109,0.267655,16,0.0243892,10,8.11287e-05,-3.57242,-1.44129,-0.0409355,0.302991,
2,1,0,0,0,11145.2,0.32241,0.322109,0.264161,16,0.0254604,10,8.50889e-05,-3.57813,-2.93711,-0.0200878,0.321993,
2,1,0,1,0,11149,0.341387,0.341119,0.261516,16,0.0265191,10,8.9208e-05,-3.5825,-5.09507,-0.0115798,0.341004,
2,1,0,0,0,11152.8,0.360364,0.36001,0.259248,16,0.0275659,10,9.33321e-05,-3.58628,-7.61124,-0.00775169,0.359896,
2,1,0,1,0,11156.6,0.379342,0.379071,0.255339,16,0.028601,10,9.67915e-05,-3.59288,-1.24079,-0.0475504,0.378958,
2,1,0,1,0,11160.4,0.398319,0.397996,0.252878,16,0.0296267,10,0.000100644,-3.59709,-1.90079,-0.0310398,0.397884,
2,1,0,1,0,11164.2,0.417295,0.416984,0.250998,16,0.0306447,10,0.000104662,-3.60033,-4.44728,-0.0132665,0.416873,
2,1,0,1,0,11168,0.436272,0.435971,0.251916,16,0.0316576,10,0.000109828,-3.59874,6.39546,0.00922529,0.43586,
2,1,0,1,0,11171.8,0.455249,0.454979,0.25188,16,0.0326692,10,0.0001146,-3.59881,2.70472,0.0218137,0.454868,
2,1,0,1,0,11175.6,0.474226,0.473906,0.252802,16,0.0336821,10,0.000119805,-3.59722,1.65903,0.035563,0.473795,
2,1,0,1,0,11179.4,0.493203,0.492882,0.253874,16,0.034701,10,0.00012513,-3.59538,1.77067,0.0333207,0.49277,
2,1,0,1,0,11183.2,0.512181,0.511899,0.260503,16,0.035733,10,0.000133351,-3.58419,2.41231,0.0244579,0.511784,
2,1,0,0,0,11187,0.531158,0.530891,0.267933,16,0.0367875,10,0.000142243,-3.57197,1.23456,0.0477904,0.530773,
2,1,0,1,0,11190.8,0.550135,0.549842,0.276735,16,0.0378733,10,0.000152161,-3.55794,1.00218,0.0588718,0.54972,
2,1,0,0,0,11194.6,0.569112,0.568819,0.294224,16,0.0390104,10,0.00016736,-3.53132,0.707462,0.0833967,0.56869,
2,1,0,1,0,11198.4,0.588089,0.587827,0.32343,16,0.0402327,10,0.000190121,-3.49022,0.425315,0.138721,0.587685,
2,1,0,0,0,11202.2,0.607066,0.606764,0.378855,16,0.0416077,10,0.000229876,-3.42153,0.223732,0.263708,0.606597,
2,1,0,1,0,11206,0.626044,0.625718,0.4877,16,0.0432817,10,0.000305163,-3.31185,0.133062,0.443402,0.625503,
2,1,0,1,0,11209.8,0.64502,0.644744,0.72223,16,0.0455762,10,0.000465653,-3.14132,0.0929855,0.634508,0.644426,
2,1,0,1,0,11213.6,0.663997,0.663722,1.23005,16,0.0492198,10,0.000816413,-2.91008,0.0727192,0.811341,0.66318,
2,1,0,1,0,11217.4,0.682974,0.682669,2.25015,16,0.055677,10,0.0015361,-2.64779,0.0702668,0.839656,0.681679,
2,1,0,1,0,11221.2,0.701951,0.701649,4.01795,16,0.0673653,10,0.00281919,-2.396,0.0753619,0.782889,0.699881,
2,1,0,1,0,11225,0.720928,0.720666,6.61656,16,0.0873487,10,0.00476833,-2.17937,0.0910388,0.648075,0.717755,
2,1,0,1,0,11228.7,0.739905,0.739629,9.96231,16,0.118651,10,0.00736841,-2.00164,0.107264,0.550047,0.735246,
2,1,0,1,0,11232.5,0.758883,0.758625,14.0304,16,0.163975,10,0.0106438,-1.85293,0.121229,0.486684,0.752451,
2,1,0,0,0,11236.3,0.77786,0.77758,19.2497,16,0.226784,10,0.0149682,-1.71558,0.12401,0.47577,0.769111,
2,1,0,1,0,11240.1,0.796837,0.796562,25.6867,16,0.311703,10,0.0204611,-1.59029,0.132449,0.445454,0.78526,
2,1,0,0,0,11243.9,0.815814,0.815537,32.9411,16,0.422794,10,0.0268647,-1.48226,0.155657,0.379038,0.801042,
2,1,0,1,0,11247.7,0.834791,0.834572,40.442,16,0.562046,10,0.0337518,-1.39317,0.199557,0.295655,0.816777,
2,1,0,1,0,11251.4,0.846727,0.846487,44.0125,16,0.723541,10,0.037256,-1.35642,0.144774,0.407531,0.827121,
2,1,0,1,0,11255.2,0.827749,0.827522,35.9031,16,0.874783,10,0.0297106,-1.44487,0.151197,0.390219,0.811724,
2,1,0,1,0,11259,0.808772,0.80851,27.7676,16,0.995471,10,0.0224504,-1.55646,0.128188,0.460263,0.796292,
2,1,0,1,0,11262.8,0.789795,0.789505,20.6385,16,1.08705,10,0.0162942,-1.68532,0.113704,0.518891,0.780424,
2,1,0,1,0,11266.6,0.770818,0.770538,14.6624,16,1.15359,10,0.011298,-1.83379,0.105699,0.55819,0.764087,
2,1,0,1,0,11270.4,0.751841,0.751558,9.9087,16,1.19979,10,0.00744697,-2.00398,0.0937925,0.629048,0.747198,
2,1,0,1,0,11274.2,0.732865,0.732635,6.3055,16,1.23014,10,0.00461963,-2.20028,0.0855235,0.689869,0.72986,
2,1,0,1,0,11278,0.713887,0.713619,3.8088,16,1.24915,10,0.00271803,-2.41921,0.0728461,0.809927,0.711943,
2,1,0,0,0,11281.8,0.69491,0.694652,2.03252,16,1.25993,10,0.0014119,-2.69196,0.0626419,0.941861,0.693758,
2,1,0,1,0,11285.6,0.675933,0.67565,0.968405,16,1.26539,10,0.000654303,-3.01394,0.0530801,1.11153,0.675224,
2,1,0,0,0,11289.4,0.656956,0.656677,0.395735,16,1.2678,10,0.00025987,-3.4026,0.0422237,1.39732,0.656503,
2,1,0,1,0,11293.2,0.637979,0.637728,0.123015,16,1.26866,10,7.84503e-05,-3.91004,0.0298128,1.97901,0.637673,
2,1,0,0,0,11297,0.619002,0.618694,0.00326622,16,1.26881,10,2.02079e-06,-5.48595,0.0139148,4.2401,0.618693,
2,0,0,1,0,11300.8,0.600025,0.599717,-0.0469009,16,1.26865,10,-2.81273e-05,-4.32882,-0.0598421,-0.985927,0.599738,
2,0,0,1,0,11304.6,0.581047,0.580745,-0.0716715,16,1.26837,10,-4.16229e-05,-4.14465,-0.175176,-0.336804,0.580777,
2,0,0,1,0,11308.4,0.56207,0.561756,-0.0835257,16,1.26802,10,-4.6921e-05,-4.07818,-0.341721,-0.172655,0.561792,
2,0,0,1,0,11312.1,0.543093,0.542768,-0.0916189,16,1.26763,10,-4.97278e-05,-4.03801,-0.859061,-0.0686796,0.542808,
2,0,0,1,0,11315.9,0.524116,0.523801,-0.0960207,16,1.26722,10,-5.02957e-05,-4.01764,-0.826353,-0.0713981,0.523843,
2,0,0,1,0,11319.7,0.505139,0.504848,-0.101781,16,1.26679,10,-5.13841e-05,-3.99233,-0.608795,-0.0969127,0.504893,
2,0,0,1,0,11323.5,0.486162,0.485865,-0.107231,16,1.26634,10,-5.20999e-05,-3.96968,-1.62722,-0.0362581,0.485912,
2,0,0,1,0,11327.3,0.467185,0.466891,-0.113369,16,1.26586,10,-5.29308e-05,-3.94551,-0.607418,-0.0971325,0.466941,
2,0,0,0,0,11331.1,0.448208,0.447917,-0.12076,16,1.26536,10,-5.40905e-05,-3.91808,-2.83637,-0.0208012,0.44797,
2,0,0,1,0,11334.9,0.429231,0.42897,-0.129467,16,1.26483,10,-5.55375e-05,-3.88784,-1.00106,-0.0589375,0.429027,
2,0,0,0,0,11338.7,0.410254,0.409974,-0.138953,16,1.26427,10,-5.69671e-05,-3.85713,-1.40346,-0.0420388,0.410035,
2,0,0,1,0,11342.5,0.391277,0.391003,-0.148407,16,1.26366,10,-5.80275e-05,-3.82855,-0.837848,-0.0704185,0.391068,
2,0,0,0,0,11346.3,0.3723,0.371971,-0.158395,16,1.26302,10,-5.89184e-05,-3.80026,-0.55993,-0.10537,0.37204,
2,0,0,1,0,11350.1,0.353322,0.353002,-0.169318,16,1.26234,10,-5.97694e-05,-3.7713,-0.576925,-0.102266,0.353076,
2,0,0,1,0,11353.9,0.334345,0.33402,-0.180322,16,1.26161,10,-6.0231e-05,-3.74395,-0.727062,-0.0811485,0.334099,
2,0,0,1,0,11357.7,0.315368,0.31512,-0.193535,16,1.26084,10,-6.09867e-05,-3.71324,-0.610396,-0.0966586,0.315205,
2,0,0,1,0,11361.5,0.296391,0.296107,-0.206053,16,1.26002,10,-6.10138e-05,-3.68602,-1.01622,-0.0580583,0.296198,
2,0,0,1,0,11365.3,0.277414,0.277112,-0.218116,16,1.25915,10,-6.04426e-05,-3.66131,-0.5755,-0.102519,0.277208,
2,0,0,1,0,11369.1,0.258437,0.258105,-0.230339,16,1.25823,10,-5.94517e-05,-3.63763,-0.771824,-0.0764423,0.258206,
2,0,0,1,0,11372.9,0.239461,0.239164,-0.243386,16,1.25727,10,-5.82091e-05,-3.6137,-0.550061,-0.107261,0.239271,
2,0,0,1,0,11376.7,0.220483,0.220195,-0.254866,16,1.25626,10,-5.612e-05,-3.59369,-0.56065,-0.105235,0.220307,
2,0,0,0,0,11380.5,0.201506,0.201215,-0.271051,16,1.2552,10,-5.45393e-05,-3.56695,-0.491841,-0.119958,0.201334,
2,0,0,1,0,11384.3,0.182529,0.182247,-0.294883,16,1.25406,10,-5.37415e-05,-3.53035,-0.34095,-0.173046,0.182377,
2,0,0,0,0,11388.1,0.163552,0.163261,-0.342857,16,1.2528,10,-5.59754e-05,-3.46489,-0.183583,-0.32138,0.163412,
2,0,0,1,0,11391.9,0.144575,0.144266,-0.497297,16,1.2512,10,-7.17432e-05,-3.30338,-0.0804174,-0.733672,0.144485,
2,0,0,0,0,11395.6,0.125598,0.12527,-0.749807,16,1.2487,10,-9.39285e-05,-3.12505,-0.28688,-0.205661,0.1256,
2,0,0,1,0,11399.4,0.10662,0.106293,-0.746169,16,1.24575,10,-7.93124e-05,-3.12716,0.615309,0.0958868,0.106621,
2,0,0,1,0,11403.2,0.0876433,0.087299,-0.675929,16,1.24298,10,-5.90079e-05,-3.1701,0.453485,0.130104,0.0875964,
2,0,0,1,0,11407,0.0686664,0.0683539,-0.628134,16,1.24044,10,-4.29354e-05,-3.20195,0.545809,0.108096,0.0686302,
2,0,0,1,0,11410.8,0.0496895,0.0494271,-0.582209,16,1.23807,10,-2.87769e-05,-3.23492,0.575788,0.102468,0.0496833,
2,0,0,1,0,11414.6,0.0307126,0.0303747,-0.530921,16,1.23588,10,-1.61266e-05,-3.27497,0.509617,0.115773,0.0306083,
2,0,0,1,0,11418.4,0.0117356,0.0114276,-0.495136,16,1.23386,10,-5.6582e-06,-3.30528,1.25764,0.0469134,0.0116454,
2,0,0,1,0,11420.7,0.000274105,-7.48025e-05,-0.494781,16,1.23269,10,3.70108e-08,-3.30559, , ,0.000142901,

File: 20221101_1-115_003_TrumpetPlot_ParaChange_from10_every3_16_CV_C01_16.csv
mode,ox/red,error,control changes,counter inc.,time/s,control/V,Ewe/V,<I>/mA,cycle number,(Q-Qo)/C,I Range,P/W,log(|I|),Tafel slope mV/dec,alpha_eff,E-IR/V,
2,0,0,0,0,11450.8,2.44065e-05,-0.000287149,-0.0815851,17,0.0000000E+000,10,2.34271e-08,-4.08839, , ,-0.000251251,
2,1,0,1,0,11454.5,0.0187763,0.0184213,0.227316,17,0.000761186,10,4.18745e-06,-3.64337,0.153394,0.384631,0.0183213,
2,1,0,1,0,11458.3,0.0377538,0.0374061,0.295697,17,0.00182677,10,1.10608e-05,-3.52915,0.175295,0.336576,0.037276,
2,1,0,0,0,11462.1,0.0567309,0.0563852,0.36067,17,0.00315129,10,2.03365e-05,-3.44289,0.311028,0.189693,0.0562265,
2,1,0,1,0,11465.9,0.075708,0.0753909,0.415516,17,0.00470188,10,3.13262e-05,-3.38141,0.453318,0.130151,0.0752081,
2,1,0,0,0,11469.7,0.0946851,0.0943478,0.476798,17,0.00644886,10,4.49848e-05,-3.32167,0.246456,0.239394,0.094138,
2,1,0,1,0,11473.5,0.113662,0.113351,0.588011,17,0.00854027,10,6.66518e-05,-3.23061,0.319615,0.184597,0.113093,
2,1,0,0,0,11477.3,0.132639,0.132328,0.659356,17,0.0109871,10,8.72514e-05,-3.18088,-3.56366,-0.016556,0.132038,
2,1,0,1,0,11481.1,0.151617,0.151304,0.447079,17,0.0132609,10,6.76446e-05,-3.34962,-0.0738394,-0.799031,0.151107,
2,1,0,1,0,11484.9,0.170594,0.170299,0.31147,17,0.014701,10,5.30429e-05,-3.50658,-0.212133,-0.278128,0.170162,
2,1,0,1,0,11488.7,0.189571,0.189246,0.276391,17,0.0158718,10,5.23058e-05,-3.55848,-0.562373,-0.104912,0.189124,
2,1,0,1,0,11492.5,0.208547,0.208223,0.261388,17,0.0169551,10,5.44269e-05,-3.58271,-0.913719,-0.0645713,0.208108,
2,1,0,1,0,11496.3,0.227524,0.227199,0.251238,17,0.0179913,10,5.70812e-05,-3.59991,-0.801079,-0.0736506,0.227089,
2,1,0,1,0,11500.1,0.246501,0.246217,0.245515,17,0.0189979,10,6.04499e-05,-3.60992,-0.533288,-0.110634,0.246109,
2,1,0,0,0,11503.9,0.265479,0.265182,0.240281,17,0.0199825,10,6.37183e-05,-3.61928,-0.933183,-0.0632245,0.265077,
2,1,0,1,0,11507.7,0.284456,0.284181,0.235487,17,0.0209479,10,6.69209e-05,-3.62803,-2.40289,-0.0245538,0.284077,
2,1,0,0,0,11511.5,0.303433,0.303135,0.231752,17,0.0218958,10,7.02522e-05,-3.63498,-1.29033,-0.0457247,0.303033,
2,1,0,1,0,11515.2,0.32241,0.322107,0.229097,17,0.0228291,10,7.37939e-05,-3.63998,10.9054,0.00541014,0.322006,
2,1,0,0,0,11519,0.341387,0.34111,0.225939,17,0.02375,10,7.70701e-05,-3.64601,-15.3545,-0.00384251,0.34101,
2,1,0,1,0,11522.8,0.360364,0.360106,0.222507,17,0.0246587,10,8.01262e-05,-3.65266,-7.44372,-0.00792614,0.360008,
2,1,0,1,0,11526.6,0.379342,0.379065,0.219728,17,0.0255566,10,8.32912e-05,-3.65811,-4.05446,-0.0145519,0.378969,
2,1,0,1,0,11530.4,0.398319,0.398011,0.218393,17,0.0264472,10,8.69227e-05,-3.66076,-2.30552,-0.0255907,0.397915,
2,1,0,1,0,11534.2,0.417295,0.417016,0.218497,17,0.0273334,10,9.11169e-05,-3.66055,-3.59353,-0.0164184,0.416919,
2,1,0,1,0,11538,0.436272,0.435972,0.217743,17,0.028216,10,9.49299e-05,-3.66205,-4.50912,-0.0130846,0.435876,
2,1,0,1,0,11541.8,0.455249,0.454993,0.218297,17,0.0290993,10,9.93234e-05,-3.66095,1.3305,0.0443442,0.454897,
2,1,0,1,0,11545.6,0.474226,0.473927,0.221241,17,0.0299869,10,0.000104852,-3.65514,1.54551,0.0381751,0.47383,
2,1,0,1,0,11549.4,0.493203,0.492919,0.22365,17,0.0308843,10,0.000110241,-3.65043,1.63939,0.035989,0.492821,
2,1,0,0,0,11553.2,0.512181,0.511906,0.228803,17,0.031796,10,0.000117126,-3.64054,6.7133,0.00878852,0.511806,
2,1,0,1,0,11557,0.531158,0.530879,0.235307,17,0.0327297,10,0.00012492,-3.62836,1.91941,0.0307386,0.530775,
2,1,0,0,0,11560.8,0.550135,0.549823,0.245973,17,0.0336954,10,0.000135242,-3.60911,0.785996,0.075064,0.549715,
2,1,0,1,0,11564.6,0.569112,0.568833,0.262991,17,0.0347138,10,0.000149598,-3.58006,0.5253,0.112317,0.568717,
2,1,0,0,0,11568.4,0.588089,0.587792,0.291602,17,0.0358156,10,0.000171401,-3.53521,0.324676,0.181719,0.587664,
2,1,0,1,0,11572.2,0.607066,0.606774,0.343493,17,0.0370629,10,0.000208423,-3.46408,0.197313,0.299018,0.606623,
2,1,0,1,0,11576,0.626044,0.62575,0.446476,17,0.0385926,10,0.000279382,-3.3502,0.131239,0.44956,0.625553,
2,1,0,1,0,11579.8,0.64502,0.644772,0.669278,17,0.0407087,10,0.000431532,-3.17439,0.0909349,0.648816,0.644478,
2,1,0,1,0,11583.6,0.663997,0.663731,1.1502,17,0.0441008,10,0.000763423,-2.93923,0.0732899,0.805022,0.663225,
2,1,0,1,0,11587.4,0.682974,0.682707,2.11997,17,0.0501665,10,0.00144732,-2.67367,0.0691608,0.853085,0.681774,
2,1,0,1,0,11591.2,0.701951,0.701682,3.80907,17,0.061224,10,0.00267275,-2.41918,0.0754532,0.781942,0.700006,
2,1,0,1,0,11595,0.720928,0.72066,6.30022,17,0.0802167,10,0.00454031,-2.20064,0.0902617,0.653655,0.717888,
2,1,0,1,0,11598.7,0.739905,0.739668,9.51919,17,0.110079,10,0.00704104,-2.0214,0.105851,0.557387,0.73548,
2,1,0,0,0,11602.5,0.758883,0.758662,13.4723,17,0.15349,10,0.0102209,-1.87056,0.118275,0.498837,0.752734,
2,1,0,1,0,11606.3,0.77786,0.777629,18.5985,17,0.213955,10,0.0144627,-1.73052,0.121466,0.485734,0.769446,
2,1,0,0,0,11610.1,0.796837,0.796622,25.1029,17,0.296579,10,0.0199975,-1.60028,0.132639,0.444817,0.785577,
2,1,0,1,0,11613.9,0.815814,0.815581,32.5295,17,0.405917,10,0.0265304,-1.48772,0.152343,0.387284,0.801268,
2,1,0,0,0,11617.7,0.834791,0.834542,40.1233,17,0.544064,10,0.0334846,-1.3966,0.234293,0.251821,0.816888,
2,1,0,0,0,11621.4,0.846727,0.846459,43.8259,17,0.703766,10,0.0370969,-1.35827,0.131642,0.448184,0.827176,
2,1,0,1,0,11625.2,0.827749,0.827466,35.0289,17,0.852759,10,0.0289852,-1.45557,0.152748,0.386256,0.812053,
2,1,0,1,0,11629,0.808772,0.808557,27.1079,17,0.970459,10,0.0219183,-1.5669,0.132152,0.446454,0.796629,
2,1,0,1,0,11632.8,0.789795,0.789504,20.1373,17,1.05974,10,0.0158984,-1.696,0.108261,0.544978,0.780643,
2,1,0,1,0,11636.6,0.770818,0.770537,14.326,17,1.12459,10,0.0110387,-1.84388,0.104292,0.565717,0.764234,
2,1,0,1,0,11640.4,0.751841,0.75156,9.67696,17,1.16971,10,0.00727282,-2.01426,0.0940674,0.62721,0.747303,
2,1,0,1,0,11644.2,0.732865,0.732589,6.17881,17,1.19943,10,0.00452653,-2.2091,0.0843206,0.69971,0.72987,
2,1,0,0,0,11648,0.713887,0.713602,3.64787,17,1.21773,10,0.00260313,-2.43796,0.0729699,0.808553,0.711997,
2,1,0,1,0,11651.8,0.69491,0.694667,1.95218,17,1.22806,10,0.00135611,-2.70948,0.0617253,0.955848,0.693808,
2,1,0,0,0,11655.6,0.675933,0.67566,0.918172,17,1.23327,10,0.000620372,-3.03708,0.0516663,1.14194,0.675256,
2,1,0,1,0,11659.4,0.656956,0.65669,0.370355,17,1.23554,10,0.000243209,-3.43138,0.0408475,1.4444,0.656527,
2,1,0,0,0,11663.2,0.637979,0.637701,0.100968,17,1.23631,10,6.43873e-05,-3.99582,0.0249206,2.36752,0.637657,
2,0,0,1,0,11667,0.619002,0.618697,-0.016227,17,1.23638,10,-1.00396e-05,-4.78976,-0.00855133,-6.89951,0.618704,
2,0,0,0,0,11670.8,0.600025,0.599763,-0.0656588,17,1.23616,10,-3.93797e-05,-4.18271,-0.112876,-0.522699,0.599792,
2,0,0,1,0,11674.6,0.581047,0.58074,-0.089085,17,1.2358,10,-5.17352e-05,-4.0502,-0.239335,-0.246516,0.580779,
2,0,0,1,0,11678.4,0.56207,0.56181,-0.101661,17,1.23539,10,-5.7114e-05,-3.99285,-0.395141,-0.149314,0.561854,
2,0,0,1,0,11682.1,0.543093,0.542787,-0.108094,17,1.23494,10,-5.8672e-05,-3.9662,-0.598052,-0.0986536,0.542835,
2,0,0,1,0,11685.9,0.524116,0.523809,-0.112573,17,1.23446,10,-5.89666e-05,-3.94857,-1.645,-0.0358662,0.523859,
2,0,0,1,0,11689.7,0.505139,0.504797,-0.117679,17,1.23397,10,-5.94039e-05,-3.9293,-0.530909,-0.11113,0.504849,
2,0,0,1,0,11693.5,0.486162,0.485844,-0.122843,17,1.23346,10,-5.96826e-05,-3.91065,-0.862079,-0.0684392,0.485898,
2,0,0,1,0,11697.3,0.467185,0.466846,-0.129151,17,1.23292,10,-6.02935e-05,-3.8889,2.39013,0.0246848,0.466903,
2,0,0,1,0,11701.1,0.448208,0.447935,-0.136528,17,1.23236,10,-6.11558e-05,-3.86478,-1.35798,-0.0434469,0.447995,
2,0,0,0,0,11704.9,0.429231,0.428938,-0.14372,17,1.23178,10,-6.16471e-05,-3.84248,-3.65919,-0.0161238,0.429001,
2,0,0,1,0,11708.7,0.410254,0.4099,-0.152043,17,1.23115,10,-6.23226e-05,-3.81803,-1.98407,-0.0297369,0.409967,
2,0,0,0,0,11712.5,0.391277,0.391,-0.163006,17,1.2305,10,-6.37353e-05,-3.7878,-0.589621,-0.100064,0.391071,
2,0,0,1,0,11716.3,0.3723,0.371971,-0.172517,17,1.2298,10,-6.41714e-05,-3.76317,-0.725898,-0.0812787,0.372047,
2,0,0,1,0,11720.1,0.353322,0.353006,-0.18304,17,1.22907,10,-6.4614e-05,-3.73746,-0.648021,-0.0910464,0.353086,
2,0,0,1,0,11723.9,0.334345,0.334069,-0.194069,17,1.22829,10,-6.48324e-05,-3.71204,-0.745518,-0.0791396,0.334155,
2,0,0,1,0,11727.7,0.315368,0.31505,-0.206858,17,1.22747,10,-6.51707e-05,-3.68433,-0.524524,-0.112483,0.315141,
2,0,0,1,0,11731.5,0.296391,0.296081,-0.21919,17,1.2266,10,-6.48979e-05,-3.65918,-1.28513,-0.0459098,0.296177,
2,0,0,1,0,11735.3,0.277414,0.277124,-0.230355,17,1.22569,10,-6.38369e-05,-3.6376,-0.596898,-0.0988443,0.277225,
2,0,0,1,0,11739.1,0.258437,0.258149,-0.242366,17,1.22473,10,-6.25665e-05,-3.61553,-0.528041,-0.111734,0.258256,
2,0,0,1,0,11742.9,0.239461,0.239151,-0.255916,17,1.22372,10,-6.12024e-05,-3.5919,-0.71496,-0.0825221,0.239264,
2,0,0,0,0,11746.7,0.220483,0.220178,-0.266612,17,1.22267,10,-5.87019e-05,-3.57412,-0.669125,-0.0881749,0.220295,
2,0,0,1,0,11750.5,0.201506,0.201189,-0.281717,17,1.22156,10,-5.66784e-05,-3.55019,-0.399316,-0.147753,0.201313,
2,0,0,0,0,11754.3,0.182529,0.182268,-0.304959,17,1.22038,10,-5.55843e-05,-3.51576,-0.367848,-0.160393,0.182402,
2,0,0,1,0,11758.1,0.163552,0.163235,-0.354282,17,1.21908,10,-5.78313e-05,-3.45065,-0.185056,-0.318823,0.163391,
2,0,0,0,0,11761.9,0.144575,0.144249,-0.507512,17,1.21744,10,-7.32083e-05,-3.29455,-0.083182,-0.709288,0.144473,
2,0,0,1,0,11765.6,0.125598,0.125304,-0.760554,17,1.2149,10,-9.53007e-05,-3.11887,-0.292456,-0.20174,0.125639,
2,0,0,1,0,11769.4,0.10662,0.106323,-0.755266,17,1.21191,10,-8.03019e-05,-3.1219,0.509414,0.115819,0.106655,
2,0,0,1,0,11773.2,0.0876433,0.0873204,-0.685986,17,1.2091,10,-5.99005e-05,-3.16368,0.488783,0.120708,0.0876222,
2,0,0,1,0,11777,0.0686664,0.0683541,-0.635534,17,1.20653,10,-4.34413e-05,-3.19686,0.59963,0.098394,0.0686337,
2,0,0,1,0,11780.8,0.0496895,0.0493834,-0.588169,17,1.20414,10,-2.90458e-05,-3.2305,0.437819,0.134759,0.0496422,
2,0,0,1,0,11784.6,0.0307126,0.0304203,-0.536542,17,1.20193,10,-1.63218e-05,-3.2704,0.522317,0.112958,0.0306564,
2,0,0,1,0,11788.4,0.0117356,0.0114434,-0.501276,17,1.1999,10,-5.73632e-06,-3.29992,2.06001,0.0286406,0.011664,
2,0,0,0,0,11790.7,0.000274105,-0.00010224,-0.498617,17,1.19871,10,5.09788e-08,-3.30223, , ,0.000117151,