Folder: Figs_alphaMnO2_OER_Tafel_sleope/Figure_codes/Fig_3-5/workspace_calculate_alpha_eff (part 52)

File: 20221101_1-115_003_TrumpetPlot_ParaChange_from10_every3_16_CV_C01_95.csv
mode,ox/red,error,control changes,counter inc.,time/s,control/V,Ewe/V,<I>/mA,cycle number,(Q-Qo)/C,I Range,P/W,log(|I|),Tafel slope mV/dec,alpha_eff,E-IR/V,
2,0,0,0,0,63044.2,2.44065e-05,-0.00042076,-0.10321,96,0.0000000E+000,10,4.34267e-08,-3.98628, , ,-0.000375348,
2,1,0,1,0,63047.9,0.0187763,0.0183945,0.201655,96,0.000646124,10,3.70934e-06,-3.69539,0.142883,0.412924,0.0183058,
2,1,0,1,0,63051.7,0.0377538,0.0373594,0.263668,96,0.00158044,10,9.85049e-06,-3.57894,0.170394,0.346256,0.0372434,
2,1,0,0,0,63055.5,0.0567309,0.056346,0.322439,96,0.00275025,10,1.81682e-05,-3.49155,0.280635,0.210237,0.0562041,
2,1,0,1,0,63059.3,0.075708,0.0753198,0.366019,96,0.00411556,10,2.75685e-05,-3.4365,0.460909,0.128008,0.0751588,
2,1,0,0,0,63063.1,0.094685,0.0943467,0.41791,96,0.00564264,10,3.94285e-05,-3.37892,0.254737,0.231611,0.0941628,
2,1,0,1,0,63066.9,0.113662,0.113346,0.509608,96,0.0074544,10,5.7762e-05,-3.29276,0.301311,0.195811,0.113122,
2,1,0,0,0,63070.7,0.132639,0.132287,0.541004,96,0.00952556,10,7.15678e-05,-3.2668,-0.479383,-0.123075,0.132049,
2,1,0,1,0,63074.5,0.151617,0.151245,0.355133,96,0.0113332,10,5.37122e-05,-3.44961,-0.0809538,-0.728811,0.151089,
2,1,0,1,0,63078.3,0.170594,0.170261,0.27229,96,0.0125211,10,4.63604e-05,-3.56497,-0.344698,-0.171164,0.170142,
2,1,0,1,0,63082.1,0.189571,0.189214,0.255344,96,0.0135615,10,4.83145e-05,-3.59287,-0.771776,-0.0764471,0.189101,
2,1,0,1,0,63085.9,0.208547,0.208189,0.248635,96,0.0145616,10,5.17629e-05,-3.60444,-1.50053,-0.0393194,0.208079,
2,1,0,1,0,63089.7,0.227524,0.227172,0.244399,96,0.0155388,10,5.55205e-05,-3.6119,-1.25861,-0.0468772,0.227064,
2,1,0,1,0,63093.5,0.246501,0.246155,0.240469,96,0.0165002,10,5.91927e-05,-3.61894,-1.57593,-0.0374381,0.246049,
2,1,0,0,0,63097.3,0.265479,0.265139,0.236939,96,0.0174481,10,6.28217e-05,-3.62536,-1.7891,-0.0329775,0.265035,
2,1,0,1,0,63101,0.284456,0.284095,0.232606,96,0.0183798,10,6.60821e-05,-3.63338,-1.64193,-0.0359334,0.283992,
2,1,0,0,0,63104.8,0.303433,0.303103,0.228382,96,0.0192953,10,6.92231e-05,-3.64134,-3.61171,-0.0163357,0.303002,
2,1,0,1,0,63108.6,0.32241,0.322089,0.226098,96,0.0201957,10,7.28238e-05,-3.6457,-5.10476,-0.0115578,0.32199,
2,1,0,0,0,63112.4,0.341387,0.341039,0.223364,96,0.0210839,10,7.61758e-05,-3.65099,-2.25261,-0.0261918,0.34094,
2,1,0,1,0,63116.2,0.360364,0.360001,0.221419,96,0.0219614,10,7.97111e-05,-3.65478,5.9563,0.00990547,0.359903,
2,1,0,1,0,63120,0.379342,0.379025,0.218657,96,0.02283,10,8.28763e-05,-3.66024,10.9288,0.00539856,0.378929,
2,1,0,1,0,63123.8,0.398319,0.398006,0.216578,96,0.0236915,10,8.61994e-05,-3.66439,2.16676,0.0272296,0.397911,
2,1,0,1,0,63127.6,0.417295,0.416978,0.216154,96,0.0245485,10,9.01313e-05,-3.66524,-2.73875,-0.0215426,0.416882,
2,1,0,1,0,63131.4,0.436272,0.435972,0.215531,96,0.0254004,10,9.39653e-05,-3.66649,3.32089,0.0177663,0.435877,
2,1,0,1,0,63135.2,0.455249,0.454964,0.215844,96,0.0262502,10,9.82013e-05,-3.66586,3.91012,0.0150891,0.454869,
2,1,0,1,0,63139,0.474226,0.473859,0.217973,96,0.0271025,10,0.000103288,-3.6616,1.18845,0.0496444,0.473763,
2,1,0,1,0,63142.8,0.493203,0.492877,0.219517,96,0.0279611,10,0.000108195,-3.65853,1.37465,0.04292,0.49278,
2,1,0,0,0,63146.6,0.512181,0.511892,0.22278,96,0.0288302,10,0.000114039,-3.65212,5.83064,0.010119,0.511794,
2,1,0,1,0,63150.4,0.531158,0.530859,0.228744,96,0.029714,10,0.000121431,-3.64065,1.11765,0.0527896,0.530758,
2,1,0,0,0,63154.2,0.550135,0.549806,0.236216,96,0.0306229,10,0.000129873,-3.62669,1.41036,0.0418333,0.549702,
2,1,0,1,0,63158,0.569112,0.568799,0.247598,96,0.0315669,10,0.000140834,-3.60625,0.648739,0.0909456,0.56869,
2,1,0,0,0,63161.8,0.588089,0.587793,0.264786,96,0.0325629,10,0.000155639,-3.57711,0.537802,0.109706,0.587676,
2,1,0,1,0,63165.6,0.607066,0.606779,0.29423,96,0.033644,10,0.000178533,-3.53131,0.320914,0.18385,0.606649,
2,1,0,1,0,63169.4,0.626044,0.625672,0.344248,96,0.0348711,10,0.000215386,-3.46313,0.226929,0.259993,0.625521,
2,1,0,1,0,63173.2,0.64502,0.644716,0.443013,96,0.0363701,10,0.000285618,-3.35358,0.142957,0.412712,0.644521,
2,1,0,1,0,63177,0.663997,0.663675,0.643519,96,0.0384148,10,0.000427088,-3.19144,0.0995147,0.592877,0.663392,
2,1,0,1,0,63180.8,0.682974,0.682696,1.0314,96,0.0415448,10,0.00070413,-2.98657,0.0871541,0.676962,0.682243,
2,1,0,1,0,63184.5,0.701951,0.701657,1.69192,96,0.0466396,10,0.00118715,-2.77162,0.0875793,0.673675,0.700913,
2,1,0,1,0,63188.3,0.720928,0.720679,2.67966,96,0.0548552,10,0.00193118,-2.57192,0.0964475,0.611732,0.7195,
2,1,0,1,0,63192.1,0.739905,0.739636,4.0167,96,0.0674717,10,0.0029709,-2.39613,0.109729,0.537686,0.737869,
2,1,0,0,0,63195.9,0.758883,0.758597,5.75889,96,0.0859064,10,0.00436867,-2.23966,0.121857,0.484175,0.756063,
2,1,0,1,0,63199.7,0.77786,0.777551,8.00508,96,0.111871,10,0.00622436,-2.09663,0.130122,0.453422,0.774029,
2,1,0,0,0,63203.5,0.796837,0.796618,10.9293,96,0.147576,10,0.0087065,-1.96141,0.131355,0.449164,0.791809,
2,1,0,1,0,63207.3,0.815814,0.81557,14.8178,96,0.196118,10,0.0120849,-1.82922,0.131703,0.447976,0.809051,
2,1,0,0,0,63211.1,0.834791,0.834515,19.7417,96,0.261465,10,0.0164747,-1.70462,0.140549,0.419782,0.825828,
2,1,0,0,0,63214.8,0.846726,0.846455,22.6041,96,0.34341,10,0.0191334,-1.64581,0.10347,0.570216,0.836509,
2,1,0,1,0,63218.6,0.827749,0.827487,16.4698,96,0.416861,10,0.0136286,-1.78331,0.122191,0.482852,0.82024,
2,1,0,1,0,63222.4,0.808772,0.808456,11.9706,96,0.470388,10,0.00967767,-1.92189,0.119281,0.494629,0.803189,
2,1,0,1,0,63226.2,0.789795,0.789489,8.52905,96,0.508939,10,0.00673359,-2.0691,0.118113,0.49952,0.785736,
2,1,0,1,0,63230,0.770818,0.770505,5.98064,96,0.536204,10,0.00460812,-2.22325,0.114764,0.514101,0.767874,
2,1,0,1,0,63233.8,0.751841,0.751595,4.09452,96,0.555125,10,0.00307742,-2.3878,0.107351,0.549599,0.749794,
2,1,0,1,0,63237.6,0.732865,0.732574,2.68671,96,0.567838,10,0.00196821,-2.57078,0.0938072,0.628949,0.731392,
2,1,0,0,0,63241.4,0.713887,0.713642,1.6392,96,0.57592,10,0.0011698,-2.78537,0.0788301,0.748445,0.712921,
2,1,0,1,0,63245.2,0.69491,0.694652,0.896299,96,0.580616,10,0.000622616,-3.04755,0.0631772,0.933882,0.694258,
2,1,0,0,0,63249,0.675933,0.675623,0.411328,96,0.582993,10,0.000277903,-3.38581,0.0476274,1.23878,0.675442,
2,1,0,1,0,63252.8,0.656956,0.65667,0.133463,96,0.583944,10,8.7641e-05,-3.87464,0.0295204,1.99862,0.656611,
2,0,0,0,0,63256.6,0.637979,0.637653,-0.0051185,96,0.584127,10,-3.26383e-06,-5.29086,-0.0086432,-6.82618,0.637656,
2,0,0,1,0,63260.4,0.619002,0.618666,-0.066048,96,0.583948,10,-4.08616e-05,-4.18014,-0.0701383,-0.841196,0.618695,
2,0,0,0,0,63264.2,0.600024,0.599691,-0.0945599,96,0.583608,10,-5.67067e-05,-4.02429,-0.226711,-0.260243,0.599732,
2,0,0,1,0,63267.9,0.581047,0.580681,-0.107121,96,0.583194,10,-6.22029e-05,-3.97013,-0.82906,-0.0711649,0.580729,
2,0,0,1,0,63271.7,0.56207,0.561715,-0.115051,96,0.582744,10,-6.46261e-05,-3.93911,-1.56452,-0.0377113,0.561766,
2,0,0,1,0,63275.5,0.543093,0.542765,-0.11956,96,0.582271,10,-6.48932e-05,-3.92241,-3.23795,-0.0182214,0.542817,
2,0,0,1,0,63279.3,0.524116,0.523782,-0.124135,96,0.58178,10,-6.50198e-05,-3.9061,-1.3724,-0.0429903,0.523836,
2,0,0,1,0,63283.1,0.505139,0.504844,-0.127734,96,0.581273,10,-6.4486e-05,-3.89369,-10.2492,-0.00575654,0.5049,
2,0,0,1,0,63286.9,0.486162,0.485811,-0.133711,96,0.580746,10,-6.49581e-05,-3.87383,-2.3454,-0.0251557,0.48587,
2,0,0,1,0,63290.7,0.467185,0.466849,-0.13972,96,0.580198,10,-6.52281e-05,-3.85474,-0.772377,-0.0763875,0.46691,
2,0,0,1,0,63294.5,0.448208,0.447871,-0.146273,96,0.579625,10,-6.55117e-05,-3.83483,-0.946472,-0.0623368,0.447936,
2,0,0,0,0,63298.3,0.429231,0.428909,-0.153373,96,0.579023,10,-6.5783e-05,-3.81425,3.11873,0.0189179,0.428977,
2,0,0,1,0,63302.1,0.410254,0.409917,-0.161451,96,0.57839,10,-6.61817e-05,-3.79196,-12.396,-0.00475962,0.409988,
2,0,0,0,0,63305.9,0.391277,0.390948,-0.169988,96,0.577725,10,-6.64563e-05,-3.76958,-0.780669,-0.0755762,0.391022,
2,0,0,1,0,63309.7,0.3723,0.371942,-0.180375,96,0.577022,10,-6.7089e-05,-3.74382,-0.826516,-0.071384,0.372021,
2,0,0,1,0,63313.5,0.353322,0.352994,-0.190661,96,0.57628,10,-6.73022e-05,-3.71974,-0.902153,-0.0653991,0.353078,
2,0,0,1,0,63317.3,0.334345,0.333999,-0.201653,96,0.575497,10,-6.73519e-05,-3.6954,-1.19951,-0.0491868,0.334088,
2,0,0,1,0,63321.1,0.315368,0.315034,-0.212744,96,0.574672,10,-6.70215e-05,-3.67214,-0.6475,-0.0911197,0.315128,
2,0,0,1,0,63324.9,0.296391,0.29607,-0.224062,96,0.573803,10,-6.6338e-05,-3.64963,-0.647513,-0.0911179,0.296169,
2,0,0,1,0,63328.7,0.277414,0.277124,-0.239284,96,0.572887,10,-6.63113e-05,-3.62109,-0.906917,-0.0650555,0.277229,
2,0,0,1,0,63332.5,0.258437,0.258117,-0.247278,96,0.571924,10,-6.38268e-05,-3.60681,-0.90498,-0.0651948,0.258226,
2,0,0,1,0,63336.3,0.239461,0.239126,-0.257691,96,0.570918,10,-6.16207e-05,-3.5889,-0.809306,-0.072902,0.23924,
2,0,0,0,0,63340.1,0.220483,0.220169,-0.269503,96,0.56987,10,-5.93363e-05,-3.56944,-0.691628,-0.085306,0.220288,
2,0,0,1,0,63343.9,0.201506,0.20116,-0.282152,96,0.568774,10,-5.67577e-05,-3.54952,-0.489158,-0.120615,0.201285,
2,0,0,0,0,63347.7,0.182529,0.182196,-0.300108,96,0.567621,10,-5.46784e-05,-3.52272,-0.481792,-0.12246,0.182328,
2,0,0,1,0,63351.4,0.163552,0.163208,-0.329822,96,0.566385,10,-5.38297e-05,-3.48172,-0.388193,-0.151986,0.163354,
2,0,0,0,0,63355.2,0.144575,0.14418,-0.404999,96,0.564973,10,-5.83929e-05,-3.39255,-0.124357,-0.474442,0.144359,
2,0,0,1,0,63359,0.125598,0.125236,-0.591491,96,0.563043,10,-7.40762e-05,-3.22805,-0.146272,-0.403358,0.125497,
2,0,0,1,0,63362.8,0.10662,0.106269,-0.664693,96,0.560545,10,-7.06359e-05,-3.17738,-3.3111,-0.0178188,0.106561,
2,0,0,1,0,63366.6,0.0876433,0.0872991,-0.648932,96,0.557986,10,-5.66512e-05,-3.1878,0.965807,0.0610888,0.0875846,
2,0,0,1,0,63370.4,0.0686664,0.0683306,-0.611467,96,0.555538,10,-4.17819e-05,-3.21363,0.747817,0.0788963,0.0685996,
2,0,0,1,0,63374.2,0.0496895,0.0493497,-0.570441,96,0.553235,10,-2.81511e-05,-3.24379,0.571058,0.103317,0.0496007,
2,0,0,1,0,63378,0.0307126,0.0303716,-0.523584,96,0.551101,10,-1.59021e-05,-3.28101,0.490966,0.120171,0.030602,
2,0,0,1,0,63381.8,0.0117356,0.0113936,-0.495676,96,0.549118,10,-5.64755e-06,-3.3048,1.56807,0.0376258,0.0116117,
2,0,0,0,0,63384.1,0.000274105,-0.000105819,-0.495511,96,0.547951,10,5.24347e-08,-3.30495, , ,0.000112206,

File: 20221101_1-115_003_TrumpetPlot_ParaChange_from10_every3_16_CV_C01_96.csv
mode,ox/red,error,control changes,counter inc.,time/s,control/V,Ewe/V,<I>/mA,cycle number,(Q-Qo)/C,I Range,P/W,log(|I|),Tafel slope mV/dec,alpha_eff,E-IR/V,
2,0,0,1,0,64274.3,2.44065e-05,-0.000363498,-0.0376989,97,0.0000000E+000,10,1.37035e-08,-4.42367, , ,-0.000346911,
2,1,0,1,0,64278,0.0187763,0.0184318,0.257142,97,0.000858886,10,4.73957e-06,-3.58983,0.167206,0.352857,0.0183186,
2,1,0,0,0,64281.8,0.0377538,0.0374336,0.319247,97,0.00200838,10,1.19506e-05,-3.49587,0.223281,0.264241,0.0372932,
2,1,0,1,0,64285.6,0.0567309,0.0563672,0.37471,97,0.00338575,10,2.11214e-05,-3.4263,0.366868,0.160821,0.0562023,
2,1,0,0,0,64289.4,0.075708,0.0753941,0.417513,97,0.00494843,10,3.1478e-05,-3.37933,0.625104,0.0943842,0.0752104,
2,1,0,1,0,64293.2,0.094685,0.0943414,0.463943,97,0.00665782,10,4.37691e-05,-3.33354,0.276147,0.213654,0.0941373,
2,1,0,0,0,64297,0.113662,0.113335,0.55278,97,0.00864431,10,6.26495e-05,-3.25745,0.346768,0.170143,0.113092,
2,1,0,1,0,64300.8,0.132639,0.132294,0.579782,97,0.0108723,10,7.67019e-05,-3.23674,-0.45665,-0.129202,0.132039,
2,1,0,1,0,64304.6,0.151617,0.151289,0.391104,97,0.0128186,10,5.91697e-05,-3.40771,-0.091893,-0.642051,0.151117,
2,1,0,1,0,64308.4,0.170594,0.170314,0.311501,97,0.0141527,10,5.30531e-05,-3.50654,-0.348143,-0.16947,0.170177,
2,1,0,1,0,64312.2,0.189571,0.189236,0.29691,97,0.0153483,10,5.61861e-05,-3.52738,-0.908217,-0.0649624,0.189106,
2,1,0,1,0,64316,0.208547,0.20825,0.291414,97,0.0165087,10,6.0687e-05,-3.53549,-1.60199,-0.0368293,0.208122,
2,1,0,1,0,64319.8,0.227524,0.227208,0.287067,97,0.0176498,10,6.52239e-05,-3.54202,-1.17486,-0.0502189,0.227082,
2,1,0,1,0,64323.6,0.246501,0.246227,0.282989,97,0.0187748,10,6.96796e-05,-3.54823,-0.924601,-0.0638113,0.246103,
2,1,0,1,0,64327.4,0.265479,0.265172,0.279861,97,0.0198852,10,7.42111e-05,-3.55306,-4.03888,-0.014608,0.265049,
2,1,0,0,0,64331.2,0.284456,0.284162,0.276062,97,0.0209818,10,7.84462e-05,-3.55899,-12.7673,-0.00462117,0.28404,
2,1,0,1,0,64335,0.303433,0.303117,0.272309,97,0.0220635,10,8.25416e-05,-3.56494,-3.62599,-0.0162714,0.302998,
2,1,0,0,0,64338.8,0.32241,0.322102,0.267704,97,0.0231287,10,8.62279e-05,-3.57235,17.3172,0.00340702,0.321984,
2,1,0,1,0,64342.6,0.341387,0.341045,0.265514,97,0.024181,10,9.05524e-05,-3.57591,-2.79452,-0.0211127,0.340928,
2,1,0,0,0,64346.4,0.360364,0.360032,0.264555,97,0.0252226,10,9.5248e-05,-3.57748,-6.37551,-0.00925416,0.359915,
2,1,0,1,0,64350.2,0.379342,0.379038,0.260608,97,0.026254,10,9.87801e-05,-3.58401,12.3434,0.00477989,0.378923,
2,1,0,1,0,64353.9,0.398319,0.397963,0.25887,97,0.027276,10,0.000103021,-3.58692,-6.14825,-0.00959622,0.397849,
2,1,0,1,0,64357.7,0.417295,0.416994,0.25638,97,0.0282903,10,0.000106909,-3.59112,-2.54072,-0.0232218,0.416881,
2,1,0,1,0,64361.5,0.436272,0.435967,0.256036,97,0.0292979,10,0.000111623,-3.5917,11.4322,0.00516084,0.435854,
2,1,0,1,0,64365.3,0.455249,0.454936,0.255243,97,0.0303016,10,0.000116119,-3.59305,2.3923,0.0246624,0.454823,
2,1,0,1,0,64369.1,0.474226,0.473912,0.256502,97,0.0313037,10,0.000121559,-3.59091,1.46449,0.0402871,0.473799,
2,1,0,1,0,64372.9,0.493203,0.49294,0.257667,97,0.0323097,10,0.000127015,-3.58894,1.80118,0.0327563,0.492827,
2,1,0,1,0,64376.7,0.512181,0.511847,0.261385,97,0.0333237,10,0.000133789,-3.58272,3.0095,0.0196046,0.511732,
2,1,0,0,0,64380.5,0.531158,0.530884,0.265198,97,0.0343519,10,0.000140789,-3.57643,1.92166,0.0307026,0.530768,
2,1,0,1,0,64384.3,0.550135,0.549823,0.273162,97,0.0354014,10,0.000150191,-3.56358,1.46939,0.0401528,0.549703,
2,1,0,0,0,64388.1,0.569112,0.56879,0.284414,97,0.0364847,10,0.000161772,-3.54605,0.953346,0.0618873,0.568664,
2,1,0,1,0,64391.9,0.588089,0.58778,0.301087,97,0.0376207,10,0.000176973,-3.52131,0.628672,0.0938486,0.587648,
2,1,0,0,0,64395.7,0.607066,0.606763,0.329754,97,0.0388404,10,0.000200082,-3.48181,0.4263,0.1384,0.606618,
2,1,0,1,0,64399.5,0.626044,0.625795,0.380984,97,0.0402051,10,0.000238418,-3.41909,0.234984,0.25108,0.625628,
2,1,0,1,0,64403.3,0.64502,0.644722,0.483476,97,0.0418513,10,0.000311708,-3.31563,0.143831,0.410204,0.64451,
2,1,0,1,0,64407.1,0.663997,0.663709,0.690227,97,0.044059,10,0.000458109,-3.16101,0.105268,0.560474,0.663405,
2,1,0,1,0,64410.9,0.682974,0.682703,1.08416,97,0.0473788,10,0.000740162,-2.9649,0.0909118,0.648981,0.682226,
2,1,0,1,0,64414.7,0.701951,0.701656,1.75764,97,0.0526978,10,0.00123326,-2.75507,0.0897731,0.657212,0.700883,
2,1,0,1,0,64418.5,0.720928,0.720639,2.76009,97,0.0611872,10,0.00198903,-2.55908,0.0992564,0.59442,0.719425,
2,1,0,1,0,64422.3,0.739905,0.739648,4.11878,97,0.0741477,10,0.00304645,-2.38523,0.113254,0.520952,0.737836,
2,1,0,1,0,64426.1,0.758883,0.758626,5.88731,97,0.0930168,10,0.00446626,-2.23008,0.122033,0.483477,0.756035,
2,1,0,0,0,64429.9,0.77786,0.777628,8.16764,97,0.119533,10,0.00635139,-2.0879,0.129666,0.455016,0.774034,
2,1,0,1,0,64433.7,0.796837,0.796549,11.1408,97,0.155935,10,0.00887421,-1.95308,0.133104,0.443261,0.791647,
2,1,0,0,0,64437.4,0.815814,0.815517,15.088,97,0.205427,10,0.0123045,-1.82137,0.13444,0.438857,0.808879,
2,1,0,1,0,64441.2,0.834791,0.83456,20.0445,97,0.27183,10,0.0167283,-1.69801,0.14659,0.402484,0.825741,
2,1,0,1,0,64444.9,0.846726,0.846462,22.8285,97,0.354833,10,0.0193235,-1.64152,0.0980534,0.601713,0.836418,
2,1,0,1,0,64448.7,0.827749,0.827493,16.3367,97,0.428169,10,0.0135185,-1.78684,0.11813,0.499449,0.820305,
2,1,0,1,0,64452.5,0.808772,0.808527,11.8254,97,0.481169,10,0.00956115,-1.92718,0.11911,0.495342,0.803324,
2,1,0,1,0,64456.3,0.789795,0.789508,8.43927,97,0.519285,10,0.00666287,-2.07369,0.118379,0.498398,0.785794,
2,1,0,1,0,64460.1,0.770818,0.770601,5.9307,97,0.546284,10,0.0045702,-2.22689,0.114041,0.517357,0.767991,
2,1,0,1,0,64463.9,0.751841,0.751556,4.06549,97,0.565049,10,0.00305544,-2.39089,0.107555,0.548554,0.749767,
2,1,0,1,0,64467.7,0.732865,0.732618,2.6758,97,0.57769,10,0.00196034,-2.57255,0.0943784,0.625143,0.731441,
2,1,0,1,0,64471.5,0.713887,0.713588,1.64341,97,0.585762,10,0.00117272,-2.78425,0.0792083,0.744871,0.712865,
2,1,0,0,0,64475.3,0.69491,0.694647,0.917655,97,0.590511,10,0.000637446,-3.03732,0.0658093,0.89653,0.694243,
2,1,0,1,0,64479.1,0.675933,0.675647,0.43613,97,0.592977,10,0.00029467,-3.36038,0.0513738,1.14845,0.675455,
2,1,0,0,0,64482.9,0.656956,0.65666,0.160764,97,0.594027,10,0.000105567,-3.79381,0.0354286,1.66532,0.656589,
2,1,0,1,0,64486.7,0.637979,0.637701,0.0210795,97,0.59431,10,1.34424e-05,-4.67614,0.0103067,5.72443,0.637692,
2,0,0,0,0,64490.5,0.619002,0.618695,-0.0407113,97,0.594229,10,-2.51879e-05,-4.39029,-0.0467159,-1.26295,0.618713,
2,0,0,1,0,64494.3,0.600024,0.599712,-0.0685889,97,0.593987,10,-4.11336e-05,-4.16375,-0.133434,-0.442167,0.599742,
2,0,0,1,0,64498.1,0.581047,0.580736,-0.0824124,97,0.593668,10,-4.78598e-05,-4.08401,-0.494019,-0.119429,0.580772,
2,0,0,1,0,64501.9,0.56207,0.561767,-0.0906297,97,0.593309,10,-5.09128e-05,-4.04273,-1.96438,-0.0300349,0.561807,
2,0,0,1,0,64505.7,0.543093,0.542806,-0.0965513,97,0.592925,10,-5.24087e-05,-4.01524,-0.993076,-0.0594113,0.542849,
2,0,0,1,0,64509.5,0.524116,0.523749,-0.101403,97,0.592521,10,-5.31099e-05,-3.99395,-1.08207,-0.054525,0.523793,
2,0,0,1,0,64513.3,0.505139,0.504831,-0.106988,97,0.592096,10,-5.40107e-05,-3.97067,-1.51795,-0.0388683,0.504879,
2,0,0,1,0,64517.1,0.486162,0.485843,-0.113224,97,0.591648,10,-5.50091e-05,-3.94606,-1.93822,-0.0304403,0.485893,
2,0,0,1,0,64520.8,0.467185,0.466866,-0.1195,97,0.591177,10,-5.57902e-05,-3.92263,-1.35201,-0.0436388,0.466918,
2,0,0,0,0,64524.6,0.448208,0.447857,-0.127357,97,0.590678,10,-5.70378e-05,-3.89498,-0.846406,-0.0697065,0.447913,
2,0,0,1,0,64528.4,0.429231,0.428884,-0.135236,97,0.590148,10,-5.80004e-05,-3.86891,6.4037,0.00921342,0.428943,
2,0,0,0,0,64532.2,0.410254,0.409964,-0.143478,97,0.589584,10,-5.88206e-05,-3.84322,-1.1111,-0.0531008,0.410027,
2,0,0,1,0,64536,0.391277,0.390972,-0.154133,97,0.588985,10,-6.02615e-05,-3.81211,-2.36163,-0.0249828,0.39104,
2,0,0,0,0,64539.8,0.3723,0.371969,-0.164099,97,0.588348,10,-6.10396e-05,-3.78489,-0.64792,-0.0910606,0.372041,
2,0,0,1,0,64543.6,0.353322,0.353016,-0.17376,97,0.587671,10,-6.13402e-05,-3.76005,-0.733724,-0.0804117,0.353093,
2,0,0,1,0,64547.4,0.334345,0.334024,-0.185109,97,0.58695,10,-6.18309e-05,-3.73257,-0.493497,-0.119555,0.334105,
2,0,0,1,0,64551.2,0.315368,0.315023,-0.196224,97,0.586187,10,-6.1815e-05,-3.70725,-0.699405,-0.0843574,0.31511,
2,0,0,1,0,64555,0.296391,0.296033,-0.208746,97,0.585379,10,-6.17956e-05,-3.68038,-1.09619,-0.0538226,0.296125,
2,0,0,1,0,64558.8,0.277414,0.27712,-0.220318,97,0.584523,10,-6.10543e-05,-3.65695,-0.837626,-0.0704372,0.277216,
2,0,0,1,0,64562.6,0.258437,0.258087,-0.23327,97,0.583619,10,-6.0204e-05,-3.63214,-0.776647,-0.0759676,0.25819,
2,0,0,1,0,64566.4,0.239461,0.239129,-0.244216,97,0.582669,10,-5.83991e-05,-3.61223,-0.665015,-0.0887198,0.239236,
2,0,0,1,0,64570.2,0.220483,0.220152,-0.256101,97,0.581675,10,-5.63812e-05,-3.59159,-0.534645,-0.110354,0.220265,
2,0,0,0,0,64574,0.201506,0.201152,-0.270111,97,0.580631,10,-5.43334e-05,-3.56846,-0.530301,-0.111257,0.201271,
2,0,0,1,0,64577.8,0.182529,0.182224,-0.28638,97,0.579531,10,-5.21852e-05,-3.54306,-0.448894,-0.131434,0.18235,
2,0,0,0,0,64581.6,0.163552,0.163237,-0.31518,97,0.578346,10,-5.1449e-05,-3.50144,-0.396748,-0.148709,0.163376,
2,0,0,1,0,64585.4,0.144575,0.144307,-0.390161,97,0.576987,10,-5.63028e-05,-3.40876,-0.131509,-0.448639,0.144478,
2,0,0,0,0,64589.2,0.125598,0.125268,-0.575498,97,0.575119,10,-7.20916e-05,-3.23996,-0.14357,-0.410948,0.125521,
2,0,0,1,0,64593,0.10662,0.106295,-0.651006,97,0.572681,10,-6.91988e-05,-3.18641,-2.25425,-0.0261727,0.106582,
2,0,0,1,0,64596.8,0.0876433,0.0873267,-0.638001,97,0.570174,10,-5.57145e-05,-3.19518,0.879868,0.0670555,0.0876074,
2,0,0,1,0,64600.6,0.0686664,0.0683369,-0.603463,97,0.567766,10,-4.12388e-05,-3.21935,0.681896,0.0865234,0.0686025,
2,0,0,1,0,64604.3,0.0496895,0.0493411,-0.563444,97,0.565494,10,-2.7801e-05,-3.24915,0.6571,0.0897884,0.049589,
2,0,0,1,0,64608.1,0.0307126,0.0303695,-0.520117,97,0.563383,10,-1.57957e-05,-3.2839,0.489043,0.120644,0.0305984,
2,0,0,1,0,64611.9,0.0117356,0.0114125,-0.490662,97,0.561418,10,-5.59966e-06,-3.30922,1.33807,0.0440935,0.0116284,
2,0,0,1,0,64614.2,0.000274105,-0.000104626,-0.492599,97,0.560261,10,5.15389e-08,-3.30751, , ,0.000112117,