Folder: Figs_alphaMnO2_OER_Tafel_sleope/Figure_codes/Fig_3-5/workspace_calculate_alpha_eff (part 38)

File: 20221101_1-115_003_TrumpetPlot_ParaChange_from10_every3_16_CV_C01_67.csv
mode,ox/red,error,control changes,counter inc.,time/s,control/V,Ewe/V,<I>/mA,cycle number,(Q-Qo)/C,I Range,P/W,log(|I|),Tafel slope mV/dec,alpha_eff,E-IR/V,
2,0,0,0,0,44943,2.44065e-05,-0.000516197,-0.0860374,68,0.0000000E+000,10,4.44122e-08,-4.06531, , ,-0.00047834,
2,1,0,1,0,44946.7,0.0187763,0.0184647,0.214748,68,0.000706857,10,3.96526e-06,-3.66807,0.147305,0.40053,0.0183702,
2,1,0,1,0,44950.5,0.0377538,0.0374039,0.279663,68,0.00170637,10,1.04605e-05,-3.55336,0.179184,0.329271,0.0372809,
2,1,0,0,0,44954.3,0.0567309,0.0564128,0.340753,68,0.00295342,10,1.92228e-05,-3.46756,0.290829,0.202868,0.0562629,
2,1,0,1,0,44958.1,0.075708,0.0754068,0.387094,68,0.00440577,10,2.91895e-05,-3.41218,0.400798,0.147206,0.0752365,
2,1,0,0,0,44961.9,0.094685,0.0943425,0.441722,68,0.00602642,10,4.16731e-05,-3.35485,0.24983,0.236161,0.0941481,
2,1,0,1,0,44965.7,0.113662,0.113344,0.536588,68,0.00794533,10,6.08189e-05,-3.27036,0.333176,0.177083,0.113108,
2,1,0,0,0,44969.5,0.132639,0.132335,0.577421,68,0.0101441,10,7.64129e-05,-3.23851,-0.647062,-0.0911813,0.132081,
2,1,0,1,0,44973.3,0.151617,0.151343,0.379542,68,0.0120893,10,5.7441e-05,-3.42074,-0.0771646,-0.764599,0.151176,
2,1,0,1,0,44977.1,0.170594,0.170242,0.286545,68,0.0133556,10,4.87821e-05,-3.54281,-0.30986,-0.190409,0.170116,
2,1,0,1,0,44980.9,0.189571,0.189239,0.267965,68,0.0144556,10,5.07095e-05,-3.57192,-1.15019,-0.051296,0.189122,
2,1,0,1,0,44984.7,0.208547,0.208207,0.259496,68,0.015509,10,5.40287e-05,-3.58587,18.893,0.00312285,0.208092,
2,1,0,1,0,44988.5,0.227524,0.227189,0.252537,68,0.0165342,10,5.73737e-05,-3.59767,-0.995226,-0.059283,0.227078,
2,1,0,1,0,44992.3,0.246501,0.246162,0.248033,68,0.0175382,10,6.10561e-05,-3.60549,-1.61587,-0.0365128,0.246052,
2,1,0,0,0,44996.1,0.265479,0.265161,0.245029,68,0.0185256,10,6.49722e-05,-3.61078,-1.41611,-0.0416634,0.265053,
2,1,0,1,0,44999.9,0.284456,0.284162,0.240974,68,0.0194977,10,6.84756e-05,-3.61803,-2.15202,-0.0274161,0.284056,
2,1,0,0,0,45003.7,0.303433,0.303161,0.236314,68,0.0204522,10,7.16413e-05,-3.62651,-2.66043,-0.0221769,0.303057,
2,1,0,1,0,45007.5,0.32241,0.322096,0.23309,68,0.0213904,10,7.50773e-05,-3.63248,-2.86194,-0.0206154,0.321993,
2,1,0,0,0,45011.3,0.341387,0.341028,0.230016,68,0.022317,10,7.84419e-05,-3.63824,-1.38334,-0.0426503,0.340927,
2,1,0,1,0,45015.1,0.360364,0.360051,0.228756,68,0.0232328,10,8.23636e-05,-3.64063,-1.02271,-0.0576898,0.35995,
2,1,0,1,0,45018.9,0.379342,0.379032,0.225729,68,0.024138,10,8.55584e-05,-3.64641,-1.48714,-0.0396734,0.378933,
2,1,0,1,0,45022.6,0.398319,0.398006,0.224548,68,0.0250361,10,8.93714e-05,-3.64869,12.417,0.00475156,0.397907,
2,1,0,1,0,45026.4,0.417295,0.417021,0.224194,68,0.0259297,10,9.34938e-05,-3.64938,-7.45332,-0.00791594,0.416922,
2,1,0,1,0,45030.2,0.436272,0.435944,0.224086,68,0.0268206,10,9.76889e-05,-3.64959,2.35854,0.0250155,0.435845,
2,1,0,1,0,45034,0.455249,0.454956,0.223578,68,0.0277091,10,0.000101718,-3.65057,7.69662,0.0076657,0.454858,
2,1,0,1,0,45037.8,0.474226,0.473947,0.225265,68,0.0285987,10,0.000106763,-3.64731,1.02558,0.0575282,0.473847,
2,1,0,1,0,45041.6,0.493203,0.492904,0.227956,68,0.0294951,10,0.000112361,-3.64215,1.25831,0.0468882,0.492804,
2,1,0,0,0,45045.4,0.512181,0.511869,0.232037,68,0.0304037,10,0.000118773,-3.63444,1.18142,0.04994,0.511767,
2,1,0,1,0,45049.2,0.531158,0.530852,0.237534,68,0.0313299,10,0.000126095,-3.62428,1.41352,0.0417398,0.530748,
2,1,0,0,0,45053,0.550135,0.549862,0.246211,68,0.0322826,10,0.000135382,-3.60869,1.04727,0.056337,0.549754,
2,1,0,1,0,45056.8,0.569112,0.568809,0.25935,68,0.0332764,10,0.00014752,-3.58611,0.610429,0.0966533,0.568694,
2,1,0,0,0,45060.6,0.588089,0.587792,0.279887,68,0.0343324,10,0.000164515,-3.55302,0.437505,0.134856,0.587669,
2,1,0,1,0,45064.4,0.607066,0.606755,0.315168,68,0.03549,10,0.00019123,-3.50146,0.293702,0.200884,0.606617,
2,1,0,1,0,45068.2,0.626044,0.625726,0.380756,68,0.0368307,10,0.000238249,-3.41935,0.17574,0.335723,0.625559,
2,1,0,1,0,45072,0.64502,0.644728,0.516072,68,0.0385359,10,0.000332726,-3.28729,0.118905,0.496196,0.644501,
2,1,0,1,0,45075.8,0.663997,0.663709,0.793237,68,0.0409887,10,0.000526478,-3.1006,0.086611,0.681207,0.66336,
2,1,0,1,0,45079.6,0.682974,0.682695,1.33135,68,0.0449496,10,0.000908904,-2.87571,0.0817309,0.721881,0.682109,
2,1,0,1,0,45083.4,0.701951,0.701664,2.25633,68,0.0516523,10,0.00158318,-2.6466,0.0807189,0.730932,0.700671,
2,1,0,1,0,45087.2,0.720928,0.720632,3.63651,68,0.0627349,10,0.00262058,-2.43932,0.0957834,0.615973,0.719032,
2,1,0,1,0,45091,0.739905,0.739638,5.4879,68,0.0799304,10,0.00405906,-2.26059,0.106877,0.552035,0.737223,
2,1,0,0,0,45094.8,0.758883,0.758565,7.8779,68,0.105145,10,0.0059759,-2.10359,0.119537,0.493572,0.755099,
2,1,0,1,0,45098.6,0.77786,0.777596,10.9663,68,0.14068,10,0.00852733,-1.95994,0.12566,0.469522,0.772771,
2,1,0,0,0,45102.4,0.796837,0.796533,15.0732,68,0.189762,10,0.0120063,-1.82179,0.120524,0.489528,0.789901,
2,1,0,1,0,45106.1,0.815814,0.815573,20.5638,68,0.257017,10,0.0167712,-1.6869,0.127206,0.463814,0.806524,
2,1,0,0,0,45109.9,0.834791,0.834557,27.1181,68,0.347312,10,0.0226316,-1.56674,0.146576,0.40252,0.822625,
2,1,0,0,0,45113.6,0.846726,0.846466,30.6736,68,0.458947,10,0.0259642,-1.51324,0.102803,0.573915,0.83297,
2,1,0,1,0,45117.4,0.827749,0.827454,22.7676,68,0.559466,10,0.0188391,-1.64268,0.121828,0.48429,0.817436,
2,1,0,1,0,45121.2,0.808772,0.808504,16.6124,68,0.633658,10,0.0134312,-1.77957,0.120168,0.490978,0.801194,
2,1,0,1,0,45125,0.789795,0.789494,11.8569,68,0.687259,10,0.00936098,-1.92603,0.1108,0.53249,0.784277,
2,1,0,1,0,45128.8,0.770818,0.770587,8.28301,68,0.725102,10,0.00638278,-2.08181,0.110265,0.535076,0.766943,
2,1,0,1,0,45132.6,0.751841,0.751591,5.63383,68,0.751229,10,0.00423434,-2.2492,0.102055,0.578121,0.749112,
2,1,0,1,0,45136.4,0.732865,0.732632,3.65794,68,0.76861,10,0.00267993,-2.43676,0.0926869,0.636552,0.731023,
2,1,0,0,0,45140.2,0.713887,0.713614,2.24391,68,0.779624,10,0.00160129,-2.64899,0.0795774,0.741416,0.712627,
2,1,0,1,0,45144,0.69491,0.694675,1.23808,68,0.786062,10,0.000860061,-2.90725,0.0660607,0.893118,0.69413,
2,1,0,0,0,45147.8,0.675933,0.675655,0.585749,68,0.789387,10,0.000395764,-3.23229,0.0517249,1.14065,0.675397,
2,1,0,1,0,45151.6,0.656956,0.656687,0.217437,68,0.790803,10,0.000142788,-3.66267,0.0371234,1.5893,0.656591,
2,1,0,0,0,45155.4,0.637979,0.637648,0.0359733,68,0.791204,10,2.29383e-05,-4.44402,0.0117671,5.01399,0.637632,
2,0,0,1,0,45159.2,0.619002,0.618697,-0.045296,68,0.791126,10,-2.80245e-05,-4.34394,-0.0405191,-1.4561,0.618716,
2,0,0,0,0,45163,0.600024,0.599689,-0.0813277,68,0.790838,10,-4.87713e-05,-4.08976,-0.138787,-0.425113,0.599724,
2,0,0,1,0,45166.8,0.581047,0.580719,-0.0992017,68,0.790455,10,-5.76083e-05,-4.00348,-0.358597,-0.16453,0.580762,
2,0,0,1,0,45170.6,0.56207,0.561775,-0.108508,68,0.790025,10,-6.0957e-05,-3.96454,-0.719445,-0.0820077,0.561823,
2,0,0,1,0,45174.4,0.543093,0.542793,-0.113647,68,0.789568,10,-6.16867e-05,-3.94444,-2.26799,-0.0260142,0.542843,
2,0,0,1,0,45178.2,0.524116,0.5238,-0.118205,68,0.789091,10,-6.19157e-05,-3.92736,-3.13058,-0.0188463,0.523852,
2,0,0,1,0,45182,0.505139,0.504843,-0.123451,68,0.788593,10,-6.23234e-05,-3.90851,-0.665464,-0.08866,0.504897,
2,0,0,1,0,45185.7,0.486162,0.485856,-0.128459,68,0.788077,10,-6.24125e-05,-3.89124,-2.77554,-0.0212571,0.485912,
2,0,0,1,0,45189.5,0.467185,0.466846,-0.133862,68,0.78754,10,-6.24928e-05,-3.87334,-0.876712,-0.0672969,0.466905,
2,0,0,1,0,45193.3,0.448208,0.447928,-0.141645,68,0.786977,10,-6.34465e-05,-3.8488,-0.925625,-0.0637407,0.44799,
2,0,0,0,0,45197.1,0.429231,0.428962,-0.148885,68,0.786385,10,-6.38662e-05,-3.82715,-0.960946,-0.0613979,0.429028,
2,0,0,1,0,45200.9,0.410254,0.409948,-0.157996,68,0.78576,10,-6.47701e-05,-3.80135,-1.4601,-0.0404083,0.410018,
2,0,0,0,0,45204.7,0.391277,0.390963,-0.167865,68,0.785099,10,-6.56288e-05,-3.77504,-0.535472,-0.110183,0.391036,
2,0,0,1,0,45208.5,0.3723,0.371936,-0.176938,68,0.7844,10,-6.58097e-05,-3.75218,-0.514627,-0.114646,0.372014,
2,0,0,1,0,45212.3,0.353322,0.352996,-0.186306,68,0.783661,10,-6.57653e-05,-3.72977,-0.931696,-0.0633254,0.353078,
2,0,0,1,0,45216.1,0.334345,0.334059,-0.198912,68,0.782881,10,-6.64483e-05,-3.70134,-0.664148,-0.0888356,0.334146,
2,0,0,1,0,45219.9,0.315368,0.315055,-0.208558,68,0.782057,10,-6.57073e-05,-3.68077,-2.1099,-0.0279634,0.315147,
2,0,0,1,0,45223.7,0.296391,0.296074,-0.221457,68,0.781189,10,-6.55677e-05,-3.65471,-0.666805,-0.0884816,0.296172,
2,0,0,1,0,45227.5,0.277414,0.277105,-0.23315,68,0.780273,10,-6.4607e-05,-3.63236,-0.632566,-0.0932709,0.277207,
2,0,0,1,0,45231.3,0.258437,0.258167,-0.245374,68,0.77931,10,-6.33474e-05,-3.61017,-1.12961,-0.0522304,0.258275,
2,0,0,1,0,45235.1,0.239461,0.239124,-0.257102,68,0.778304,10,-6.14795e-05,-3.58989,-0.887443,-0.0664831,0.239238,
2,0,0,0,0,45238.9,0.220483,0.220175,-0.268764,68,0.777252,10,-5.9175e-05,-3.57063,-0.935771,-0.0630496,0.220293,
2,0,0,1,0,45242.7,0.201506,0.201223,-0.282162,68,0.776152,10,-5.67775e-05,-3.5495,-0.549,-0.107468,0.201347,
2,0,0,0,0,45246.5,0.182529,0.182217,-0.300262,68,0.774993,10,-5.4713e-05,-3.5225,-0.392176,-0.150443,0.182349,
2,0,0,1,0,45250.3,0.163552,0.163224,-0.331459,68,0.773741,10,-5.41022e-05,-3.47957,-0.29389,-0.200755,0.16337,
2,0,0,0,0,45254.1,0.144575,0.144249,-0.425465,68,0.772278,10,-6.13731e-05,-3.37114,-0.105411,-0.559712,0.144437,
2,0,0,1,0,45257.9,0.125598,0.125268,-0.639177,68,0.770192,10,-8.00685e-05,-3.19438,-0.171314,-0.344397,0.125549,
2,0,0,1,0,45261.7,0.10662,0.106281,-0.692415,68,0.767542,10,-7.35907e-05,-3.15963,2.3892,0.0246944,0.106586,
2,0,0,1,0,45265.5,0.0876433,0.0873405,-0.661902,68,0.7649,10,-5.78109e-05,-3.17921,0.746517,0.0790337,0.0876317,
2,0,0,1,0,45269.2,0.0686664,0.0683773,-0.619696,68,0.762406,10,-4.23731e-05,-3.20782,0.743459,0.0793588,0.0686499,
2,0,0,1,0,45273,0.0496895,0.0493941,-0.575162,68,0.760068,10,-2.84096e-05,-3.24021,0.570598,0.1034,0.0496472,
2,0,0,1,0,45276.8,0.0307126,0.0303905,-0.527249,68,0.757907,10,-1.60234e-05,-3.27798,0.576598,0.102324,0.0306225,
2,0,0,1,0,45280.6,0.0117356,0.0114083,-0.498585,68,0.755905,10,-5.68803e-06,-3.30226,1.17938,0.0500264,0.0116277,
2,0,0,0,0,45282.9,0.000274105,-7.83813e-05,-0.499841,68,0.754725,10,3.91782e-08,-3.30117, , ,0.000141549,

File: 20221101_1-115_003_TrumpetPlot_ParaChange_from10_every3_16_CV_C01_68.csv
mode,ox/red,error,control changes,counter inc.,time/s,control/V,Ewe/V,<I>/mA,cycle number,(Q-Qo)/C,I Range,P/W,log(|I|),Tafel slope mV/dec,alpha_eff,E-IR/V,
2,0,0,0,0,45313,2.44065e-05,-0.000306236,-0.10639,69,0.0000000E+000,10,3.25806e-08,-3.9731, , ,-0.000259424,
2,1,0,1,0,45316.7,0.0187763,0.0184423,0.20578,69,0.000676958,10,3.79505e-06,-3.6866,0.14196,0.415611,0.0183517,
2,1,0,1,0,45320.5,0.0377538,0.0373859,0.270143,69,0.00164345,10,1.00996e-05,-3.56841,0.192178,0.307008,0.037267,
2,1,0,0,0,45324.3,0.0567309,0.056416,0.332394,69,0.00285748,10,1.87523e-05,-3.47835,0.2882,0.204719,0.0562697,
2,1,0,1,0,45328.1,0.075708,0.0753972,0.379875,69,0.00427913,10,2.86415e-05,-3.42036,0.413925,0.142538,0.0752301,
2,1,0,0,0,45331.9,0.094685,0.0943764,0.434147,69,0.00587148,10,4.09732e-05,-3.36236,0.257946,0.22873,0.0941854,
2,1,0,1,0,45335.7,0.113662,0.113354,0.531112,69,0.00776441,10,6.0204e-05,-3.27481,0.33441,0.17643,0.113121,
2,1,0,0,0,45339.5,0.132639,0.132353,0.569338,69,0.00993746,10,7.53534e-05,-3.24463,-0.63032,-0.0936033,0.132102,
2,1,0,1,0,45343.3,0.151617,0.151334,0.369349,69,0.01185,10,5.58953e-05,-3.43256,-0.075878,-0.777564,0.151172,
2,1,0,1,0,45347.1,0.170594,0.170315,0.275064,69,0.0130753,10,4.68474e-05,-3.56057,-0.319829,-0.184474,0.170194,
2,1,0,1,0,45350.9,0.189571,0.189248,0.257188,69,0.0141355,10,4.86723e-05,-3.58975,-0.828572,-0.0712069,0.189135,
2,1,0,1,0,45354.7,0.208547,0.208226,0.249569,69,0.0151506,10,5.19667e-05,-3.60281,-1.79691,-0.0328342,0.208116,
2,1,0,1,0,45358.5,0.227524,0.227251,0.244627,69,0.0161397,10,5.55919e-05,-3.6115,-1.48965,-0.0396067,0.227144,
2,1,0,1,0,45362.3,0.246501,0.246204,0.240217,69,0.017111,10,5.91424e-05,-3.6194,-0.768438,-0.0767792,0.246098,
2,1,0,0,0,45366.1,0.265479,0.265173,0.236478,69,0.0180676,10,6.27075e-05,-3.62621,-4.91862,-0.0119952,0.265069,
2,1,0,1,0,45369.9,0.284456,0.284171,0.232267,69,0.0190082,10,6.60036e-05,-3.63401,-2.58957,-0.0227837,0.284069,
2,1,0,0,0,45373.7,0.303433,0.303118,0.228828,69,0.0199324,10,6.93619e-05,-3.64049,-1.79313,-0.0329033,0.303018,
2,1,0,1,0,45377.5,0.32241,0.322112,0.22535,69,0.0208424,10,7.25881e-05,-3.64714,-1.79778,-0.0328182,0.322013,
2,1,0,0,0,45381.3,0.341387,0.341118,0.223261,69,0.0217411,10,7.61584e-05,-3.65119,-2.71252,-0.021751,0.34102,
2,1,0,1,0,45385.1,0.360364,0.360072,0.221135,69,0.0226285,10,7.96245e-05,-3.65534,22.3105,0.0026445,0.359975,
2,1,0,1,0,45388.9,0.379342,0.379011,0.220138,69,0.0235092,10,8.34348e-05,-3.6573,-3.95447,-0.0149198,0.378914,
2,1,0,1,0,45392.6,0.398319,0.397993,0.218445,69,0.0243839,10,8.69396e-05,-3.66066,-5.7013,-0.0103485,0.397897,
2,1,0,1,0,45396.4,0.417295,0.41704,0.217603,69,0.0252544,10,9.07491e-05,-3.66234,7.14764,0.00825447,0.416945,
2,1,0,1,0,45400.2,0.436272,0.435975,0.217721,69,0.02612,10,9.49209e-05,-3.6621,-7.86794,-0.00749878,0.435879,
2,1,0,1,0,45404,0.455249,0.454939,0.21791,69,0.0269846,10,9.91358e-05,-3.66172,1.60119,0.0368477,0.454843,
2,1,0,1,0,45407.8,0.474226,0.473905,0.220007,69,0.0278525,10,0.000104263,-3.65756,1.28755,0.0458234,0.473808,
2,1,0,1,0,45411.6,0.493203,0.492939,0.222394,69,0.0287272,10,0.000109627,-3.65288,0.946713,0.0623209,0.492842,
2,1,0,0,0,45415.4,0.512181,0.511896,0.22639,69,0.0296139,10,0.000115888,-3.64514,2.02499,0.0291359,0.511796,
2,1,0,1,0,45419.2,0.531158,0.530876,0.231725,69,0.0305186,10,0.000123017,-3.63503,1.18542,0.0497713,0.530774,
2,1,0,0,0,45423,0.550135,0.549816,0.241061,69,0.0314506,10,0.000132539,-3.61787,0.722206,0.0816942,0.54971,
2,1,0,1,0,45426.8,0.569112,0.568831,0.254387,69,0.0324229,10,0.000144703,-3.59451,0.750053,0.0786612,0.568719,
2,1,0,0,0,45430.6,0.588089,0.587773,0.274878,69,0.0334572,10,0.000161566,-3.56086,0.515064,0.114549,0.587652,
2,1,0,1,0,45434.4,0.607066,0.606774,0.309692,69,0.0345954,10,0.000187913,-3.50907,0.291696,0.202265,0.606638,
2,1,0,1,0,45438.2,0.626044,0.625733,0.376579,69,0.0359182,10,0.000235638,-3.42414,0.170632,0.345773,0.625567,
2,1,0,1,0,45442,0.64502,0.644756,0.51128,69,0.0376055,10,0.000329651,-3.29134,0.114713,0.514328,0.644531,
2,1,0,1,0,45445.8,0.663997,0.663718,0.789603,69,0.040043,10,0.000524074,-3.10259,0.0879937,0.670502,0.663371,
2,1,0,1,0,45449.6,0.682974,0.682705,1.3302,69,0.0439964,10,0.000908137,-2.87608,0.0806503,0.731553,0.682119,
2,1,0,1,0,45453.4,0.701951,0.701661,2.25305,69,0.0506965,10,0.00158088,-2.64723,0.0839523,0.70278,0.70067,
2,1,0,1,0,45457.2,0.720928,0.720654,3.61554,69,0.0617241,10,0.00260555,-2.44183,0.0953753,0.618609,0.719063,
2,1,0,1,0,45461,0.739905,0.739633,5.44651,69,0.0788023,10,0.00402842,-2.26388,0.109236,0.540114,0.737237,
2,1,0,0,0,45464.8,0.758883,0.7586,7.8119,69,0.103811,10,0.0059261,-2.10724,0.118529,0.497767,0.755163,
2,1,0,1,0,45468.6,0.77786,0.777611,10.888,69,0.139063,10,0.00846662,-1.96305,0.124653,0.473315,0.77282,
2,1,0,0,0,45472.4,0.796837,0.796554,15.0316,69,0.187889,10,0.0119735,-1.823,0.12271,0.480809,0.78994,
2,1,0,1,0,45476.1,0.815814,0.815546,20.5099,69,0.254951,10,0.0167267,-1.68804,0.127506,0.462723,0.806522,
2,1,0,0,0,45479.9,0.834791,0.834523,27.0514,69,0.34502,10,0.022575,-1.56781,0.144802,0.407452,0.82262,
2,1,0,0,0,45483.6,0.846726,0.846525,30.683,69,0.456463,10,0.025974,-1.5131,0.104027,0.567161,0.833024,
2,1,0,1,0,45487.4,0.827749,0.827489,21.5766,69,0.55359,10,0.0178544,-1.66602,0.127902,0.461291,0.817995,
2,1,0,1,0,45491.2,0.808772,0.808495,15.8858,69,0.624292,10,0.0128436,-1.79899,0.120144,0.491076,0.801505,
2,1,0,1,0,45495,0.789795,0.789534,11.4434,69,0.675725,10,0.00903497,-1.94144,0.118588,0.497523,0.784499,
2,1,0,1,0,45498.8,0.770818,0.77057,8.04392,69,0.712363,10,0.0061984,-2.09453,0.112736,0.523346,0.767031,
2,1,0,1,0,45502.6,0.751841,0.751534,5.51225,69,0.737813,10,0.00414264,-2.25867,0.105846,0.557415,0.749109,
2,1,0,1,0,45506.4,0.732865,0.732573,3.61394,69,0.754925,10,0.00264748,-2.44202,0.0923079,0.639166,0.730983,
2,1,0,0,0,45510.2,0.713887,0.713621,2.21257,69,0.765809,10,0.00157894,-2.6551,0.0796215,0.741006,0.712647,
2,1,0,1,0,45514,0.69491,0.694649,1.21979,69,0.772171,10,0.000847324,-2.91372,0.064847,0.909834,0.694112,
2,1,0,0,0,45517.8,0.675933,0.675655,0.576001,69,0.775449,10,0.000389178,-3.23958,0.05126,1.151,0.675402,
2,1,0,1,0,45521.6,0.656956,0.656701,0.211658,69,0.776839,10,0.000138996,-3.67437,0.0358377,1.64631,0.656608,
2,1,0,0,0,45525.4,0.637979,0.63771,0.0291359,69,0.777218,10,1.85803e-05,-4.53557,0.0101076,5.83722,0.637697,
2,0,0,1,0,45529.2,0.619002,0.618706,-0.0520229,69,0.77712,10,-3.21869e-05,-4.28381,-0.0430904,-1.36921,0.618729,
2,0,0,0,0,45533,0.600024,0.599728,-0.0866075,69,0.776814,10,-5.19409e-05,-4.06244,-0.15558,-0.379226,0.599766,
2,0,0,1,0,45536.8,0.581047,0.580727,-0.104524,69,0.776412,10,-6.07001e-05,-3.98078,-0.495484,-0.119076,0.580773,
2,0,0,1,0,45540.6,0.56207,0.56176,-0.113051,69,0.775965,10,-6.35074e-05,-3.94673,-0.825937,-0.071434,0.56181,
2,0,0,1,0,45544.4,0.543093,0.542808,-0.119197,69,0.77549,10,-6.47011e-05,-3.92373,-0.787714,-0.0749002,0.542861,
2,0,0,1,0,45548.2,0.524116,0.523811,-0.124076,69,0.774996,10,-6.49922e-05,-3.90631,-6.13144,-0.00962254,0.523865,
2,0,0,1,0,45552,0.505139,0.504862,-0.12805,69,0.774483,10,-6.46476e-05,-3.89262,-1.57762,-0.037398,0.504918,
2,0,0,1,0,45555.8,0.486162,0.485827,-0.133842,69,0.773952,10,-6.50241e-05,-3.87341,-1.58772,-0.0371602,0.485886,
2,0,0,1,0,45559.5,0.467185,0.466879,-0.139714,69,0.773397,10,-6.52295e-05,-3.85476,-0.935596,-0.0630614,0.46694,
2,0,0,1,0,45563.3,0.448208,0.447891,-0.146091,69,0.772817,10,-6.54328e-05,-3.83538,-2.70897,-0.0217795,0.447956,
2,0,0,0,0,45567.1,0.429231,0.428919,-0.153912,69,0.772208,10,-6.60156e-05,-3.81273,-1.50669,-0.0391586,0.428986,
2,0,0,1,0,45570.9,0.410254,0.409951,-0.161964,69,0.771568,10,-6.63972e-05,-3.79058,-4.89671,-0.0120489,0.410022,
2,0,0,0,0,45574.7,0.391277,0.390973,-0.172273,69,0.770893,10,-6.7354e-05,-3.76378,-0.686355,-0.0859613,0.391049,
2,0,0,1,0,45578.5,0.3723,0.371965,-0.181003,69,0.77018,10,-6.73267e-05,-3.74231,-0.580047,-0.101716,0.372045,
2,0,0,1,0,45582.3,0.353322,0.352997,-0.191107,69,0.769429,10,-6.74602e-05,-3.71872,-0.640878,-0.0920612,0.353081,
2,0,0,1,0,45586.1,0.334345,0.334071,-0.202193,69,0.768637,10,-6.7547e-05,-3.69423,-0.66809,-0.0883114,0.33416,
2,0,0,1,0,45589.9,0.315368,0.31505,-0.21374,69,0.767801,10,-6.73388e-05,-3.67011,-0.70361,-0.0838532,0.315144,
2,0,0,1,0,45593.7,0.296391,0.296066,-0.225887,69,0.766922,10,-6.68774e-05,-3.64611,-0.907721,-0.064998,0.296165,
2,0,0,1,0,45597.5,0.277414,0.277129,-0.23735,69,0.765997,10,-6.57765e-05,-3.62461,-0.63154,-0.0934224,0.277234,
2,0,0,1,0,45601.3,0.258437,0.258102,-0.249543,69,0.765025,10,-6.44076e-05,-3.60285,-1.02072,-0.0578021,0.258212,
2,0,0,1,0,45605.1,0.239461,0.239156,-0.261584,69,0.764008,10,-6.25595e-05,-3.58239,-0.975376,-0.0604895,0.239271,
2,0,0,0,0,45608.9,0.220483,0.220143,-0.272256,69,0.762947,10,-5.99352e-05,-3.56502,-0.531035,-0.111104,0.220263,
2,0,0,1,0,45612.7,0.201506,0.201173,-0.286199,69,0.761837,10,-5.75755e-05,-3.54333,-0.49064,-0.120251,0.201299,
2,0,0,0,0,45616.5,0.182529,0.182246,-0.30416,69,0.760667,10,-5.54318e-05,-3.5169,-0.43449,-0.135791,0.18238,
2,0,0,1,0,45620.3,0.163552,0.163255,-0.33675,69,0.759404,10,-5.49762e-05,-3.47269,-0.288541,-0.204477,0.163403,
2,0,0,0,0,45624.1,0.144575,0.144255,-0.429252,69,0.757935,10,-6.19216e-05,-3.36729,-0.10932,-0.539699,0.144444,
2,0,0,1,0,45627.9,0.125598,0.12523,-0.640433,69,0.755849,10,-8.02014e-05,-3.19353,-0.170938,-0.345154,0.125512,
2,0,0,1,0,45631.7,0.10662,0.106276,-0.694041,69,0.753204,10,-7.37599e-05,-3.15861,2.65617,0.0222124,0.106581,
2,0,0,1,0,45635.5,0.0876433,0.0872894,-0.664765,69,0.750558,10,-5.80269e-05,-3.17733,0.666264,0.0885534,0.0875819,
2,0,0,1,0,45639.2,0.0686664,0.0683284,-0.621903,69,0.748059,10,-4.24936e-05,-3.20628,0.653017,0.0903498,0.068602,
2,0,0,1,0,45643,0.0496895,0.0493624,-0.578174,69,0.745718,10,-2.85401e-05,-3.23794,0.582078,0.101361,0.0496168,
2,0,0,1,0,45646.8,0.0307126,0.030378,-0.529791,69,0.743556,10,-1.6094e-05,-3.2759,0.533251,0.110642,0.0306111,
2,0,0,1,0,45650.6,0.0117356,0.0114316,-0.499369,69,0.741554,10,-5.7086e-06,-3.30158,2.74324,0.0215074,0.0116514,
2,0,0,0,0,45652.9,0.000274105,-5.33292e-05,-0.49992,69,0.740375,10,2.66604e-08,-3.3011, , ,0.000166636,