Folder: Figs_alphaMnO2_OER_Tafel_sleope/Figure_codes/Fig_3-5/workspace_calculate_alpha_eff (part 51)

File: 20221101_1-115_003_TrumpetPlot_ParaChange_from10_every3_16_CV_C01_93.csv
mode,ox/red,error,control changes,counter inc.,time/s,control/V,Ewe/V,<I>/mA,cycle number,(Q-Qo)/C,I Range,P/W,log(|I|),Tafel slope mV/dec,alpha_eff,E-IR/V,
2,0,0,1,0,62304.2,2.44065e-05,-0.000382585,-0.058052,94,0.0000000E+000,10,2.22098e-08,-4.23618, , ,-0.000357043,
2,1,0,1,0,62307.9,0.0187763,0.0184169,0.257806,94,0.000851978,10,4.74799e-06,-3.58871,0.169941,0.34718,0.0183035,
2,1,0,0,0,62311.7,0.0377538,0.037405,0.31992,94,0.00199943,10,1.19666e-05,-3.49496,0.224259,0.263088,0.0372642,
2,1,0,1,0,62315.5,0.0567309,0.0564022,0.375576,94,0.00337462,10,2.11833e-05,-3.4253,0.34512,0.170955,0.0562369,
2,1,0,0,0,62319.3,0.075708,0.075358,0.416677,94,0.00493499,10,3.13999e-05,-3.3802,0.581043,0.101542,0.0751747,
2,1,0,1,0,62323.1,0.094685,0.0943287,0.464706,94,0.00664371,10,4.38351e-05,-3.33282,0.270814,0.217862,0.0941242,
2,1,0,0,0,62326.9,0.113662,0.113349,0.553484,94,0.00863019,10,6.27369e-05,-3.2569,0.399771,0.147585,0.113106,
2,1,0,1,0,62330.7,0.132639,0.132256,0.57983,94,0.0108572,10,7.66861e-05,-3.2367,-0.542365,-0.108783,0.132001,
2,1,0,1,0,62334.5,0.151617,0.151295,0.392203,94,0.0128044,10,5.93385e-05,-3.40649,-0.0946965,-0.623043,0.151123,
2,1,0,1,0,62338.3,0.170594,0.170249,0.314254,94,0.0141427,10,5.35014e-05,-3.50272,-0.471858,-0.125038,0.170111,
2,1,0,1,0,62342.1,0.189571,0.189212,0.29704,94,0.0153401,10,5.62035e-05,-3.52718,-1.11327,-0.052997,0.189081,
2,1,0,1,0,62345.9,0.208547,0.208193,0.291488,94,0.0164989,10,6.06858e-05,-3.53538,-1.35025,-0.0436955,0.208065,
2,1,0,1,0,62349.7,0.227524,0.227224,0.286832,94,0.0176363,10,6.51751e-05,-3.54237,-1.7808,-0.0331312,0.227098,
2,1,0,1,0,62353.5,0.246501,0.246152,0.28288,94,0.0187583,10,6.96316e-05,-3.5484,-0.834191,-0.0707272,0.246027,
2,1,0,1,0,62357.3,0.265479,0.265127,0.279749,94,0.0198659,10,7.4169e-05,-3.55323,-1.76015,-0.0335198,0.265004,
2,1,0,0,0,62361,0.284456,0.284093,0.273985,94,0.0209576,10,7.7837e-05,-3.56227,-2.20296,-0.0267822,0.283972,
2,1,0,1,0,62364.8,0.303433,0.303098,0.271738,94,0.0220341,10,8.23633e-05,-3.56585,-2.24114,-0.0263259,0.302979,
2,1,0,0,0,62368.6,0.32241,0.322109,0.26782,94,0.0230964,10,8.62673e-05,-3.57216,19.0078,0.00310399,0.321991,
2,1,0,1,0,62372.4,0.341387,0.341075,0.264912,94,0.0241454,10,9.03549e-05,-3.5769,-1.77355,-0.0332666,0.340958,
2,1,0,0,0,62376.2,0.360364,0.36004,0.262931,94,0.0251817,10,9.46655e-05,-3.58016,20.1444,0.00292885,0.359924,
2,1,0,1,0,62380,0.379342,0.379023,0.260272,94,0.0262088,10,9.86489e-05,-3.58457,-2.4969,-0.0236293,0.378908,
2,1,0,1,0,62383.8,0.398319,0.397971,0.258662,94,0.0272269,10,0.00010294,-3.58727,-3.17368,-0.0185904,0.397857,
2,1,0,1,0,62387.6,0.417295,0.416991,0.256569,94,0.0282384,10,0.000106987,-3.5908,-10.6137,-0.00555884,0.416878,
2,1,0,1,0,62391.4,0.436272,0.435949,0.255319,94,0.0292418,10,0.000111306,-3.59292,4.61187,0.0127931,0.435837,
2,1,0,1,0,62395.2,0.455249,0.454945,0.254702,94,0.0302402,10,0.000115876,-3.59397,5.26519,0.0112057,0.454833,
2,1,0,1,0,62399,0.474226,0.473931,0.254632,94,0.0312381,10,0.000120678,-3.59409,-17.6075,-0.00335085,0.473819,
2,1,0,1,0,62402.8,0.493203,0.492867,0.257187,94,0.0322394,10,0.000126759,-3.58975,1.83269,0.0321932,0.492754,
2,1,0,1,0,62406.6,0.512181,0.511858,0.260841,94,0.0332497,10,0.000133514,-3.58362,1.42381,0.0414383,0.511744,
2,1,0,0,0,62410.4,0.531158,0.530833,0.26551,94,0.0342733,10,0.000140942,-3.57592,1.98332,0.029748,0.530716,
2,1,0,1,0,62414.2,0.550135,0.549836,0.272707,94,0.0353197,10,0.000149944,-3.5643,0.869344,0.0678672,0.549716,
2,1,0,0,0,62418,0.569112,0.568829,0.283257,94,0.0363991,10,0.000161125,-3.54782,0.701681,0.0840837,0.568704,
2,1,0,1,0,62421.8,0.588089,0.587755,0.300318,94,0.0375289,10,0.000176513,-3.52242,0.690968,0.0853875,0.587623,
2,1,0,0,0,62425.6,0.607066,0.606718,0.328388,94,0.038742,10,0.000199239,-3.48361,0.367835,0.160398,0.606574,
2,1,0,1,0,62429.4,0.626044,0.625771,0.379129,94,0.0400995,10,0.000237248,-3.42121,0.231799,0.254531,0.625604,
2,1,0,1,0,62433.2,0.64502,0.644714,0.480763,94,0.0417351,10,0.000309954,-3.31807,0.148642,0.396927,0.644502,
2,1,0,1,0,62437,0.663997,0.663709,0.68373,94,0.0439254,10,0.000453797,-3.16512,0.106587,0.55354,0.663408,
2,1,0,1,0,62440.8,0.682974,0.682692,1.07524,94,0.0472154,10,0.000734061,-2.96849,0.0909675,0.648584,0.682219,
2,1,0,1,0,62444.5,0.701951,0.701615,1.74293,94,0.0524895,10,0.00122287,-2.75872,0.0895399,0.658924,0.700848,
2,1,0,1,0,62448.3,0.720928,0.720645,2.73776,94,0.0609107,10,0.00197295,-2.5626,0.0990108,0.595894,0.71944,
2,1,0,1,0,62452.1,0.739905,0.739594,4.08343,94,0.0737631,10,0.00302008,-2.38897,0.112616,0.523906,0.737797,
2,1,0,1,0,62455.9,0.758883,0.75862,5.8257,94,0.0924533,10,0.0044195,-2.23465,0.125683,0.469437,0.756057,
2,1,0,0,0,62459.7,0.77786,0.777556,8.05353,94,0.118648,10,0.00626207,-2.09401,0.133416,0.442227,0.774012,
2,1,0,1,0,62463.5,0.796837,0.796485,10.9199,94,0.154445,10,0.00869751,-1.96178,0.133562,0.441742,0.791681,
2,1,0,0,0,62467.3,0.815814,0.815504,14.7187,94,0.202808,10,0.0120031,-1.83213,0.135221,0.436323,0.809028,
2,1,0,1,0,62471.1,0.834791,0.834524,19.467,94,0.267435,10,0.0162457,-1.7107,0.144318,0.408821,0.825959,
2,1,0,1,0,62474.8,0.846726,0.84646,22.2333,94,0.348163,10,0.0188196,-1.653,0.10568,0.55829,0.836677,
2,1,0,1,0,62478.6,0.827749,0.82745,16.2046,94,0.420466,10,0.0134085,-1.79036,0.121594,0.485222,0.82032,
2,1,0,1,0,62482.4,0.808772,0.808465,11.7644,94,0.473096,10,0.00951108,-1.92943,0.123069,0.479405,0.803288,
2,1,0,1,0,62486.2,0.789795,0.789512,8.57614,94,0.511545,10,0.00677096,-2.06671,0.117743,0.50109,0.785739,
2,1,0,1,0,62490,0.770818,0.770512,6.0416,94,0.539025,10,0.00465512,-2.21885,0.116039,0.508449,0.767854,
2,1,0,1,0,62493.8,0.751841,0.751536,4.14563,94,0.558151,10,0.00311559,-2.38241,0.106846,0.552195,0.749712,
2,1,0,1,0,62497.6,0.732865,0.732533,2.72979,94,0.571042,10,0.00199966,-2.56387,0.0937361,0.629427,0.731332,
2,1,0,1,0,62501.4,0.713887,0.713585,1.67449,94,0.57927,10,0.00119489,-2.77612,0.0798729,0.738673,0.712848,
2,1,0,0,0,62505.2,0.69491,0.694579,0.926209,94,0.58409,10,0.000643325,-3.03329,0.0653564,0.902742,0.694172,
2,1,0,1,0,62509,0.675933,0.675598,0.438808,94,0.586577,10,0.000296458,-3.35773,0.0510868,1.1549,0.675405,
2,1,0,0,0,62512.8,0.656956,0.656622,0.161008,94,0.58763,10,0.000105721,-3.79315,0.0348536,1.6928,0.656551,
2,1,0,1,0,62516.6,0.637979,0.637653,0.0201078,94,0.587911,10,1.28218e-05,-4.69664,0.00816379,7.22704,0.637645,
2,0,0,0,0,62520.4,0.619002,0.61872,-0.0415446,94,0.587826,10,-2.57045e-05,-4.38149,-0.0471605,-1.25105,0.618738,
2,0,0,1,0,62524.2,0.600024,0.599676,-0.0688286,94,0.587582,10,-4.12749e-05,-4.16223,-0.176784,-0.33374,0.599706,
2,0,0,1,0,62527.9,0.581047,0.580694,-0.0825721,94,0.587262,10,-4.79492e-05,-4.08317,-0.352186,-0.167525,0.580731,
2,0,0,1,0,62531.7,0.56207,0.561721,-0.0911429,94,0.586902,10,-5.11968e-05,-4.04028,-0.606209,-0.0973262,0.561761,
2,0,0,1,0,62535.5,0.543093,0.542736,-0.0964017,94,0.586518,10,-5.23207e-05,-4.01592,-2.77462,-0.0212642,0.542779,
2,0,0,1,0,62539.3,0.524116,0.523761,-0.101498,94,0.586114,10,-5.31608e-05,-3.99354,-0.951534,-0.0620051,0.523805,
2,0,0,1,0,62543.1,0.505139,0.504751,-0.106257,94,0.58569,10,-5.36335e-05,-3.97364,-0.571478,-0.103241,0.504798,
2,0,0,1,0,62546.9,0.486162,0.485842,-0.111561,94,0.585245,10,-5.42011e-05,-3.95249,-0.965692,-0.0610961,0.485891,
2,0,0,1,0,62550.7,0.467185,0.466868,-0.118688,94,0.584777,10,-5.54116e-05,-3.92559,-1.0083,-0.0585145,0.46692,
2,0,0,0,0,62554.5,0.448208,0.447874,-0.126849,94,0.584282,10,-5.68126e-05,-3.89671,-1.06533,-0.0553818,0.44793,
2,0,0,1,0,62558.3,0.429231,0.428944,-0.134466,94,0.583756,10,-5.76782e-05,-3.87139,-1.16749,-0.0505356,0.429003,
2,0,0,0,0,62562.1,0.410254,0.409909,-0.143713,94,0.583195,10,-5.89093e-05,-3.8425,-0.716572,-0.0823365,0.409972,
2,0,0,1,0,62565.9,0.391277,0.390899,-0.152721,94,0.5826,10,-5.96983e-05,-3.8161,-0.535937,-0.110088,0.390966,
2,0,0,0,0,62569.7,0.3723,0.37196,-0.163247,94,0.581965,10,-6.07215e-05,-3.78715,-0.555571,-0.106197,0.372032,
2,0,0,1,0,62573.5,0.353322,0.353023,-0.172888,94,0.581291,10,-6.10334e-05,-3.76224,-0.635487,-0.0928422,0.353099,
2,0,0,1,0,62577.3,0.334345,0.333994,-0.183873,94,0.580574,10,-6.14125e-05,-3.73548,-0.842096,-0.0700633,0.334075,
2,0,0,1,0,62581.1,0.315368,0.315055,-0.195731,94,0.579815,10,-6.16662e-05,-3.70834,-0.759144,-0.0777191,0.315141,
2,0,0,1,0,62584.9,0.296391,0.296034,-0.207475,94,0.579012,10,-6.14195e-05,-3.68304,-0.767261,-0.0768969,0.296125,
2,0,0,1,0,62588.7,0.277414,0.277079,-0.218828,94,0.57816,10,-6.06326e-05,-3.6599,-0.717958,-0.0821775,0.277176,
2,0,0,1,0,62592.5,0.258437,0.258078,-0.231415,94,0.57726,10,-5.97231e-05,-3.63561,-0.987138,-0.0597688,0.25818,
2,0,0,1,0,62596.3,0.239461,0.239116,-0.24318,94,0.576315,10,-5.81483e-05,-3.61407,-0.786987,-0.0749695,0.239223,
2,0,0,1,0,62600.1,0.220483,0.22017,-0.254726,94,0.575326,10,-5.6083e-05,-3.59393,-0.5882,-0.100306,0.220282,
2,0,0,0,0,62603.9,0.201506,0.201179,-0.2679,94,0.574288,10,-5.38959e-05,-3.57203,-0.509277,-0.11585,0.201297,
2,0,0,1,0,62607.6,0.182529,0.18219,-0.284914,94,0.573194,10,-5.19083e-05,-3.54529,-0.497114,-0.118685,0.182315,
2,0,0,0,0,62611.4,0.163552,0.16322,-0.31374,94,0.572018,10,-5.12086e-05,-3.50343,-0.355236,-0.166087,0.163358,
2,0,0,1,0,62615.2,0.144575,0.144175,-0.388789,94,0.570664,10,-5.60537e-05,-3.41029,-0.125673,-0.469473,0.144346,
2,0,0,0,0,62619,0.125598,0.125287,-0.575285,94,0.568799,10,-7.20758e-05,-3.24012,-0.142562,-0.413855,0.12554,
2,0,0,1,0,62622.8,0.10662,0.106283,-0.65215,94,0.56636,10,-6.93128e-05,-3.18565,-2.36119,-0.0249874,0.10657,
2,0,0,1,0,62626.6,0.0876433,0.0873033,-0.63746,94,0.563852,10,-5.56523e-05,-3.19555,0.968409,0.0609247,0.0875837,
2,0,0,1,0,62630.4,0.0686664,0.0683147,-0.603925,94,0.561443,10,-4.12569e-05,-3.21902,0.933135,0.0632277,0.0685804,
2,0,0,1,0,62634.2,0.0496895,0.0493686,-0.563931,94,0.559169,10,-2.78405e-05,-3.24877,0.566906,0.104074,0.0496167,
2,0,0,1,0,62638,0.0307126,0.0303758,-0.52131,94,0.557057,10,-1.58352e-05,-3.2829,0.577306,0.102199,0.0306052,
2,0,0,1,0,62641.8,0.0117356,0.0114042,-0.491285,94,0.555091,10,-5.60273e-06,-3.30867,1.9194,0.0307388,0.0116204,
2,0,0,1,0,62644.1,0.000274105,-9.50827e-05,-0.491446,94,0.553936,10,4.67281e-08,-3.30852, , ,0.000121154,

File: 20221101_1-115_003_TrumpetPlot_ParaChange_from10_every3_16_CV_C01_94.csv
mode,ox/red,error,control changes,counter inc.,time/s,control/V,Ewe/V,<I>/mA,cycle number,(Q-Qo)/C,I Range,P/W,log(|I|),Tafel slope mV/dec,alpha_eff,E-IR/V,
2,0,0,0,0,62674.2,2.44065e-05,-0.000229887,-0.0949418,95,0.0000000E+000,10,2.18259e-08,-4.02254, , ,-0.000188113,
2,1,0,1,0,62677.9,0.0187763,0.0184372,0.212394,95,0.000682488,10,3.91595e-06,-3.67286,0.158553,0.372115,0.0183438,
2,1,0,1,0,62681.7,0.0377538,0.0374665,0.273759,95,0.00165544,10,1.02568e-05,-3.56263,0.192738,0.306115,0.037346,
2,1,0,0,0,62685.5,0.0567309,0.0563778,0.332204,95,0.00286311,10,1.87289e-05,-3.4786,0.298206,0.19785,0.0562316,
2,1,0,1,0,62689.3,0.075708,0.0753686,0.37758,95,0.00426522,10,2.84577e-05,-3.42299,0.570681,0.103385,0.0752025,
2,1,0,0,0,62693.1,0.094685,0.0943149,0.428455,95,0.00582982,10,4.04097e-05,-3.36809,0.252727,0.233454,0.0941264,
2,1,0,1,0,62696.9,0.113662,0.11334,0.518951,95,0.00767721,10,5.88177e-05,-3.28487,0.319715,0.184539,0.113111,
2,1,0,0,0,62700.7,0.132639,0.132288,0.5488,95,0.00978013,10,7.25997e-05,-3.26059,-0.537298,-0.109809,0.132047,
2,1,0,1,0,62704.5,0.151617,0.151259,0.363706,95,0.0116161,10,5.50139e-05,-3.43925,-0.0851525,-0.692874,0.151099,
2,1,0,1,0,62708.3,0.170594,0.170222,0.281241,95,0.0128406,10,4.78735e-05,-3.55092,-0.365188,-0.161561,0.170099,
2,1,0,1,0,62712.1,0.189571,0.189206,0.265851,95,0.0139187,10,5.03007e-05,-3.57536,-1.12627,-0.0523853,0.189089,
2,1,0,1,0,62715.9,0.208547,0.208183,0.258665,95,0.0149566,10,5.38497e-05,-3.58726,-1.09223,-0.054018,0.20807,
2,1,0,1,0,62719.7,0.227524,0.22715,0.252457,95,0.0159712,10,5.73456e-05,-3.59781,-1.25024,-0.0471911,0.227039,
2,1,0,1,0,62723.5,0.246501,0.246161,0.249225,95,0.0169679,10,6.13493e-05,-3.60341,-1.43886,-0.0410046,0.246051,
2,1,0,0,0,62727.3,0.265479,0.265139,0.245474,95,0.0179494,10,6.50846e-05,-3.61,-1.01327,-0.0582271,0.265031,
2,1,0,1,0,62731,0.284456,0.284129,0.242087,95,0.0189138,10,6.8784e-05,-3.61603,-1.88989,-0.0312187,0.284022,
2,1,0,0,0,62734.8,0.303433,0.303122,0.236983,95,0.0198618,10,7.18346e-05,-3.62528,-1.81551,-0.0324977,0.303017,
2,1,0,1,0,62738.6,0.32241,0.32209,0.233517,95,0.020794,10,7.52136e-05,-3.63168,-4.93036,-0.0119667,0.321987,
2,1,0,0,0,62742.4,0.341387,0.341049,0.231419,95,0.0217123,10,7.89253e-05,-3.6356,-2.40193,-0.0245635,0.340947,
2,1,0,1,0,62746.2,0.360364,0.360035,0.22914,95,0.0226206,10,8.24983e-05,-3.6399,-2.02022,-0.0292047,0.359934,
2,1,0,1,0,62750,0.379342,0.379051,0.226171,95,0.0235193,10,8.57301e-05,-3.64556,-31.4562,-0.00187562,0.378951,
2,1,0,1,0,62753.8,0.398319,0.397965,0.224357,95,0.0244097,10,8.92861e-05,-3.64906,24.3632,0.00242168,0.397866,
2,1,0,1,0,62757.6,0.417295,0.416979,0.223873,95,0.0252937,10,9.33501e-05,-3.65,19.1545,0.00308022,0.41688,
2,1,0,1,0,62761.4,0.436272,0.435989,0.223728,95,0.0261733,10,9.75432e-05,-3.65028,2.10667,0.0280062,0.435891,
2,1,0,1,0,62765.2,0.455249,0.454913,0.223059,95,0.0270499,10,0.000101472,-3.65158,2.65864,0.0221918,0.454815,
2,1,0,1,0,62769,0.474226,0.473839,0.22381,95,0.0279269,10,0.00010605,-3.65012,1.14117,0.0517014,0.473741,
2,1,0,1,0,62772.8,0.493203,0.492838,0.225846,95,0.028809,10,0.000111306,-3.64619,1.68752,0.0349625,0.492739,
2,1,0,0,0,62776.6,0.512181,0.511857,0.230365,95,0.0297013,10,0.000117914,-3.63758,1.75386,0.0336401,0.511756,
2,1,0,1,0,62780.4,0.531158,0.530837,0.234976,95,0.03061,10,0.000124734,-3.62898,1.30564,0.0451886,0.530733,
2,1,0,0,0,62784.2,0.550135,0.549794,0.242694,95,0.0315414,10,0.000133432,-3.61494,0.811923,0.072667,0.549688,
2,1,0,1,0,62788,0.569112,0.568817,0.254198,95,0.0325082,10,0.000144592,-3.59483,0.792293,0.0744674,0.568705,
2,1,0,0,0,62791.8,0.588089,0.587784,0.271666,95,0.0335282,10,0.000159681,-3.56597,0.524695,0.112446,0.587664,
2,1,0,1,0,62795.6,0.607066,0.606773,0.298684,95,0.0346318,10,0.000181233,-3.52479,0.358876,0.164402,0.606642,
2,1,0,1,0,62799.4,0.626044,0.625697,0.348897,95,0.0358768,10,0.000218304,-3.4573,0.228698,0.257982,0.625543,
2,1,0,1,0,62803.2,0.64502,0.644706,0.448951,95,0.0373938,10,0.000289442,-3.3478,0.138296,0.426622,0.644509,
2,1,0,1,0,62807,0.663997,0.663694,0.648051,95,0.0394554,10,0.000430108,-3.18839,0.0984092,0.599537,0.663409,
2,1,0,1,0,62810.8,0.682974,0.682673,1.03284,95,0.0425966,10,0.00070509,-2.98597,0.0880608,0.669992,0.682218,
2,1,0,1,0,62814.5,0.701951,0.701629,1.68963,95,0.0476918,10,0.00118549,-2.77221,0.0883738,0.667619,0.700885,
2,1,0,1,0,62818.3,0.720928,0.720613,2.67416,95,0.0558959,10,0.00192704,-2.57281,0.100045,0.589735,0.719436,
2,1,0,1,0,62822.1,0.739905,0.739584,4.0078,95,0.068486,10,0.00296411,-2.39709,0.110589,0.533509,0.737821,
2,1,0,0,0,62825.9,0.758883,0.758549,5.73797,95,0.0868689,10,0.00435253,-2.24124,0.120788,0.488461,0.756025,
2,1,0,1,0,62829.7,0.77786,0.777558,7.97046,95,0.112731,10,0.0061975,-2.09852,0.129984,0.453901,0.774051,
2,1,0,0,0,62833.5,0.796837,0.796539,10.8767,95,0.148268,10,0.0086637,-1.9635,0.131737,0.447862,0.791754,
2,1,0,1,0,62837.3,0.815814,0.815508,14.6903,95,0.19654,10,0.0119801,-1.83297,0.125606,0.469724,0.809044,
2,1,0,0,0,62841.1,0.834791,0.83452,19.5137,95,0.261255,10,0.0162846,-1.70966,0.146839,0.4018,0.825934,
2,1,0,0,0,62844.8,0.846726,0.846481,22.3803,95,0.34227,10,0.0189445,-1.65013,0.10843,0.544132,0.836634,
2,1,0,1,0,62848.6,0.827749,0.827457,16.3599,95,0.415142,10,0.0135371,-1.78622,0.123989,0.475848,0.820259,
2,1,0,1,0,62852.4,0.808772,0.808457,11.9982,95,0.468332,10,0.0097,-1.92089,0.139702,0.422328,0.803178,
2,1,0,1,0,62856.2,0.789795,0.789507,8.54322,95,0.506945,10,0.00674493,-2.06838,0.116352,0.507081,0.785748,
2,1,0,1,0,62860,0.770818,0.770489,6.00164,95,0.534272,10,0.0046242,-2.22173,0.114238,0.516465,0.767849,
2,1,0,1,0,62863.8,0.751841,0.75153,4.10894,95,0.553254,10,0.00308799,-2.38627,0.10517,0.560999,0.749722,
2,1,0,1,0,62867.6,0.732865,0.732543,2.69663,95,0.566011,10,0.0019754,-2.56918,0.0934812,0.631143,0.731357,
2,1,0,0,0,62871.4,0.713887,0.713522,1.64724,95,0.574125,10,0.00117534,-2.78324,0.0780413,0.75601,0.712797,
2,1,0,1,0,62875.2,0.69491,0.694638,0.901533,95,0.578844,10,0.000626239,-3.04502,0.0639566,0.922501,0.694241,
2,1,0,0,0,62879,0.675933,0.675615,0.418167,95,0.581245,10,0.00028252,-3.37865,0.0477913,1.23454,0.675431,
2,1,0,1,0,62882.8,0.656956,0.656623,0.139427,95,0.582221,10,9.1551e-05,-3.85565,0.0299031,1.97304,0.656562,
2,0,0,0,0,62886.6,0.637979,0.637688,0.00108133,95,0.582426,10,6.89553e-07,-5.96604,0.167689,0.351841,0.637688,
2,0,0,1,0,62890.4,0.619002,0.618644,-0.0599954,95,0.582269,10,-3.71158e-05,-4.22188,-0.0698518,-0.844646,0.618671,
2,0,0,0,0,62894.2,0.600024,0.599692,-0.0880707,95,0.581952,10,-5.28153e-05,-4.05517,-0.221994,-0.265773,0.599731,
2,0,0,1,0,62897.9,0.581047,0.580698,-0.101501,95,0.581562,10,-5.89414e-05,-3.99353,-0.55757,-0.105816,0.580742,
2,0,0,1,0,62901.7,0.56207,0.561721,-0.108846,95,0.581134,10,-6.11412e-05,-3.96319,-0.946631,-0.0623263,0.561769,
2,0,0,1,0,62905.5,0.543093,0.542733,-0.11401,95,0.580684,10,-6.1877e-05,-3.94306,-1.43953,-0.0409855,0.542783,
2,0,0,1,0,62909.3,0.524116,0.523757,-0.118189,95,0.580216,10,-6.19025e-05,-3.92742,2.72859,0.0216229,0.523809,
2,0,0,1,0,62913.1,0.505139,0.504774,-0.122623,95,0.579731,10,-6.18967e-05,-3.91143,-1.18088,-0.0499626,0.504828,
2,0,0,1,0,62916.9,0.486162,0.485801,-0.128222,95,0.579226,10,-6.22905e-05,-3.89204,-0.888078,-0.0664356,0.485858,
2,0,0,1,0,62920.7,0.467185,0.466834,-0.133823,95,0.578699,10,-6.24732e-05,-3.87347,-0.664779,-0.0887513,0.466893,
2,0,0,1,0,62924.5,0.448208,0.447844,-0.141156,95,0.578146,10,-6.32157e-05,-3.8503,-3.03506,-0.0194395,0.447906,
2,0,0,0,0,62928.3,0.429231,0.428931,-0.148293,95,0.577564,10,-6.36077e-05,-3.82888,-1.98381,-0.0297407,0.428997,
2,0,0,1,0,62932.1,0.410254,0.409887,-0.157606,95,0.576949,10,-6.46004e-05,-3.80243,-0.764342,-0.0771906,0.409956,
2,0,0,0,0,62935.9,0.391277,0.390942,-0.166385,95,0.576301,10,-6.50469e-05,-3.77889,-1.30879,-0.0450797,0.391016,
2,0,0,1,0,62939.7,0.3723,0.371967,-0.176095,95,0.575615,10,-6.55017e-05,-3.75425,-0.768558,-0.0767671,0.372045,
2,0,0,1,0,62943.5,0.353322,0.352952,-0.185985,95,0.574891,10,-6.56437e-05,-3.73052,-0.654423,-0.0901558,0.353034,
2,0,0,1,0,62947.3,0.334345,0.333981,-0.197441,95,0.574125,10,-6.59417e-05,-3.70456,-0.568196,-0.103837,0.334068,
2,0,0,1,0,62951.1,0.315368,0.315013,-0.208814,95,0.573316,10,-6.5779e-05,-3.68024,-0.624767,-0.0944353,0.315105,
2,0,0,1,0,62954.9,0.296391,0.296068,-0.22055,95,0.572462,10,-6.52976e-05,-3.65649,-0.782648,-0.0753851,0.296165,
2,0,0,1,0,62958.7,0.277414,0.277036,-0.231927,95,0.571562,10,-6.42521e-05,-3.63465,-0.86153,-0.0684828,0.277138,
2,0,0,1,0,62962.5,0.258437,0.258067,-0.243945,95,0.570616,10,-6.29541e-05,-3.61271,-1.13546,-0.0519612,0.258175,
2,0,0,1,0,62966.3,0.239461,0.239104,-0.255949,95,0.569624,10,-6.11985e-05,-3.59185,-0.752993,-0.078354,0.239217,
2,0,0,0,0,62970.1,0.220483,0.220125,-0.266634,95,0.568588,10,-5.86926e-05,-3.57409,-0.72991,-0.0808319,0.220242,
2,0,0,1,0,62973.9,0.201506,0.201113,-0.278986,95,0.567507,10,-5.61077e-05,-3.55442,-0.84008,-0.0702314,0.201235,
2,0,0,0,0,62977.7,0.182529,0.182148,-0.296783,95,0.566369,10,-5.40586e-05,-3.52756,-0.613814,-0.0961204,0.182279,
2,0,0,1,0,62981.4,0.163552,0.163166,-0.324828,95,0.565148,10,-5.30008e-05,-3.48835,-0.333543,-0.176889,0.163309,
2,0,0,0,0,62985.2,0.144575,0.144276,-0.400804,95,0.563752,10,-5.78264e-05,-3.39707,-0.127708,-0.461991,0.144452,
2,0,0,1,0,62989,0.125598,0.125198,-0.587533,95,0.561844,10,-7.3558e-05,-3.23097,-0.148438,-0.397472,0.125457,
2,0,0,1,0,62992.8,0.10662,0.106249,-0.661036,95,0.559364,10,-7.02347e-05,-3.17977,-2.94698,-0.0200205,0.10654,
2,0,0,1,0,62996.6,0.0876433,0.0873066,-0.646184,95,0.556819,10,-5.64161e-05,-3.18964,0.873122,0.0675736,0.0875909,
2,0,0,1,0,63000.4,0.0686664,0.0683262,-0.609769,95,0.554381,10,-4.16632e-05,-3.21483,0.881407,0.0669384,0.0685945,
2,0,0,1,0,63004.2,0.0496895,0.0493177,-0.570036,95,0.552084,10,-2.81129e-05,-3.2441,0.624488,0.0944774,0.0495685,
2,0,0,1,0,63008,0.0307126,0.0303545,-0.525752,95,0.549951,10,-1.59589e-05,-3.27922,0.508468,0.116035,0.0305858,
2,0,0,1,0,63011.8,0.0117356,0.0113691,-0.496597,95,0.547966,10,-5.64585e-06,-3.304,2.32339,0.025394,0.0115876,
2,0,0,0,0,63014.1,0.000274105,-0.000152345,-0.499316,95,0.546797,10,7.60681e-08,-3.30162, , ,6.73542e-05,