Folder: Figs_alphaMnO2_OER_Tafel_sleope/Figure_codes/Fig_3-5/workspace_calculate_alpha_eff (part 46)

File: 20221101_1-115_003_TrumpetPlot_ParaChange_from10_every3_16_CV_C01_83.csv
mode,ox/red,error,control changes,counter inc.,time/s,control/V,Ewe/V,<I>/mA,cycle number,(Q-Qo)/C,I Range,P/W,log(|I|),Tafel slope mV/dec,alpha_eff,E-IR/V,
2,0,0,0,0,55163.6,2.44065e-05,-0.000306236,-0.0885815,84,0.0000000E+000,10,2.71269e-08,-4.05266, , ,-0.00026726,
2,1,0,1,0,55167.4,0.0187763,0.0183882,0.202427,84,0.000649199,10,3.72228e-06,-3.69373,0.148803,0.396496,0.0182992,
2,1,0,1,0,55171.2,0.0377538,0.0374379,0.26498,84,0.00158958,10,9.92029e-06,-3.57679,0.187397,0.31484,0.0373213,
2,1,0,0,0,55175,0.0567309,0.0563619,0.325117,84,0.00277108,10,1.83242e-05,-3.48796,0.272799,0.216276,0.0562188,
2,1,0,1,0,55178.8,0.075708,0.0753538,0.371666,84,0.00415307,10,2.80064e-05,-3.42985,0.518506,0.113789,0.0751902,
2,1,0,0,0,55182.6,0.094685,0.0943764,0.424338,84,0.00570045,10,4.00475e-05,-3.37229,0.266754,0.221178,0.0941897,
2,1,0,1,0,55186.4,0.113662,0.113319,0.516344,84,0.00753553,10,5.85118e-05,-3.28706,0.297011,0.198646,0.113092,
2,1,0,0,0,55190.2,0.132639,0.13229,0.550468,84,0.00963673,10,7.28215e-05,-3.25927,-0.568721,-0.103741,0.132048,
2,1,0,1,0,55194,0.151617,0.151293,0.362255,84,0.011482,10,5.48066e-05,-3.44099,-0.079556,-0.741616,0.151134,
2,1,0,1,0,55197.8,0.170594,0.170289,0.274259,84,0.012688,10,4.67032e-05,-3.56184,-0.367644,-0.160482,0.170168,
2,1,0,1,0,55201.5,0.189571,0.189234,0.256502,84,0.0137379,10,4.85389e-05,-3.59091,-0.849046,-0.0694898,0.189121,
2,1,0,1,0,55205.3,0.208547,0.208203,0.249539,84,0.014743,10,5.19548e-05,-3.60286,-1.16893,-0.0504737,0.208094,
2,1,0,1,0,55209.1,0.227524,0.227196,0.24419,84,0.0157238,10,5.54791e-05,-3.61227,-1.28197,-0.0460229,0.227089,
2,1,0,1,0,55212.9,0.246501,0.246161,0.240723,84,0.0166889,10,5.92566e-05,-3.61848,-2.05553,-0.028703,0.246055,
2,1,0,0,0,55216.7,0.265479,0.26515,0.236366,84,0.01764,10,6.26723e-05,-3.62642,-0.972489,-0.0606691,0.265046,
2,1,0,1,0,55220.5,0.284456,0.284108,0.232822,84,0.0185747,10,6.61465e-05,-3.63298,-4.90214,-0.0120356,0.284005,
2,1,0,0,0,55224.3,0.303433,0.303091,0.229125,84,0.0194933,10,6.94458e-05,-3.63993,-3.20117,-0.0184308,0.30299,
2,1,0,1,0,55228.1,0.32241,0.322116,0.225302,84,0.020397,10,7.25732e-05,-3.64724,-4.51933,-0.013055,0.322017,
2,1,0,0,0,55231.9,0.341387,0.341026,0.222828,84,0.0212876,10,7.59902e-05,-3.65203,-2.87595,-0.020515,0.340928,
2,1,0,1,0,55235.7,0.360364,0.360044,0.221581,84,0.022167,10,7.9779e-05,-3.65447,-4.3474,-0.0135713,0.359947,
2,1,0,1,0,55239.5,0.379342,0.379021,0.219339,84,0.0230386,10,8.31339e-05,-3.65888,-2.19634,-0.0268629,0.378924,
2,1,0,1,0,55243.3,0.398319,0.397983,0.217082,84,0.0239036,10,8.63948e-05,-3.66338,-31.0569,-0.00189974,0.397887,
2,1,0,1,0,55247.1,0.417295,0.416968,0.21642,84,0.0247633,10,9.02402e-05,-3.6647,-1.93893,-0.0304292,0.416873,
2,1,0,1,0,55250.9,0.436272,0.435959,0.216158,84,0.0256177,10,9.4236e-05,-3.66523,8.01414,0.00736199,0.435864,
2,1,0,1,0,55254.7,0.455249,0.454957,0.215646,84,0.0264703,10,9.81096e-05,-3.66626,4.36745,0.013509,0.454862,
2,1,0,1,0,55258.5,0.474226,0.473884,0.217726,84,0.0273255,10,0.000103177,-3.66209,1.1541,0.0511222,0.473788,
2,1,0,1,0,55262.3,0.493203,0.492859,0.219828,84,0.0281871,10,0.000108344,-3.65792,3.3016,0.0178701,0.492762,
2,1,0,0,0,55266.1,0.512181,0.511861,0.224139,84,0.0290587,10,0.000114728,-3.64948,1.36549,0.043208,0.511762,
2,1,0,1,0,55269.9,0.531158,0.530851,0.229754,84,0.0299483,10,0.000121965,-3.63874,1.28099,0.0460582,0.53075,
2,1,0,0,0,55273.7,0.550135,0.549781,0.237841,84,0.0308642,10,0.000130761,-3.62371,0.783917,0.075263,0.549676,
2,1,0,1,0,55277.5,0.569112,0.568755,0.248936,84,0.0318167,10,0.000141584,-3.60391,0.829865,0.0710959,0.568645,
2,1,0,0,0,55281.3,0.588089,0.587743,0.26782,84,0.0328239,10,0.000157409,-3.57216,0.556769,0.105969,0.587625,
2,1,0,1,0,55285,0.607066,0.606698,0.297992,84,0.03392,10,0.000180791,-3.52579,0.313986,0.187907,0.606567,
2,1,0,1,0,55288.8,0.626044,0.625735,0.352856,84,0.0351716,10,0.000220795,-3.4524,0.196922,0.299612,0.62558,
2,1,0,1,0,55292.6,0.64502,0.644707,0.460805,84,0.0367207,10,0.000297084,-3.33648,0.133024,0.443529,0.644504,
2,1,0,1,0,55296.4,0.663997,0.663703,0.683076,84,0.038872,10,0.00045336,-3.16553,0.0961507,0.61362,0.663403,
2,1,0,1,0,55300.2,0.682974,0.682615,1.11354,84,0.0422281,10,0.000760116,-2.9533,0.0854612,0.690371,0.682125,
2,1,0,1,0,55304,0.701951,0.701652,1.84975,84,0.0477715,10,0.00129788,-2.73289,0.08675,0.680115,0.700838,
2,1,0,1,0,55307.8,0.720928,0.720646,2.94606,84,0.0567842,10,0.00212307,-2.53076,0.0966864,0.61022,0.719349,
2,1,0,1,0,55311.6,0.739905,0.739609,4.42719,84,0.0706762,10,0.00327439,-2.35387,0.110324,0.534786,0.737661,
2,1,0,0,0,55315.4,0.758883,0.758613,6.34879,84,0.0909997,10,0.00481628,-2.19731,0.120289,0.490486,0.755819,
2,1,0,1,0,55319.2,0.77786,0.777619,8.82055,84,0.119616,10,0.00685902,-2.0545,0.128252,0.460031,0.773737,
2,1,0,0,0,55323,0.796837,0.796568,12.0573,84,0.158979,10,0.00960442,-1.91875,0.130458,0.452252,0.791263,
2,1,0,1,0,55326.8,0.815814,0.815563,16.3244,84,0.212472,10,0.0133136,-1.78716,0.130762,0.451201,0.80838,
2,1,0,0,0,55330.6,0.834791,0.834518,21.7339,84,0.284351,10,0.0181373,-1.66286,0.14157,0.416755,0.824955,
2,1,0,0,0,55334.3,0.846726,0.846469,24.8658,84,0.374362,10,0.0210481,-1.6044,0.107705,0.547794,0.835528,
2,1,0,1,0,55338.1,0.827749,0.827553,18.0202,84,0.455059,10,0.0149127,-1.74424,0.125436,0.470361,0.819624,
2,1,0,1,0,55341.9,0.808772,0.808519,13.1186,84,0.513701,10,0.0106066,-1.88211,0.121986,0.483662,0.802746,
2,1,0,1,0,55345.7,0.789795,0.789544,9.38107,84,0.556043,10,0.00740677,-2.02775,0.11459,0.514877,0.785416,
2,1,0,1,0,55349.5,0.770818,0.77056,6.59137,84,0.586062,10,0.00507904,-2.18102,0.113329,0.520607,0.767659,
2,1,0,1,0,55353.3,0.751841,0.751519,4.50553,84,0.606902,10,0.00338599,-2.34625,0.105947,0.556885,0.749537,
2,1,0,1,0,55357.1,0.732865,0.732516,2.95487,84,0.620891,10,0.00216449,-2.52946,0.0942301,0.626127,0.731215,
2,1,0,0,0,55360.9,0.713887,0.713606,1.80187,84,0.629774,10,0.00128582,-2.74428,0.0778259,0.758102,0.712813,
2,1,0,1,0,55364.7,0.69491,0.6946,0.985112,84,0.634935,10,0.000684259,-3.00651,0.063725,0.925854,0.694167,
2,1,0,0,0,55368.4,0.675933,0.675619,0.455017,84,0.637556,10,0.000307418,-3.34197,0.0495974,1.18958,0.675419,
2,1,0,1,0,55372.2,0.656956,0.656712,0.153626,84,0.638622,10,0.000100888,-3.81354,0.0307722,1.91732,0.656644,
2,1,0,0,0,55376,0.637979,0.637637,0.00304243,84,0.638855,10,1.93997e-06,-5.51678,0.0126981,4.64636,0.637636,
2,0,0,1,0,55379.8,0.619002,0.618704,-0.0616311,84,0.638698,10,-3.81314e-05,-4.2102,-0.063378,-0.930923,0.618731,
2,0,0,0,0,55383.6,0.600024,0.599758,-0.091767,84,0.638368,10,-5.5038e-05,-4.03731,-0.208523,-0.282942,0.599798,
2,0,0,1,0,55387.4,0.581047,0.580692,-0.106286,84,0.637959,10,-6.17195e-05,-3.97352,-0.333853,-0.176725,0.580739,
2,0,0,1,0,55391.2,0.56207,0.561799,-0.11434,84,0.637511,10,-6.42359e-05,-3.9418,-1.06727,-0.055281,0.561849,
2,0,0,1,0,55395,0.543093,0.542773,-0.118928,84,0.637039,10,-6.45512e-05,-3.92471,-2.93758,-0.0200846,0.542826,
2,0,0,1,0,55398.8,0.524116,0.523793,-0.123485,84,0.636549,10,-6.46807e-05,-3.90839,-1.14241,-0.0516453,0.523848,
2,0,0,1,0,55402.6,0.505139,0.504848,-0.128467,84,0.636041,10,-6.48564e-05,-3.89121,-0.936574,-0.0629956,0.504905,
2,0,0,1,0,55406.4,0.486162,0.485855,-0.133118,84,0.635514,10,-6.4676e-05,-3.87576,-1.26012,-0.046821,0.485913,
2,0,0,1,0,55410.2,0.467185,0.466869,-0.138657,84,0.634966,10,-6.47345e-05,-3.85806,-1.59037,-0.0370984,0.46693,
2,0,0,1,0,55414,0.448208,0.447912,-0.145353,84,0.634393,10,-6.51054e-05,-3.83758,-1.08732,-0.0542619,0.447976,
2,0,0,0,0,55417.8,0.429231,0.428904,-0.153427,84,0.633792,10,-6.58056e-05,-3.8141,-4.02883,-0.0146445,0.428971,
2,0,0,1,0,55421.6,0.410254,0.409955,-0.162008,84,0.633157,10,-6.6416e-05,-3.79046,-0.942554,-0.0625959,0.410027,
2,0,0,0,0,55425.4,0.391277,0.390943,-0.171554,84,0.632488,10,-6.7068e-05,-3.7656,-0.865352,-0.0681803,0.391019,
2,0,0,1,0,55429.2,0.3723,0.37199,-0.18158,84,0.631782,10,-6.75459e-05,-3.74093,-0.969206,-0.0608745,0.37207,
2,0,0,1,0,55433,0.353322,0.352975,-0.190699,84,0.631037,10,-6.73119e-05,-3.71965,-1.1186,-0.0527444,0.353059,
2,0,0,1,0,55436.8,0.334345,0.334041,-0.201834,84,0.630251,10,-6.74208e-05,-3.69501,-0.55222,-0.106841,0.334129,
2,0,0,1,0,55440.6,0.315368,0.315031,-0.21354,84,0.629424,10,-6.72718e-05,-3.67052,-0.64989,-0.0907846,0.315125,
2,0,0,1,0,55444.4,0.296391,0.296072,-0.224551,84,0.628551,10,-6.64833e-05,-3.64869,-0.665764,-0.08862,0.296171,
2,0,0,1,0,55448.2,0.277414,0.277105,-0.235808,84,0.627632,10,-6.53434e-05,-3.62744,-0.5982,-0.0986293,0.277208,
2,0,0,1,0,55451.9,0.258437,0.258135,-0.249807,84,0.626667,10,-6.4484e-05,-3.6024,-0.94809,-0.0622304,0.258245,
2,0,0,1,0,55455.7,0.239461,0.239121,-0.259157,84,0.625658,10,-6.197e-05,-3.58644,-0.936023,-0.0630326,0.239236,
2,0,0,0,0,55459.5,0.220483,0.220153,-0.271513,84,0.624605,10,-5.97744e-05,-3.56621,-0.826351,-0.0713982,0.220273,
2,0,0,1,0,55463.3,0.201506,0.201193,-0.284088,84,0.623505,10,-5.71565e-05,-3.54655,-0.578577,-0.101974,0.201318,
2,0,0,0,0,55467.1,0.182529,0.182227,-0.301565,84,0.622348,10,-5.49533e-05,-3.52062,-0.533459,-0.110599,0.18236,
2,0,0,1,0,55470.9,0.163552,0.163207,-0.331961,84,0.621105,10,-5.41785e-05,-3.47891,-0.374882,-0.157383,0.163353,
2,0,0,0,0,55474.7,0.144575,0.144224,-0.412652,84,0.619676,10,-5.95142e-05,-3.38442,-0.124064,-0.475561,0.144406,
2,0,0,1,0,55478.5,0.125598,0.125271,-0.606876,84,0.617702,10,-7.60242e-05,-3.2169,-0.14541,-0.405749,0.125538,
2,0,0,1,0,55482.3,0.10662,0.106306,-0.671346,84,0.615165,10,-7.13678e-05,-3.17305,11.5096,0.00512615,0.106601,
2,0,0,1,0,55486.1,0.0876433,0.087263,-0.653584,84,0.612585,10,-5.70336e-05,-3.1847,0.865069,0.0682027,0.0875505,
2,0,0,1,0,55489.9,0.0686664,0.0683348,-0.61579,84,0.610124,10,-4.20799e-05,-3.21057,0.698269,0.0844947,0.0686058,
2,0,0,1,0,55493.7,0.0496895,0.0493579,-0.572415,84,0.607811,10,-2.82532e-05,-3.24229,0.490174,0.120365,0.0496097,
2,0,0,1,0,55497.5,0.0307126,0.0303895,-0.526949,84,0.605669,10,-1.60137e-05,-3.27823,0.535821,0.110111,0.0306213,
2,0,0,1,0,55501.3,0.0117356,0.0114191,-0.496284,84,0.603681,10,-5.66709e-06,-3.30427,1.52227,0.0387579,0.0116374,
2,0,0,0,0,55503.6,0.000274105,-0.000118942,-0.497346,84,0.602512,10,5.91553e-08,-3.30334, , ,9.98905e-05,

File: 20221101_1-115_003_TrumpetPlot_ParaChange_from10_every3_16_CV_C01_84.csv
mode,ox/red,error,control changes,counter inc.,time/s,control/V,Ewe/V,<I>/mA,cycle number,(Q-Qo)/C,I Range,P/W,log(|I|),Tafel slope mV/dec,alpha_eff,E-IR/V,
2,0,0,1,0,56393.8,2.44065e-05,-0.000439847,-0.0345188,85,0.0000000E+000,10,1.5183e-08,-4.46194, , ,-0.000424659,
2,1,0,1,0,56397.5,0.0187763,0.0184572,0.25883,85,0.000853551,10,4.77728e-06,-3.58699,0.178801,0.329976,0.0183433,
2,1,0,0,0,56401.3,0.0377538,0.0373902,0.321309,85,0.0020057,10,1.20138e-05,-3.49308,0.215999,0.273149,0.0372488,
2,1,0,1,0,56405.1,0.0567309,0.0563799,0.377198,85,0.00338863,10,2.12664e-05,-3.42343,0.37089,0.159077,0.0562139,
2,1,0,0,0,56408.9,0.075708,0.0753792,0.418808,85,0.00495906,10,3.15695e-05,-3.37798,0.585261,0.10081,0.0751949,
2,1,0,1,0,56412.7,0.094685,0.0943191,0.467353,85,0.00667689,10,4.40803e-05,-3.33035,0.281438,0.209638,0.0941135,
2,1,0,0,0,56416.5,0.113662,0.113326,0.557191,85,0.00867528,10,6.31442e-05,-3.254,0.414088,0.142482,0.113081,
2,1,0,1,0,56420.3,0.132639,0.132302,0.584833,85,0.0109188,10,7.73744e-05,-3.23297,-0.476342,-0.123861,0.132044,
2,1,0,1,0,56424.1,0.151617,0.151274,0.398,85,0.0128888,10,6.02069e-05,-3.40012,-0.0903971,-0.652676,0.151099,
2,1,0,1,0,56427.9,0.170594,0.170254,0.31527,85,0.0142399,10,5.3676e-05,-3.50132,-0.39113,-0.150845,0.170115,
2,1,0,1,0,56431.7,0.189571,0.189211,0.298722,85,0.0154443,10,5.65215e-05,-3.52473,-1.56958,-0.0375898,0.18908,
2,1,0,1,0,56435.5,0.208547,0.208246,0.292333,85,0.0166077,10,6.08771e-05,-3.53412,-1.28068,-0.0460692,0.208117,
2,1,0,1,0,56439.3,0.227524,0.227178,0.285603,85,0.0177476,10,6.48829e-05,-3.54424,-1.4861,-0.0397012,0.227053,
2,1,0,1,0,56443.1,0.246501,0.246163,0.282477,85,0.0188712,10,6.95352e-05,-3.54902,-1.19801,-0.0492484,0.246038,
2,1,0,1,0,56446.9,0.265479,0.265136,0.279626,85,0.0199811,10,7.4139e-05,-3.55342,42.534,0.00138713,0.265013,
2,1,0,0,0,56450.7,0.284456,0.284162,0.275115,85,0.0210761,10,7.81772e-05,-3.56049,-2.30213,-0.0256284,0.284041,
2,1,0,1,0,56454.5,0.303433,0.303052,0.270884,85,0.0221542,10,8.20918e-05,-3.56722,-12.762,-0.00462311,0.302932,
2,1,0,0,0,56458.2,0.32241,0.322076,0.268524,85,0.0232176,10,8.64852e-05,-3.57102,-2.52138,-0.0233998,0.321958,
2,1,0,1,0,56462,0.341387,0.341014,0.264396,85,0.0242677,10,9.01626e-05,-3.57775,4.5927,0.0128465,0.340898,
2,1,0,0,0,56465.8,0.360364,0.360051,0.2628,85,0.0253057,10,9.46211e-05,-3.58038,-3.22094,-0.0183177,0.359935,
2,1,0,1,0,56469.6,0.379342,0.37898,0.26079,85,0.0263341,10,9.88342e-05,-3.58371,-1.35729,-0.043469,0.378866,
2,1,0,1,0,56473.4,0.398319,0.397979,0.25853,85,0.027353,10,0.00010289,-3.58749,32.9247,0.00179197,0.397865,
2,1,0,1,0,56477.2,0.417295,0.41699,0.256996,85,0.0283657,10,0.000107165,-3.59007,29.4307,0.00200471,0.416877,
2,1,0,1,0,56481,0.436272,0.435956,0.254927,85,0.0293706,10,0.000111137,-3.59358,8.72755,0.0067602,0.435844,
2,1,0,1,0,56484.8,0.455249,0.454914,0.254481,85,0.0303697,10,0.000115767,-3.59434,1.08656,0.0542999,0.454803,
2,1,0,1,0,56488.6,0.474226,0.473864,0.254832,85,0.0313681,10,0.000120756,-3.59375,1.78559,0.0330422,0.473752,
2,1,0,1,0,56492.4,0.493203,0.492868,0.257102,85,0.0323717,10,0.000126718,-3.58989,3.49076,0.0169018,0.492755,
2,1,0,1,0,56496.2,0.512181,0.51182,0.260931,85,0.0333832,10,0.00013355,-3.58347,2.40387,0.0245437,0.511705,
2,1,0,0,0,56500,0.531158,0.53084,0.265279,85,0.0344094,10,0.000140821,-3.5763,1.85166,0.0318633,0.530723,
2,1,0,1,0,56503.8,0.550135,0.549774,0.273257,85,0.035458,10,0.00015023,-3.56343,1.15498,0.0510832,0.549654,
2,1,0,0,0,56507.6,0.569112,0.568748,0.283848,85,0.0365413,10,0.000161438,-3.54691,0.895848,0.0658594,0.568623,
2,1,0,1,0,56511.4,0.588089,0.587737,0.301428,85,0.0376768,10,0.00017716,-3.52082,0.678837,0.0869134,0.587604,
2,1,0,0,0,56515.2,0.607066,0.606734,0.331077,85,0.0388977,10,0.000200876,-3.48007,0.409541,0.144064,0.606588,
2,1,0,1,0,56519,0.626044,0.625738,0.384806,85,0.0402704,10,0.000240788,-3.41476,0.221081,0.26687,0.625569,
2,1,0,1,0,56522.8,0.64502,0.644697,0.492074,85,0.0419368,10,0.000317238,-3.30797,0.140937,0.418627,0.64448,
2,1,0,1,0,56526.6,0.663997,0.663694,0.707771,85,0.0441913,10,0.000469743,-3.15011,0.102924,0.573239,0.663383,
2,1,0,1,0,56530.4,0.682974,0.682659,1.1246,85,0.0476182,10,0.000767716,-2.949,0.088921,0.66351,0.682164,
2,1,0,1,0,56534.2,0.701951,0.701658,1.83791,85,0.0531636,10,0.00128958,-2.73568,0.087953,0.670813,0.70085,
2,1,0,1,0,56538,0.720928,0.720668,2.90527,85,0.0620772,10,0.00209374,-2.53681,0.0994714,0.593135,0.71939,
2,1,0,1,0,56541.7,0.739905,0.739595,4.34431,85,0.0757341,10,0.00321303,-2.36208,0.110069,0.536026,0.737684,
2,1,0,1,0,56545.5,0.758883,0.758582,6.20605,85,0.0956354,10,0.0047078,-2.20718,0.122876,0.480158,0.755851,
2,1,0,0,0,56549.3,0.77786,0.777514,8.58773,85,0.123552,10,0.00667708,-2.06612,0.12955,0.455424,0.773735,
2,1,0,1,0,56553.1,0.796837,0.796531,11.682,85,0.161765,10,0.00930509,-1.93248,0.1302,0.453148,0.791391,
2,1,0,0,0,56556.9,0.815814,0.815513,15.7441,85,0.213573,10,0.0128395,-1.80288,0.135926,0.43406,0.808586,
2,1,0,1,0,56560.7,0.834791,0.83447,20.6025,85,0.282138,10,0.0171922,-1.68608,0.144776,0.407527,0.825405,
2,1,0,1,0,56564.4,0.846726,0.846429,23.5039,85,0.367369,10,0.0198944,-1.62886,0.110348,0.534673,0.836088,
2,1,0,1,0,56568.2,0.827749,0.827494,17.2624,85,0.444118,10,0.0142846,-1.7629,0.119843,0.492309,0.819899,
2,1,0,1,0,56572,0.808772,0.808481,12.578,85,0.500291,10,0.0101691,-1.90039,0.121218,0.486728,0.802946,
2,1,0,1,0,56575.8,0.789795,0.789481,8.98263,85,0.540851,10,0.00709161,-2.0466,0.116304,0.507291,0.785529,
2,1,0,1,0,56579.6,0.770818,0.770494,6.31454,85,0.569604,10,0.00486532,-2.19966,0.11352,0.51973,0.767715,
2,1,0,1,0,56583.4,0.751841,0.751534,4.32155,85,0.589569,10,0.00324779,-2.36436,0.110425,0.534301,0.749632,
2,1,0,1,0,56587.2,0.732865,0.732548,2.8497,85,0.603039,10,0.00208754,-2.5452,0.0938382,0.628742,0.731294,
2,1,0,1,0,56591,0.713887,0.713582,1.74319,85,0.611616,10,0.00124391,-2.75866,0.0790077,0.746763,0.712815,
2,1,0,0,0,56594.8,0.69491,0.694599,0.961597,85,0.616626,10,0.000667925,-3.01701,0.0649868,0.907877,0.694176,
2,1,0,1,0,56598.6,0.675933,0.675604,0.45542,85,0.619208,10,0.000307684,-3.34159,0.0511826,1.15274,0.675404,
2,1,0,0,0,56602.4,0.656956,0.656635,0.168518,85,0.620306,10,0.000110655,-3.77335,0.0356089,1.65689,0.65656,
2,1,0,1,0,56606.2,0.637979,0.637689,0.023126,85,0.620605,10,1.47472e-05,-4.6359,0.00947151,6.22921,0.637679,
2,0,0,0,0,56610,0.619002,0.618667,-0.0401165,85,0.620527,10,-2.48187e-05,-4.39668,-0.0486103,-1.21373,0.618684,
2,0,0,1,0,56613.8,0.600024,0.599712,-0.0688511,85,0.620284,10,-4.12909e-05,-4.16209,-0.158792,-0.371554,0.599742,
2,0,0,1,0,56617.6,0.581047,0.580714,-0.0825951,85,0.619964,10,-4.79642e-05,-4.08305,-0.275032,-0.214521,0.580751,
2,0,0,1,0,56621.3,0.56207,0.561759,-0.0906611,85,0.619605,10,-5.09297e-05,-4.04258,-0.99544,-0.0592703,0.561799,
2,0,0,1,0,56625.1,0.543093,0.542774,-0.0964464,85,0.61922,10,-5.23486e-05,-4.01571,-1.19518,-0.0493648,0.542817,
2,0,0,1,0,56628.9,0.524116,0.523805,-0.101649,85,0.618814,10,-5.3244e-05,-3.9929,-0.926114,-0.0637071,0.52385,
2,0,0,1,0,56632.7,0.505139,0.50479,-0.106317,85,0.618389,10,-5.36676e-05,-3.9734,-1.49675,-0.0394188,0.504837,
2,0,0,1,0,56636.5,0.486162,0.485848,-0.112329,85,0.617943,10,-5.45749e-05,-3.94951,-0.945858,-0.0623772,0.485898,
2,0,0,1,0,56640.3,0.467185,0.466805,-0.11874,85,0.617472,10,-5.54283e-05,-3.9254,-2.39929,-0.0245906,0.466857,
2,0,0,0,0,56644.1,0.448208,0.44791,-0.126589,85,0.616974,10,-5.67003e-05,-3.8976,-0.996911,-0.0591828,0.447965,
2,0,0,1,0,56647.9,0.429231,0.428886,-0.134127,85,0.616445,10,-5.75252e-05,-3.87248,35.9923,0.00163924,0.428945,
2,0,0,0,0,56651.7,0.410254,0.409895,-0.143626,85,0.615881,10,-5.88717e-05,-3.84277,-1.94496,-0.0303349,0.409958,
2,0,0,1,0,56655.5,0.391277,0.390917,-0.15356,85,0.615282,10,-6.00291e-05,-3.81372,-0.73404,-0.0803771,0.390984,
2,0,0,0,0,56659.3,0.3723,0.371975,-0.163145,85,0.614647,10,-6.06857e-05,-3.78743,-0.745974,-0.0790912,0.372047,
2,0,0,1,0,56663.1,0.353322,0.35294,-0.173228,85,0.613972,10,-6.11392e-05,-3.76138,-1.16212,-0.0507693,0.353016,
2,0,0,1,0,56666.9,0.334345,0.333992,-0.184272,85,0.613255,10,-6.15455e-05,-3.73454,-0.805736,-0.073225,0.334073,
2,0,0,1,0,56670.7,0.315368,0.315013,-0.195308,85,0.612495,10,-6.15244e-05,-3.70928,-0.516977,-0.114125,0.315099,
2,0,0,1,0,56674.5,0.296391,0.296098,-0.207966,85,0.611688,10,-6.15783e-05,-3.68201,-0.971496,-0.0607311,0.29619,
2,0,0,1,0,56678.3,0.277414,0.277107,-0.219658,85,0.610834,10,-6.08687e-05,-3.65825,-0.729419,-0.0808863,0.277204,
2,0,0,1,0,56682.1,0.258437,0.258103,-0.232876,85,0.609932,10,-6.01062e-05,-3.63287,-0.913095,-0.0646154,0.258206,
2,0,0,1,0,56685.9,0.239461,0.239097,-0.244302,85,0.608982,10,-5.84118e-05,-3.61207,-0.784167,-0.0752391,0.239204,
2,0,0,1,0,56689.7,0.220483,0.220176,-0.255434,85,0.607989,10,-5.62403e-05,-3.59272,-0.619181,-0.0952871,0.220288,
2,0,0,0,0,56693.5,0.201506,0.201112,-0.269603,85,0.606948,10,-5.42203e-05,-3.56927,-0.471826,-0.125046,0.20123,
2,0,0,1,0,56697.3,0.182529,0.182201,-0.286831,85,0.605848,10,-5.22609e-05,-3.54237,-0.465542,-0.126734,0.182328,
2,0,0,0,0,56701.1,0.163552,0.163214,-0.316659,85,0.604661,10,-5.16832e-05,-3.49941,-0.29889,-0.197397,0.163353,
2,0,0,1,0,56704.8,0.144575,0.144262,-0.396038,85,0.60329,10,-5.71333e-05,-3.40226,-0.117118,-0.503764,0.144436,
2,0,0,0,0,56708.6,0.125598,0.125261,-0.588074,85,0.601385,10,-7.36626e-05,-3.23057,-0.145268,-0.406146,0.125519,
2,0,0,1,0,56712.4,0.10662,0.106285,-0.658298,85,0.598909,10,-6.99675e-05,-3.18158,71.5265,0.000824869,0.106575,
2,0,0,1,0,56716.2,0.0876433,0.087282,-0.641795,85,0.59638,10,-5.60172e-05,-3.1926,0.851029,0.0693278,0.0875644,
2,0,0,1,0,56720,0.0686664,0.0683466,-0.605571,85,0.593962,10,-4.13887e-05,-3.21784,0.724146,0.0814753,0.068613,
2,0,0,1,0,56723.8,0.0496895,0.0493051,-0.565316,85,0.591682,10,-2.7873e-05,-3.24771,0.588819,0.1002,0.0495539,
2,0,0,1,0,56727.6,0.0307126,0.0303907,-0.521677,85,0.589563,10,-1.58541e-05,-3.2826,0.56316,0.104766,0.0306202,
2,0,0,1,0,56731.4,0.0117356,0.0113862,-0.491856,85,0.587594,10,-5.60037e-06,-3.30816,1.76721,0.033386,0.0116026,
2,0,0,1,0,56733.7,0.000274105,-0.000122521,-0.492104,85,0.586437,10,6.0293e-08,-3.30794, , ,9.4005e-05,