Folder: Figs_alphaMnO2_OER_Tafel_sleope/Figure_codes/Fig_3-5/workspace_calculate_alpha_eff (part 14)

File: 20221101_1-115_003_TrumpetPlot_ParaChange_from10_every3_16_CV_C01_19.csv
mode,ox/red,error,control changes,counter inc.,time/s,control/V,Ewe/V,<I>/mA,cycle number,(Q-Qo)/C,I Range,P/W,log(|I|),Tafel slope mV/dec,alpha_eff,E-IR/V,
2,0,0,0,0,13420.9,2.44065e-05,-0.000439847,-0.0815851,20,0.0000000E+000,10,3.5885e-08,-4.08839, , ,-0.00040395,
2,1,0,1,0,13424.7,0.0187763,0.0184615,0.231484,20,0.000775302,10,4.27353e-06,-3.63548,0.149585,0.394426,0.0183596,
2,1,0,1,0,13428.4,0.0377538,0.0374633,0.299695,20,0.00185276,10,1.12276e-05,-3.52332,0.178366,0.33078,0.0373315,
2,1,0,0,0,13432.2,0.0567309,0.0564319,0.362318,20,0.00318702,10,2.04463e-05,-3.44091,0.302129,0.195281,0.0562725,
2,1,0,1,0,13436,0.075708,0.0753729,0.416584,20,0.00474519,10,3.13991e-05,-3.3803,0.414986,0.142173,0.0751896,
2,1,0,0,0,13439.8,0.0946851,0.0943552,0.477428,20,0.00649427,10,4.50478e-05,-3.32109,0.2231,0.264455,0.0941451,
2,1,0,1,0,13443.6,0.113662,0.113375,0.586257,20,0.008586,10,6.64667e-05,-3.23191,0.30801,0.191552,0.113117,
2,1,0,0,0,13447.4,0.132639,0.132344,0.660313,20,0.0110348,10,8.73886e-05,-3.18025,-8.81687,-0.00669172,0.132054,
2,1,0,1,0,13451.2,0.151617,0.15128,0.445669,20,0.0133027,10,6.7421e-05,-3.35099,-0.0727435,-0.811069,0.151084,
2,1,0,1,0,13455,0.170594,0.17026,0.307202,20,0.0147289,10,5.23042e-05,-3.51258,-0.219248,-0.269102,0.170125,
2,1,0,1,0,13458.8,0.189571,0.189217,0.273912,20,0.0158856,10,5.18289e-05,-3.56239,-0.631817,-0.0933815,0.189097,
2,1,0,1,0,13462.6,0.208547,0.208207,0.260165,20,0.0169604,10,5.4168e-05,-3.58475,-0.837957,-0.0704094,0.208092,
2,1,0,1,0,13466.4,0.227524,0.227211,0.250975,20,0.017993,10,5.70244e-05,-3.60037,-0.851287,-0.0693068,0.227101,
2,1,0,1,0,13470.2,0.246501,0.246191,0.244933,20,0.0189982,10,6.03004e-05,-3.61095,-0.881086,-0.0669628,0.246084,
2,1,0,0,0,13474,0.265479,0.265172,0.241793,20,0.0199848,10,6.41167e-05,-3.61656,-1.48405,-0.039756,0.265065,
2,1,0,1,0,13477.8,0.284456,0.284182,0.237681,20,0.0209557,10,6.75445e-05,-3.62401,-0.916566,-0.0643707,0.284077,
2,1,0,0,0,13481.6,0.303433,0.30313,0.232707,20,0.0219087,10,7.05406e-05,-3.63319,-7.90849,-0.00746034,0.303028,
2,1,0,1,0,13485.4,0.32241,0.322074,0.229869,20,0.0228458,10,7.40348e-05,-3.63852,9.06615,0.00650773,0.321973,
2,1,0,0,0,13489.2,0.341387,0.341119,0.226397,20,0.0237697,10,7.72284e-05,-3.64513,-1.88845,-0.0312426,0.34102,
2,1,0,1,0,13493,0.360364,0.360126,0.22574,20,0.024683,10,8.1295e-05,-3.64639,-1.97482,-0.0298761,0.360027,
2,1,0,1,0,13496.8,0.379342,0.379016,0.221651,20,0.0255867,10,8.40093e-05,-3.65433,-1.61264,-0.036586,0.378919,
2,1,0,1,0,13500.6,0.398319,0.398004,0.220416,20,0.0264824,10,8.77263e-05,-3.65676,18.0716,0.00326479,0.397907,
2,1,0,1,0,13504.4,0.417295,0.417004,0.219494,20,0.0273736,10,9.15299e-05,-3.65858,-1.39291,-0.0423573,0.416907,
2,1,0,1,0,13508.2,0.436272,0.435954,0.220344,20,0.0282628,10,9.60598e-05,-3.6569,6.67347,0.00884098,0.435857,
2,1,0,1,0,13511.9,0.455249,0.454977,0.221612,20,0.0291516,10,0.000100828,-3.65441,3.85528,0.0153037,0.45488,
2,1,0,1,0,13515.7,0.474226,0.473928,0.221968,20,0.030044,10,0.000105197,-3.65371,0.94625,0.0623514,0.473831,
2,1,0,1,0,13519.5,0.493203,0.492903,0.224458,20,0.0309446,10,0.000110636,-3.64887,1.29439,0.0455813,0.492805,
2,1,0,0,0,13523.3,0.512181,0.511885,0.230228,20,0.0318598,10,0.00011785,-3.63784,1.4588,0.0404441,0.511784,
2,1,0,1,0,13527.1,0.531158,0.530899,0.236484,20,0.0327975,10,0.000125549,-3.6262,1.65542,0.0356405,0.530795,
2,1,0,0,0,13530.9,0.550135,0.549817,0.248719,20,0.0337671,10,0.00013675,-3.60429,0.923816,0.0638655,0.549707,
2,1,0,1,0,13534.7,0.569112,0.568848,0.265161,20,0.0347879,10,0.000150836,-3.57649,0.516011,0.114339,0.568731,
2,1,0,0,0,13538.5,0.588089,0.587828,0.292806,20,0.0358912,10,0.00017212,-3.53342,0.373628,0.157911,0.587699,
2,1,0,1,0,13542.3,0.607066,0.606797,0.342715,20,0.0371366,10,0.000207958,-3.46507,0.222816,0.264793,0.606646,
2,1,0,1,0,13546.1,0.626044,0.625791,0.44267,20,0.0386535,10,0.000277019,-3.35392,0.132286,0.446004,0.625596,
2,1,0,1,0,13549.9,0.64502,0.644729,0.654821,20,0.0407351,10,0.000422182,-3.18388,0.0913007,0.646216,0.644441,
2,1,0,1,0,13553.7,0.663997,0.663716,1.11443,20,0.0440405,10,0.000739668,-2.95295,0.0736699,0.80087,0.663226,
2,1,0,1,0,13557.5,0.682974,0.682688,2.03789,20,0.0498936,10,0.00139124,-2.69082,0.0714408,0.825858,0.681791,
2,1,0,1,0,13561.3,0.701951,0.701687,3.63943,20,0.0604828,10,0.00255374,-2.43897,0.0771733,0.764513,0.700086,
2,1,0,1,0,13565.1,0.720928,0.720652,6.00024,20,0.0785925,10,0.00432409,-2.22183,0.0910625,0.647907,0.718012,
2,1,0,1,0,13568.9,0.739905,0.739643,9.05001,20,0.107017,10,0.00669378,-2.04335,0.107809,0.547262,0.735661,
2,1,0,0,0,13572.7,0.758883,0.758613,12.8153,20,0.14831,10,0.00972182,-1.89227,0.120074,0.491364,0.752974,
2,1,0,1,0,13576.5,0.77786,0.777573,17.6702,20,0.205824,10,0.0137399,-1.75276,0.120849,0.488213,0.769798,
2,1,0,0,0,13580.3,0.796837,0.796544,23.901,20,0.284414,10,0.0190382,-1.62158,0.130044,0.453693,0.786027,
2,1,0,1,0,13584.1,0.815814,0.815531,31.3516,20,0.388894,10,0.0255682,-1.50374,0.13954,0.422817,0.801737,
2,1,0,0,0,13587.9,0.834791,0.834544,39.0789,20,0.522632,10,0.0326131,-1.40806,0.187682,0.314361,0.81735,
2,1,0,0,0,13591.6,0.846727,0.846508,42.9237,20,0.679535,10,0.0363352,-1.3673,0.144375,0.408657,0.827621,
2,1,0,1,0,13595.3,0.827749,0.82753,34.1411,20,0.825288,10,0.0282528,-1.46672,0.148934,0.39615,0.812508,
2,1,0,1,0,13599.1,0.808772,0.808523,26.1764,20,0.939381,10,0.0211642,-1.58209,0.130127,0.453402,0.797005,
2,1,0,1,0,13602.9,0.789795,0.789507,19.3737,20,1.02537,10,0.0152956,-1.71279,0.113261,0.520919,0.780982,
2,1,0,1,0,13606.7,0.770818,0.77058,13.7333,20,1.08762,10,0.0105826,-1.86222,0.107098,0.550898,0.764537,
2,1,0,1,0,13610.5,0.751841,0.751537,9.26675,20,1.13082,10,0.00696431,-2.03307,0.0949815,0.621174,0.74746,
2,1,0,1,0,13614.3,0.732865,0.732597,5.90603,20,1.15923,10,0.00432674,-2.2287,0.0841909,0.700788,0.729999,
2,1,0,0,0,13618.1,0.713887,0.713608,3.49083,20,1.17672,10,0.00249108,-2.45707,0.0730292,0.807896,0.712072,
2,1,0,1,0,13621.9,0.69491,0.694678,1.86958,20,1.18661,10,0.00129876,-2.72826,0.0618828,0.953416,0.693855,
2,1,0,0,0,13625.7,0.675933,0.675636,0.878855,20,1.1916,10,0.000593786,-3.05608,0.0513866,1.14816,0.675249,
2,1,0,1,0,13629.5,0.656956,0.656673,0.342909,20,1.19375,10,0.000225179,-3.46482,0.0401308,1.47019,0.656522,
2,1,0,0,0,13633.3,0.637979,0.637689,0.0891246,20,1.19445,10,5.68338e-05,-4.05,0.0233836,2.52314,0.63765,
2,0,0,1,0,13637.1,0.619002,0.618774,-0.022206,20,1.1945,10,-1.37405e-05,-4.65353,-0.0132239,-4.46161,0.618784,
2,0,0,0,0,13640.9,0.600025,0.599717,-0.0686305,20,1.19426,10,-4.11589e-05,-4.16348,-0.0989173,-0.596458,0.599748,
2,0,0,1,0,13644.7,0.581047,0.580781,-0.0924741,20,1.19389,10,-5.37072e-05,-4.03398,-0.222698,-0.264932,0.580822,
2,0,0,1,0,13648.5,0.56207,0.561742,-0.102075,20,1.19347,10,-5.734e-05,-3.99108,-0.789357,-0.0747444,0.561787,
2,0,0,1,0,13652.3,0.543093,0.542804,-0.108542,20,1.19301,10,-5.89169e-05,-3.9644,-1.36878,-0.043104,0.542852,
2,0,0,1,0,13656.1,0.524116,0.523807,-0.113941,20,1.19254,10,-5.96831e-05,-3.94332,-0.963204,-0.0612539,0.523857,
2,0,0,1,0,13659.9,0.505139,0.504813,-0.118446,20,1.19204,10,-5.97932e-05,-3.92648,-0.863481,-0.0683281,0.504865,
2,0,0,1,0,13663.7,0.486162,0.485864,-0.123074,20,1.19153,10,-5.97973e-05,-3.90983,1.66179,0.0355039,0.485918,
2,0,0,1,0,13667.5,0.467185,0.466893,-0.129431,20,1.19099,10,-6.04305e-05,-3.88796,-1.35246,-0.0436242,0.46695,
2,0,0,1,0,13671.3,0.448208,0.447902,-0.136854,20,1.19042,10,-6.12971e-05,-3.86374,-1.19984,-0.0491732,0.447962,
2,0,0,0,0,13675,0.429231,0.428938,-0.145926,20,1.18983,10,-6.25932e-05,-3.83587,-1.22815,-0.0480397,0.429002,
2,0,0,1,0,13678.8,0.410254,0.409939,-0.152562,20,1.18921,10,-6.25409e-05,-3.81655,-1.80425,-0.0327005,0.410006,
2,0,0,0,0,13682.6,0.391277,0.391011,-0.163196,20,1.18854,10,-6.38115e-05,-3.78729,-2.89186,-0.0204021,0.391083,
2,0,0,1,0,13686.4,0.3723,0.371951,-0.172603,20,1.18785,10,-6.41998e-05,-3.76295,-0.745759,-0.079114,0.372026,
2,0,0,1,0,13690.2,0.353322,0.353021,-0.182829,20,1.18711,10,-6.45425e-05,-3.73795,-0.489517,-0.120527,0.353101,
2,0,0,1,0,13694,0.334345,0.334078,-0.19341,20,1.18633,10,-6.46141e-05,-3.71352,-0.486773,-0.121206,0.334163,
2,0,0,1,0,13697.8,0.315368,0.315035,-0.206336,20,1.1855,10,-6.50031e-05,-3.68542,-0.747252,-0.078956,0.315126,
2,0,0,1,0,13701.6,0.296391,0.296053,-0.21861,20,1.18463,10,-6.47203e-05,-3.66033,-0.705205,-0.0836636,0.296149,
2,0,0,1,0,13705.4,0.277414,0.277107,-0.2297,20,1.18371,10,-6.36514e-05,-3.63884,-1.3095,-0.0450553,0.277208,
2,0,0,1,0,13709.2,0.258437,0.258133,-0.242798,20,1.18275,10,-6.26742e-05,-3.61475,-0.949024,-0.0621692,0.25824,
2,0,0,1,0,13713,0.239461,0.239122,-0.254815,20,1.18174,10,-6.09321e-05,-3.59377,-1.18813,-0.049658,0.239234,
2,0,0,0,0,13716.8,0.220483,0.220187,-0.267711,20,1.18068,10,-5.89466e-05,-3.57233,-0.441094,-0.133758,0.220305,
2,0,0,1,0,13720.6,0.201506,0.201161,-0.280567,20,1.17958,10,-5.64394e-05,-3.55196,-0.475564,-0.124063,0.201285,
2,0,0,0,0,13724.4,0.182529,0.182223,-0.303326,20,1.1784,10,-5.52729e-05,-3.51809,-0.36977,-0.159559,0.182356,
2,0,0,1,0,13728.2,0.163552,0.163232,-0.351213,20,1.1771,10,-5.73291e-05,-3.45443,-0.190849,-0.309144,0.163386,
2,0,0,0,0,13732,0.144575,0.144255,-0.495275,20,1.17549,10,-7.14458e-05,-3.30515,-0.0811221,-0.727299,0.144473,
2,0,0,1,0,13735.8,0.125598,0.125276,-0.747361,20,1.17301,10,-9.3626e-05,-3.12647,-0.273659,-0.215596,0.125604,
2,0,0,1,0,13739.6,0.10662,0.106281,-0.748844,20,1.17004,10,-7.95881e-05,-3.12561,0.688869,0.0856476,0.106611,
2,0,0,1,0,13743.4,0.0876433,0.0873149,-0.684289,20,1.16724,10,-5.97486e-05,-3.16476,0.519156,0.113646,0.087616,
2,0,0,1,0,13747.2,0.0686664,0.0683614,-0.634631,20,1.16468,10,-4.33843e-05,-3.19748,0.912543,0.0646545,0.0686407,
2,0,0,1,0,13751,0.0496895,0.0493961,-0.588344,20,1.16228,10,-2.90619e-05,-3.23037,0.579418,0.101826,0.049655,
2,0,0,1,0,13754.8,0.0307126,0.0303969,-0.535159,20,1.16007,10,-1.62672e-05,-3.27152,0.507985,0.116145,0.0306324,
2,0,0,1,0,13758.5,0.0117356,0.0114274,-0.499278,20,1.15803,10,-5.70545e-06,-3.30166,1.19014,0.0495739,0.0116471,
2,0,0,0,0,13760.8,0.000274105,-0.000104626,-0.499725,20,1.15684,10,5.22844e-08,-3.30127, , ,0.000115253,

File: 20221101_1-115_003_TrumpetPlot_ParaChange_from10_every3_16_CV_C01_20.csv
mode,ox/red,error,control changes,counter inc.,time/s,control/V,Ewe/V,<I>/mA,cycle number,(Q-Qo)/C,I Range,P/W,log(|I|),Tafel slope mV/dec,alpha_eff,E-IR/V,
2,0,0,0,0,13790.9,2.44065e-05,-0.00042076,-0.099394,21,0.0000000E+000,10,4.1821e-08,-4.00264, , ,-0.000377027,
2,1,0,1,0,13794.7,0.0187763,0.0184454,0.216668,21,0.000725686,10,3.99653e-06,-3.6642,0.143746,0.410447,0.0183501,
2,1,0,1,0,13798.4,0.0377538,0.037458,0.284912,21,0.0017533,10,1.06722e-05,-3.54529,0.191048,0.308823,0.0373327,
2,1,0,0,0,13802.2,0.0567309,0.0564128,0.349656,21,0.00304155,10,1.97251e-05,-3.45636,0.265932,0.221861,0.0562589,
2,1,0,1,0,13806,0.075708,0.0753813,0.403757,21,0.00455317,10,3.04358e-05,-3.39388,0.46141,0.127869,0.0752037,
2,1,0,0,0,13809.8,0.0946851,0.0943446,0.465287,21,0.00625786,10,4.38974e-05,-3.33228,0.200928,0.293637,0.0941399,
2,1,0,1,0,13813.6,0.113662,0.113364,0.573398,21,0.00830436,10,6.50027e-05,-3.24154,0.326214,0.180863,0.113112,
2,1,0,0,0,13817.4,0.132639,0.132341,0.639984,21,0.0106947,10,8.46962e-05,-3.19383,-2.21192,-0.0266737,0.132059,
2,1,0,1,0,13821.2,0.151617,0.151292,0.427783,21,0.0128903,10,6.47202e-05,-3.36878,-0.073382,-0.804012,0.151104,
2,1,0,1,0,13825,0.170594,0.170268,0.296811,21,0.0142676,10,5.05373e-05,-3.52752,-0.224837,-0.262412,0.170137,
2,1,0,1,0,13828.8,0.189571,0.189296,0.264011,21,0.0153897,10,4.99762e-05,-3.57838,-0.54207,-0.108842,0.189179,
2,1,0,1,0,13832.6,0.208547,0.208283,0.24972,21,0.0164294,10,5.20124e-05,-3.60255,-1.28615,-0.0458734,0.208173,
2,1,0,1,0,13836.4,0.227524,0.227276,0.241355,21,0.0174252,10,5.48542e-05,-3.61734,-0.776929,-0.07594,0.22717,
2,1,0,1,0,13840.2,0.246501,0.246222,0.234162,21,0.0183954,10,5.76558e-05,-3.63048,-0.880171,-0.0670324,0.246119,
2,1,0,0,0,13844,0.265479,0.265139,0.232052,21,0.0193479,10,6.15261e-05,-3.63441,-7.19764,-0.00819713,0.265037,
2,1,0,1,0,13847.8,0.284456,0.284132,0.226833,21,0.0202838,10,6.44505e-05,-3.64429,-2.35983,-0.0250018,0.284032,
2,1,0,0,0,13851.6,0.303433,0.303111,0.222594,21,0.0212029,10,6.74707e-05,-3.65249,-1.26091,-0.0467918,0.303013,
2,1,0,1,0,13855.4,0.32241,0.322123,0.22019,21,0.0221078,10,7.09283e-05,-3.6572,-1.8599,-0.0317221,0.322026,
2,1,0,0,0,13859.2,0.341387,0.341081,0.218043,21,0.0229996,10,7.43704e-05,-3.66146,-3.26443,-0.0180736,0.340985,
2,1,0,1,0,13863,0.360364,0.360067,0.216075,21,0.0238806,10,7.78013e-05,-3.6654,-2.13468,-0.0276388,0.359971,
2,1,0,1,0,13866.8,0.379342,0.379059,0.213477,21,0.0247541,10,8.09202e-05,-3.67065,-1.56855,-0.0376144,0.378965,
2,1,0,1,0,13870.6,0.398319,0.397962,0.211443,21,0.0256205,10,8.41463e-05,-3.67481,30.5965,0.00192832,0.397869,
2,1,0,1,0,13874.4,0.417295,0.417018,0.211078,21,0.026482,10,8.80233e-05,-3.67556,-13.9991,-0.00421457,0.416925,
2,1,0,1,0,13878.2,0.436272,0.435961,0.211418,21,0.0273397,10,9.21702e-05,-3.67486,2.13271,0.0276643,0.435868,
2,1,0,1,0,13881.9,0.455249,0.455007,0.211189,21,0.0281977,10,9.60926e-05,-3.67533,-6.01009,-0.00981682,0.454914,
2,1,0,1,0,13885.7,0.474226,0.473918,0.21376,21,0.0290602,10,0.000101305,-3.67007,0.937059,0.062963,0.473824,
2,1,0,1,0,13889.5,0.493203,0.492917,0.217375,21,0.0299325,10,0.000107148,-3.66279,0.981575,0.0601075,0.492821,
2,1,0,0,0,13893.3,0.512181,0.51188,0.221589,21,0.030821,10,0.000113427,-3.65445,3.04743,0.0193606,0.511782,
2,1,0,1,0,13897.1,0.531158,0.530884,0.229116,21,0.0317305,10,0.000121634,-3.63994,0.889248,0.0663482,0.530783,
2,1,0,0,0,13900.9,0.550135,0.549862,0.239877,21,0.0326724,10,0.0001319,-3.62001,0.940418,0.0627381,0.549757,
2,1,0,1,0,13904.7,0.569112,0.56878,0.255987,21,0.0336644,10,0.0001456,-3.59178,0.40461,0.14582,0.568667,
2,1,0,0,0,13908.5,0.588089,0.587804,0.283478,21,0.0347368,10,0.000166629,-3.54748,0.349472,0.168826,0.587679,
2,1,0,1,0,13912.3,0.607066,0.606798,0.331859,21,0.0359473,10,0.000201372,-3.47905,0.214405,0.275181,0.606652,
2,1,0,1,0,13916.1,0.626044,0.625796,0.429569,21,0.0374243,10,0.000268823,-3.36697,0.137573,0.428864,0.625607,
2,1,0,1,0,13919.9,0.64502,0.644725,0.63665,21,0.039452,10,0.000410464,-3.1961,0.0904207,0.652506,0.644445,
2,1,0,1,0,13923.7,0.663997,0.66371,1.08636,21,0.0426744,10,0.000721027,-2.96403,0.0734222,0.803572,0.663232,
2,1,0,1,0,13927.5,0.682974,0.682655,1.99814,21,0.0484011,10,0.00136404,-2.69937,0.0691544,0.853163,0.681776,
2,1,0,1,0,13931.3,0.701951,0.70167,3.58968,21,0.0588209,10,0.00251877,-2.44494,0.0748871,0.787853,0.70009,
2,1,0,1,0,13935.1,0.720928,0.720643,5.95798,21,0.0767527,10,0.00429357,-2.2249,0.0888891,0.663748,0.718021,
2,1,0,1,0,13938.9,0.739905,0.739643,9.06497,21,0.105093,10,0.00670484,-2.04263,0.104742,0.56329,0.735654,
2,1,0,0,0,13942.7,0.758883,0.758607,12.9316,21,0.146615,10,0.00980997,-1.88835,0.115373,0.511387,0.752917,
2,1,0,1,0,13946.5,0.77786,0.777582,17.9871,21,0.204891,10,0.0139865,-1.74504,0.114478,0.515383,0.769667,
2,1,0,0,0,13950.3,0.796837,0.796557,24.4581,21,0.285059,10,0.0194823,-1.61158,0.120198,0.490858,0.785796,
2,1,0,1,0,13954.1,0.815814,0.815567,32.0392,21,0.39223,10,0.0261301,-1.49432,0.300565,0.196297,0.80147,
2,1,0,0,0,13957.9,0.834791,0.834542,39.5799,21,0.526719,10,0.0330311,-1.40253,0.18979,0.310871,0.817127,
2,1,0,0,0,13961.6,0.846727,0.846513,42.727,21,0.684213,10,0.036169,-1.3693,0.146561,0.402562,0.827713,
2,1,0,1,0,13965.3,0.827749,0.82755,33.9098,21,0.829134,10,0.028062,-1.46968,0.153106,0.385353,0.812629,
2,1,0,1,0,13969.1,0.808772,0.808491,26.2044,21,0.942828,10,0.021186,-1.58163,0.126011,0.468215,0.796961,
2,1,0,1,0,13972.9,0.789795,0.789531,19.2566,21,1.02856,10,0.0152037,-1.71542,0.113473,0.519949,0.781058,
2,1,0,1,0,13976.7,0.770818,0.770563,13.5999,21,1.09046,10,0.0104796,-1.86646,0.10438,0.565244,0.764579,
2,1,0,1,0,13980.5,0.751841,0.751641,9.45256,21,1.13353,10,0.00710493,-2.02445,0.0944466,0.624691,0.747482,
2,1,0,1,0,13984.3,0.732865,0.732581,5.98833,21,1.16244,10,0.00438694,-2.22269,0.083146,0.709595,0.729947,
2,1,0,0,0,13988.1,0.713887,0.713646,3.52557,21,1.18015,10,0.00251601,-2.45277,0.0723454,0.815532,0.712095,
2,1,0,1,0,13991.9,0.69491,0.694586,1.87725,21,1.19012,10,0.00130391,-2.72648,0.0610686,0.966126,0.69376,
2,1,0,0,0,13995.7,0.675933,0.675647,0.877507,21,1.19511,10,0.000592885,-3.05675,0.0517379,1.14036,0.675261,
2,1,0,1,0,13999.5,0.656956,0.656658,0.339381,21,1.19725,10,0.000222857,-3.46931,0.0401444,1.4697,0.656509,
2,1,0,0,0,14003.3,0.637979,0.637735,0.0843676,21,1.19794,10,5.38042e-05,-4.07382,0.0216198,2.72898,0.637698,
2,0,0,1,0,14007.1,0.619002,0.618711,-0.0258043,21,1.19796,10,-1.59654e-05,-4.58831,-0.0159,-3.71069,0.618723,
2,0,0,0,0,14010.9,0.600025,0.599733,-0.0741094,21,1.19771,10,-4.44459e-05,-4.13013,-0.111721,-0.528103,0.599766,
2,0,0,1,0,14014.7,0.581047,0.580724,-0.0960669,21,1.19732,10,-5.57883e-05,-4.01743,-0.310883,-0.189782,0.580766,
2,0,0,1,0,14018.5,0.56207,0.561736,-0.107482,21,1.19688,10,-6.03762e-05,-3.96867,-0.806865,-0.0731226,0.561783,
2,0,0,1,0,14022.3,0.543093,0.542825,-0.114284,21,1.19641,10,-6.20362e-05,-3.94201,-0.79652,-0.0740722,0.542876,
2,0,0,1,0,14026.1,0.524116,0.523826,-0.118546,21,1.19592,10,-6.20973e-05,-3.92611,-0.808994,-0.0729301,0.523878,
2,0,0,1,0,14029.9,0.505139,0.504809,-0.122905,21,1.19541,10,-6.20436e-05,-3.91043,-0.62505,-0.0943925,0.504863,
2,0,0,1,0,14033.7,0.486162,0.485878,-0.127239,21,1.19488,10,-6.18225e-05,-3.89538,-1.54512,-0.0381848,0.485934,
2,0,0,1,0,14037.5,0.467185,0.466913,-0.133511,21,1.19433,10,-6.2338e-05,-3.87448,-0.962982,-0.061268,0.466971,
2,0,0,1,0,14041.3,0.448208,0.44791,-0.139789,21,1.19375,10,-6.2613e-05,-3.85453,-1.8119,-0.0325625,0.447971,
2,0,0,0,0,14045.1,0.429231,0.428922,-0.147606,21,1.19315,10,-6.33114e-05,-3.8309,-2.30085,-0.0256427,0.428987,
2,0,0,1,0,14048.8,0.410254,0.409929,-0.156435,21,1.19251,10,-6.41273e-05,-3.80567,-1.07977,-0.0546411,0.409998,
2,0,0,0,0,14052.6,0.391277,0.390969,-0.167327,21,1.19184,10,-6.54198e-05,-3.77643,-0.517144,-0.114088,0.391043,
2,0,0,1,0,14056.4,0.3723,0.372016,-0.175569,21,1.19113,10,-6.53147e-05,-3.75555,-0.430014,-0.137205,0.372094,
2,0,0,1,0,14060.2,0.353322,0.35305,-0.185776,21,1.19038,10,-6.55885e-05,-3.73101,-0.500764,-0.11782,0.353132,
2,0,0,1,0,14064,0.334345,0.334085,-0.198157,21,1.18958,10,-6.62013e-05,-3.70299,-0.556557,-0.106009,0.334172,
2,0,0,1,0,14067.8,0.315368,0.31504,-0.21007,21,1.18875,10,-6.61804e-05,-3.67764,-0.513519,-0.114894,0.315133,
2,0,0,1,0,14071.6,0.296391,0.296103,-0.22237,21,1.18787,10,-6.58445e-05,-3.65292,-0.697137,-0.0846319,0.296201,
2,0,0,1,0,14075.4,0.277414,0.277139,-0.233703,21,1.18694,10,-6.47682e-05,-3.63134,-0.59313,-0.0994723,0.277242,
2,0,0,1,0,14079.2,0.258437,0.258151,-0.245972,21,1.18596,10,-6.34978e-05,-3.60912,-0.866189,-0.0681145,0.258259,
2,0,0,1,0,14083,0.239461,0.239158,-0.256995,21,1.18494,10,-6.14626e-05,-3.59008,-0.632269,-0.0933148,0.239272,
2,0,0,0,0,14086.8,0.220483,0.220181,-0.269801,21,1.18388,10,-5.94049e-05,-3.56896,-0.76618,-0.0770054,0.2203,
2,0,0,1,0,14090.6,0.201506,0.201216,-0.283001,21,1.18276,10,-5.69442e-05,-3.54821,-0.457675,-0.128912,0.20134,
2,0,0,0,0,14094.4,0.182529,0.182192,-0.305038,21,1.18158,10,-5.55755e-05,-3.51565,-0.367246,-0.160655,0.182326,
2,0,0,1,0,14098.2,0.163552,0.163251,-0.351693,21,1.18027,10,-5.74141e-05,-3.45384,-0.223034,-0.264534,0.163406,
2,0,0,0,0,14102,0.144575,0.144271,-0.496668,21,1.17865,10,-7.16546e-05,-3.30393,-0.0833918,-0.707504,0.144489,
2,0,0,1,0,14105.8,0.125598,0.125273,-0.748021,21,1.17617,10,-9.37071e-05,-3.12609,-0.282078,-0.209162,0.125603,
2,0,0,1,0,14109.6,0.10662,0.106276,-0.748717,21,1.1732,10,-7.95706e-05,-3.12568,0.615819,0.0958074,0.106605,
2,0,0,1,0,14113.4,0.0876433,0.0873204,-0.683287,21,1.1704,10,-5.96649e-05,-3.1654,0.440435,0.133958,0.0876211,
2,0,0,1,0,14117.2,0.0686664,0.068337,-0.633535,21,1.16784,10,-4.32939e-05,-3.19823,0.728034,0.0810402,0.0686157,
2,0,0,1,0,14121,0.0496895,0.0494239,-0.58772,21,1.16545,10,-2.90474e-05,-3.23083,0.554386,0.106424,0.0496825,
2,0,0,1,0,14124.8,0.0307126,0.0304415,-0.534239,21,1.16324,10,-1.62631e-05,-3.27226,0.540474,0.109163,0.0306766,
2,0,0,1,0,14128.5,0.0117356,0.011419,-0.498428,21,1.16121,10,-5.69156e-06,-3.3024,1.04098,0.0566776,0.0116383,
2,0,0,0,0,14130.8,0.000274105,-7.83813e-05,-0.499549,21,1.16003,10,3.91553e-08,-3.30142, , ,0.00014142,