Folder: Figs_alphaMnO2_OER_Tafel_sleope/Figure_codes/Fig_3-5/workspace_calculate_alpha_eff (part 53)

File: 20221101_1-115_003_TrumpetPlot_ParaChange_from10_every3_16_CV_C01_97.csv
mode,ox/red,error,control changes,counter inc.,time/s,control/V,Ewe/V,<I>/mA,cycle number,(Q-Qo)/C,I Range,P/W,log(|I|),Tafel slope mV/dec,alpha_eff,E-IR/V,
2,0,0,0,0,64644.3,2.44065e-05,-0.000287149,-0.107662,98,0.0000000E+000,10,3.09151e-08,-3.96794, , ,-0.000239777,
2,1,0,1,0,64648,0.0187763,0.0184105,0.21122,98,0.000680164,10,3.88866e-06,-3.67527,0.161322,0.365728,0.0183176,
2,1,0,1,0,64651.8,0.0377538,0.0373838,0.273069,98,0.0016493,10,1.02083e-05,-3.56373,0.191851,0.307531,0.0372636,
2,1,0,0,0,64655.6,0.0567309,0.0563598,0.33099,98,0.0028533,10,1.86545e-05,-3.48018,0.278985,0.211481,0.0562141,
2,1,0,1,0,64659.4,0.075708,0.0753898,0.374885,98,0.00425153,10,2.82625e-05,-3.4261,0.421063,0.140122,0.0752249,
2,1,0,0,0,64663.2,0.094685,0.09437,0.425658,98,0.00580913,10,4.01693e-05,-3.37094,0.247001,0.238865,0.0941827,
2,1,0,1,0,64667,0.113662,0.113325,0.515864,98,0.00764441,10,5.84601e-05,-3.28747,0.294197,0.200546,0.113098,
2,1,0,0,0,64670.8,0.132639,0.132348,0.547753,98,0.00973766,10,7.24943e-05,-3.26142,-0.501208,-0.117716,0.132107,
2,1,0,1,0,64674.6,0.151617,0.151279,0.36464,98,0.0115737,10,5.51624e-05,-3.43814,-0.0826214,-0.714101,0.151119,
2,1,0,1,0,64678.4,0.170594,0.170255,0.281322,98,0.012797,10,4.78965e-05,-3.5508,-0.390133,-0.15123,0.170131,
2,1,0,1,0,64682.2,0.189571,0.189242,0.264755,98,0.0138727,10,5.01027e-05,-3.57716,-1.32897,-0.0443953,0.189125,
2,1,0,1,0,64686,0.208547,0.208207,0.258325,98,0.0149089,10,5.37849e-05,-3.58783,-2.39822,-0.0246016,0.208093,
2,1,0,1,0,64689.8,0.227524,0.227183,0.253752,98,0.0159228,10,5.76481e-05,-3.59559,-1.73945,-0.0339188,0.227071,
2,1,0,1,0,64693.6,0.246501,0.24619,0.249749,98,0.0169213,10,6.14857e-05,-3.6025,-1.18247,-0.0498954,0.24608,
2,1,0,0,0,64697.4,0.265479,0.26517,0.246342,98,0.0179041,10,6.53225e-05,-3.60846,-1.41973,-0.0415572,0.265061,
2,1,0,1,0,64701.2,0.284456,0.284169,0.241397,98,0.0188704,10,6.85975e-05,-3.61727,-3.10024,-0.0190308,0.284063,
2,1,0,0,0,64705,0.303433,0.303117,0.237819,98,0.0198203,10,7.20871e-05,-3.62375,-1.15878,-0.0509157,0.303013,
2,1,0,1,0,64708.8,0.32241,0.322106,0.234863,98,0.0207548,10,7.56507e-05,-3.62919,-1.7654,-0.0334201,0.322003,
2,1,0,0,0,64712.6,0.341387,0.341046,0.23168,98,0.0216765,10,7.90134e-05,-3.63511,-4.71855,-0.0125038,0.340944,
2,1,0,1,0,64716.4,0.360364,0.360009,0.229732,98,0.0225875,10,8.27056e-05,-3.63878,-3.43901,-0.0171561,0.359908,
2,1,0,1,0,64720.2,0.379342,0.379031,0.227473,98,0.0234908,10,8.62196e-05,-3.64307,-3.28615,-0.0179541,0.378931,
2,1,0,1,0,64724,0.398319,0.397973,0.226235,98,0.024386,10,9.00357e-05,-3.64544,-8.63976,-0.00682889,0.397874,
2,1,0,1,0,64727.7,0.417295,0.417018,0.225129,98,0.025274,10,9.38827e-05,-3.64757,-5.37976,-0.010967,0.416919,
2,1,0,1,0,64731.5,0.436272,0.435977,0.22367,98,0.0261574,10,9.75147e-05,-3.65039,-19.3934,-0.00304228,0.435878,
2,1,0,1,0,64735.3,0.455249,0.454935,0.224375,98,0.0270392,10,0.000102076,-3.64902,2.34932,0.0251136,0.454836,
2,1,0,1,0,64739.1,0.474226,0.473936,0.224955,98,0.0279216,10,0.000106614,-3.6479,1.83125,0.0322184,0.473837,
2,1,0,1,0,64742.9,0.493203,0.492918,0.227903,98,0.0288094,10,0.000112338,-3.64225,2.05587,0.0286983,0.492818,
2,1,0,0,0,64746.7,0.512181,0.51188,0.231431,98,0.0297074,10,0.000118465,-3.63558,1.1939,0.049418,0.511778,
2,1,0,1,0,64750.5,0.531158,0.530819,0.236391,98,0.0306221,10,0.000125481,-3.62637,1.57117,0.0375515,0.530715,
2,1,0,0,0,64754.3,0.550135,0.549862,0.244151,98,0.0315614,10,0.00013425,-3.61234,1.25226,0.0471149,0.549755,
2,1,0,1,0,64758.1,0.569112,0.568838,0.255708,98,0.0325358,10,0.000145456,-3.59226,0.748144,0.0788619,0.568726,
2,1,0,0,0,64761.9,0.588089,0.58777,0.272989,98,0.0335649,10,0.000160455,-3.56385,0.623102,0.0946876,0.58765,
2,1,0,1,0,64765.7,0.607066,0.606765,0.302798,98,0.0346788,10,0.000183727,-3.51885,0.360829,0.163512,0.606632,
2,1,0,1,0,64769.5,0.626044,0.625727,0.353048,98,0.0359399,10,0.000220912,-3.45217,0.217866,0.270809,0.625572,
2,1,0,1,0,64773.3,0.64502,0.644744,0.455621,98,0.0374801,10,0.000293759,-3.3414,0.146841,0.401794,0.644543,
2,1,0,1,0,64777.1,0.663997,0.663704,0.660487,98,0.0395786,10,0.000438368,-3.18014,0.10042,0.587531,0.663413,
2,1,0,1,0,64780.9,0.682974,0.682692,1.05409,98,0.0427827,10,0.000719622,-2.97712,0.0899009,0.656278,0.682228,
2,1,0,1,0,64784.7,0.701951,0.701666,1.72108,98,0.0479757,10,0.00120762,-2.7642,0.0881687,0.669172,0.700908,
2,1,0,1,0,64788.5,0.720928,0.720619,2.71689,98,0.056318,10,0.00195785,-2.56593,0.0986468,0.598093,0.719424,
2,1,0,1,0,64792.3,0.739905,0.73965,4.063,98,0.0690922,10,0.0030052,-2.39115,0.110104,0.535856,0.737863,
2,1,0,0,0,64796.1,0.758883,0.7586,5.81559,98,0.087722,10,0.00441171,-2.23541,0.121349,0.486203,0.756041,
2,1,0,1,0,64799.9,0.77786,0.777621,8.07617,98,0.113931,10,0.00628019,-2.09279,0.129041,0.457218,0.774067,
2,1,0,0,0,64803.7,0.796837,0.796548,11.0096,98,0.149925,10,0.0087697,-1.95823,0.132123,0.446554,0.791704,
2,1,0,1,0,64807.4,0.815814,0.815486,14.829,98,0.19869,10,0.0120928,-1.82889,0.133441,0.442143,0.808961,
2,1,0,0,0,64811.2,0.834791,0.834573,19.705,98,0.263992,10,0.0164452,-1.70542,0.147255,0.400665,0.825903,
2,1,0,0,0,64814.9,0.846726,0.846488,22.4857,98,0.345676,10,0.0190339,-1.64809,0.100717,0.585801,0.836594,
2,1,0,1,0,64818.7,0.827749,0.827526,16.3827,98,0.418822,10,0.0135571,-1.78561,0.118811,0.496585,0.820318,
2,1,0,1,0,64822.5,0.808772,0.808528,11.8402,98,0.471925,10,0.00957317,-1.92664,0.120116,0.491191,0.803318,
2,1,0,1,0,64826.3,0.789795,0.789497,8.44992,98,0.510084,10,0.00667119,-2.07315,0.117824,0.500746,0.785779,
2,1,0,1,0,64830.1,0.770818,0.770531,5.91996,98,0.537082,10,0.00456151,-2.22768,0.113592,0.519401,0.767926,
2,1,0,1,0,64833.9,0.751841,0.751571,4.0546,98,0.555801,10,0.00304732,-2.39205,0.106705,0.552924,0.749787,
2,1,0,1,0,64837.7,0.732865,0.732593,2.70631,98,0.568409,10,0.00198262,-2.56762,0.116953,0.504477,0.731402,
2,1,0,0,0,64841.5,0.713887,0.713604,1.67829,98,0.57663,10,0.00119763,-2.77513,0.0783989,0.752562,0.712865,
2,1,0,1,0,64845.3,0.69491,0.694689,0.926509,98,0.581459,10,0.000643636,-3.03315,0.0644045,0.916086,0.694282,
2,1,0,0,0,64849.1,0.675933,0.675655,0.433,98,0.583935,10,0.000292559,-3.36351,0.0497892,1.185,0.675465,
2,1,0,1,0,64852.9,0.656956,0.656674,0.148707,98,0.584955,10,9.7652e-05,-3.82767,0.0301635,1.956,0.656608,
2,1,0,0,0,64856.7,0.637979,0.637649,0.00598997,98,0.585185,10,3.8195e-06,-5.22258,0.00776311,7.60005,0.637646,
2,0,0,1,0,64860.5,0.619002,0.61871,-0.058451,98,0.585042,10,-3.61642e-05,-4.23321,-0.0615093,-0.959205,0.618736,
2,0,0,0,0,64864.3,0.600024,0.599711,-0.0867222,98,0.584729,10,-5.20083e-05,-4.06187,-0.271884,-0.217004,0.599749,
2,0,0,1,0,64868.1,0.581047,0.58074,-0.102342,98,0.584339,10,-5.94342e-05,-3.98995,-0.6805,-0.086701,0.580785,
2,0,0,1,0,64871.9,0.56207,0.561779,-0.109255,98,0.583909,10,-6.13773e-05,-3.96156,-1.96117,-0.0300841,0.561827,
2,0,0,1,0,64875.7,0.543093,0.542796,-0.114738,98,0.583456,10,-6.22793e-05,-3.94029,-0.690908,-0.0853949,0.542846,
2,0,0,1,0,64879.5,0.524116,0.5238,-0.119505,98,0.582983,10,-6.25969e-05,-3.92261,-1.65793,-0.0355865,0.523852,
2,0,0,1,0,64883.3,0.505139,0.504815,-0.123056,98,0.582491,10,-6.21207e-05,-3.9099,-0.846081,-0.0697333,0.50487,
2,0,0,1,0,64887.1,0.486162,0.485837,-0.129217,98,0.581981,10,-6.27783e-05,-3.88868,-7.92811,-0.00744187,0.485894,
2,0,0,1,0,64890.8,0.467185,0.466852,-0.134628,98,0.581448,10,-6.28513e-05,-3.87087,-1.57416,-0.0374804,0.466911,
2,0,0,1,0,64894.6,0.448208,0.447936,-0.141724,98,0.58089,10,-6.34833e-05,-3.84856,-0.923797,-0.0638668,0.447998,
2,0,0,0,0,64898.4,0.429231,0.42888,-0.149867,98,0.580303,10,-6.4275e-05,-3.82429,-0.740115,-0.0797174,0.428945,
2,0,0,1,0,64902.2,0.410254,0.40992,-0.159074,98,0.579682,10,-6.52075e-05,-3.7984,-1.58282,-0.0372753,0.40999,
2,0,0,0,0,64906,0.391277,0.390951,-0.167834,98,0.579027,10,-6.56147e-05,-3.77512,-0.798896,-0.0738519,0.391025,
2,0,0,1,0,64909.8,0.3723,0.371962,-0.177655,98,0.578334,10,-6.60811e-05,-3.75042,-1.17594,-0.0501728,0.37204,
2,0,0,1,0,64913.6,0.353322,0.35297,-0.188128,98,0.577603,10,-6.64036e-05,-3.72555,-1.04091,-0.056681,0.353053,
2,0,0,1,0,64917.4,0.334345,0.334024,-0.198435,98,0.57683,10,-6.62819e-05,-3.70238,-0.571076,-0.103314,0.334111,
2,0,0,1,0,64921.2,0.315368,0.315032,-0.209747,98,0.576014,10,-6.6077e-05,-3.6783,-0.776187,-0.0760126,0.315124,
2,0,0,1,0,64925,0.296391,0.296069,-0.221275,98,0.575153,10,-6.55126e-05,-3.65507,-0.542236,-0.108809,0.296166,
2,0,0,1,0,64928.8,0.277414,0.277106,-0.232289,98,0.574247,10,-6.43686e-05,-3.63397,-0.852596,-0.0692005,0.277208,
2,0,0,1,0,64932.6,0.258437,0.258101,-0.245505,98,0.573294,10,-6.33652e-05,-3.60994,-0.707906,-0.0833444,0.258209,
2,0,0,1,0,64936.4,0.239461,0.239127,-0.257695,98,0.572296,10,-6.16217e-05,-3.58889,-0.753231,-0.0783292,0.23924,
2,0,0,0,0,64940.2,0.220483,0.220188,-0.268696,98,0.571254,10,-5.91638e-05,-3.57074,-0.783383,-0.0753144,0.220307,
2,0,0,1,0,64944,0.201506,0.201186,-0.280342,98,0.570166,10,-5.64009e-05,-3.55231,-0.816306,-0.0722768,0.201309,
2,0,0,0,0,64947.8,0.182529,0.182209,-0.297204,98,0.569021,10,-5.41532e-05,-3.52694,-0.50757,-0.11624,0.18234,
2,0,0,1,0,64951.6,0.163552,0.163239,-0.326692,98,0.567791,10,-5.33289e-05,-3.48586,-0.329566,-0.179024,0.163383,
2,0,0,0,0,64955.4,0.144575,0.144219,-0.403634,98,0.566381,10,-5.82115e-05,-3.39401,-0.132312,-0.445914,0.144396,
2,0,0,1,0,64959.2,0.125598,0.125254,-0.592639,98,0.564451,10,-7.42306e-05,-3.22721,-0.149272,-0.395251,0.125515,
2,0,0,1,0,64963,0.10662,0.106335,-0.663535,98,0.561954,10,-7.05571e-05,-3.17814,-5.1659,-0.0114211,0.106627,
2,0,0,1,0,64966.8,0.0876433,0.0872863,-0.648376,98,0.559399,10,-5.65943e-05,-3.18817,0.924932,0.0637884,0.0875715,
2,0,0,1,0,64970.6,0.0686664,0.0683188,-0.611844,98,0.556955,10,-4.18005e-05,-3.21336,0.644356,0.0915642,0.068588,
2,0,0,1,0,64974.3,0.0496895,0.0493676,-0.570195,98,0.554653,10,-2.81492e-05,-3.24398,0.602422,0.097938,0.0496185,
2,0,0,1,0,64978.1,0.0307126,0.0304279,-0.524653,98,0.552516,10,-1.59641e-05,-3.28013,0.564631,0.104493,0.0306587,
2,0,0,1,0,64981.9,0.0117356,0.0114116,-0.496776,98,0.550528,10,-5.669e-06,-3.30384,1.29111,0.045697,0.0116302,
2,0,0,0,0,64984.2,0.000274105,-8.43461e-05,-0.498327,98,0.549357,10,4.20319e-08,-3.30249, , ,0.000134918,

File: 20221101_1-115_003_TrumpetPlot_ParaChange_from10_every3_16_CV_C01_98.csv
mode,ox/red,error,control changes,counter inc.,time/s,control/V,Ewe/V,<I>/mA,cycle number,(Q-Qo)/C,I Range,P/W,log(|I|),Tafel slope mV/dec,alpha_eff,E-IR/V,
2,0,0,0,0,65014.3,2.44065e-05,-0.000382585,-0.104482,99,0.0000000E+000,10,3.99734e-08,-3.98096, , ,-0.000336613,
2,1,0,1,0,65018,0.0187763,0.018454,0.2018,99,0.000651019,10,3.72401e-06,-3.69508,0.14716,0.400925,0.0183652,
2,1,0,1,0,65021.8,0.0377538,0.0374039,0.26417,99,0.00158738,10,9.88101e-06,-3.57812,0.184192,0.320317,0.0372877,
2,1,0,0,0,65025.6,0.0567309,0.0564446,0.323417,99,0.00276202,10,1.82551e-05,-3.49024,0.304187,0.19396,0.0563023,
2,1,0,1,0,65029.4,0.075708,0.075411,0.36863,99,0.00413488,10,2.77987e-05,-3.43341,0.425203,0.138757,0.0752488,
2,1,0,0,0,65033.2,0.094685,0.0943382,0.41972,99,0.00567006,10,3.95956e-05,-3.37704,0.260879,0.226158,0.0941535,
2,1,0,1,0,65037,0.113662,0.113349,0.511799,99,0.00748791,10,5.8012e-05,-3.2909,0.314353,0.187687,0.113124,
2,1,0,0,0,65040.8,0.132639,0.132285,0.54114,99,0.00956589,10,7.15847e-05,-3.26669,-0.556394,-0.10604,0.132047,
2,1,0,1,0,65044.6,0.151617,0.151287,0.355909,99,0.0113802,10,5.38443e-05,-3.44866,-0.0804798,-0.733104,0.15113,
2,1,0,1,0,65048.4,0.170594,0.170279,0.270307,99,0.0125686,10,4.60276e-05,-3.56814,-0.346302,-0.170372,0.17016,
2,1,0,1,0,65052.2,0.189571,0.189256,0.256056,99,0.0136103,10,4.84602e-05,-3.59167,-1.90156,-0.0310271,0.189144,
2,1,0,1,0,65056,0.208547,0.208234,0.248656,99,0.0146151,10,5.17787e-05,-3.6044,-1.94498,-0.0303345,0.208125,
2,1,0,1,0,65059.8,0.227524,0.227201,0.244975,99,0.0155984,10,5.56584e-05,-3.61088,-1.24732,-0.0473013,0.227093,
2,1,0,1,0,65063.6,0.246501,0.246199,0.241631,99,0.0165667,10,5.94893e-05,-3.61685,-1.20793,-0.0488438,0.246092,
2,1,0,0,0,65067.4,0.265479,0.265152,0.23791,99,0.0175214,10,6.30823e-05,-3.62359,-0.959295,-0.0615035,0.265047,
2,1,0,1,0,65071.2,0.284456,0.284165,0.23452,99,0.0184605,10,6.66422e-05,-3.62982,-2.22984,-0.0264593,0.284062,
2,1,0,0,0,65075,0.303433,0.303093,0.23039,99,0.019383,10,6.98296e-05,-3.63754,-1.92011,-0.0307273,0.302992,
2,1,0,1,0,65078.8,0.32241,0.322085,0.227426,99,0.0202912,10,7.32505e-05,-3.64316,-3.29994,-0.0178791,0.321985,
2,1,0,0,0,65082.6,0.341387,0.341086,0.224785,99,0.0211881,10,7.66711e-05,-3.64823,-3.06509,-0.019249,0.340987,
2,1,0,1,0,65086.4,0.360364,0.360043,0.223943,99,0.022075,10,8.06291e-05,-3.64986,-6.5135,-0.00905811,0.359945,
2,1,0,1,0,65090.2,0.379342,0.379014,0.2206,99,0.022953,10,8.36105e-05,-3.65639,-3.65976,-0.0161213,0.378917,
2,1,0,1,0,65094,0.398319,0.398014,0.219255,99,0.0238247,10,8.72663e-05,-3.65905,6.13012,0.0096246,0.397917,
2,1,0,1,0,65097.7,0.417295,0.417008,0.219277,99,0.0246918,10,9.14404e-05,-3.65901,-3.51658,-0.0167777,0.416912,
2,1,0,1,0,65101.5,0.436272,0.435956,0.218143,99,0.0255544,10,9.51006e-05,-3.66126,7.93264,0.00743762,0.43586,
2,1,0,1,0,65105.3,0.455249,0.454953,0.217605,99,0.0264142,10,9.90001e-05,-3.66233,1.55024,0.0380587,0.454857,
2,1,0,1,0,65109.1,0.474226,0.473914,0.219719,99,0.0272761,10,0.000104128,-3.65813,1.14084,0.0517162,0.473817,
2,1,0,1,0,65112.9,0.493203,0.492918,0.221592,99,0.0281442,10,0.000109227,-3.65445,1.03424,0.057047,0.492821,
2,1,0,0,0,65116.7,0.512181,0.511882,0.225795,99,0.0290237,10,0.00011558,-3.64629,2.21401,0.0266484,0.511782,
2,1,0,1,0,65120.5,0.531158,0.530855,0.231532,99,0.029919,10,0.00012291,-3.63539,1.86775,0.0315889,0.530753,
2,1,0,0,0,65124.3,0.550135,0.549875,0.239327,99,0.0308388,10,0.0001316,-3.62101,0.736177,0.0801438,0.54977,
2,1,0,1,0,65128.1,0.569112,0.56879,0.251115,99,0.0317953,10,0.000142832,-3.60013,0.720778,0.081856,0.568679,
2,1,0,0,0,65131.9,0.588089,0.587821,0.268483,99,0.0328063,10,0.00015782,-3.57108,0.646793,0.0912193,0.587703,
2,1,0,1,0,65135.7,0.607066,0.606754,0.297645,99,0.0339031,10,0.000180598,-3.5263,0.334573,0.176344,0.606623,
2,1,0,1,0,65139.5,0.626044,0.62578,0.350683,99,0.0351498,10,0.00021945,-3.45509,0.21834,0.270221,0.625625,
2,1,0,1,0,65143.3,0.64502,0.644733,0.455132,99,0.0366833,10,0.000293439,-3.34186,0.138769,0.425166,0.644533,
2,1,0,1,0,65147.1,0.663997,0.663709,0.665526,99,0.0387916,10,0.000441715,-3.17684,0.0984653,0.599196,0.663416,
2,1,0,1,0,65150.9,0.682974,0.682667,1.06983,99,0.0420367,10,0.000730336,-2.97069,0.0860131,0.685942,0.682196,
2,1,0,1,0,65154.7,0.701951,0.701689,1.75851,99,0.0473285,10,0.00123392,-2.75486,0.0887563,0.664741,0.700915,
2,1,0,1,0,65158.5,0.720928,0.72067,2.78085,99,0.0558587,10,0.00200408,-2.55582,0.0984239,0.599448,0.719447,
2,1,0,1,0,65162.3,0.739905,0.739645,4.16527,99,0.0689437,10,0.00308082,-2.38036,0.109366,0.539474,0.737812,
2,1,0,0,0,65166.1,0.758883,0.758573,5.97319,99,0.0880617,10,0.0045311,-2.22379,0.121817,0.484335,0.755944,
2,1,0,1,0,65169.9,0.77786,0.77758,8.31965,99,0.115023,10,0.0064692,-2.07989,0.128022,0.460858,0.77392,
2,1,0,0,0,65173.7,0.796837,0.796537,11.3861,99,0.152171,10,0.00906946,-1.94362,0.130317,0.452743,0.791527,
2,1,0,1,0,65177.5,0.815814,0.815561,15.3974,99,0.202802,10,0.0125576,-1.81255,0.140805,0.419018,0.808786,
2,1,0,0,0,65181.2,0.834791,0.83455,20.5168,99,0.27075,10,0.0171223,-1.68789,0.152895,0.385885,0.825522,
2,1,0,0,0,65184.9,0.846726,0.846481,23.5085,99,0.355896,10,0.0198995,-1.62877,0.10108,0.583694,0.836138,
2,1,0,1,0,65188.7,0.827749,0.827479,17.0986,99,0.432258,10,0.0141488,-1.76704,0.120485,0.489686,0.819955,
2,1,0,1,0,65192.5,0.808772,0.808512,12.3539,99,0.487768,10,0.00998831,-1.90819,0.117594,0.501724,0.803076,
2,1,0,1,0,65196.3,0.789795,0.789511,8.77931,99,0.527504,10,0.00693137,-2.05654,0.11781,0.500808,0.785648,
2,1,0,1,0,65200.1,0.770818,0.770563,6.15302,99,0.555555,10,0.00474128,-2.21091,0.113214,0.521139,0.767855,
2,1,0,1,0,65203.9,0.751841,0.751521,4.21423,99,0.575017,10,0.00316708,-2.37528,0.106542,0.553771,0.749667,
2,1,0,1,0,65207.7,0.732865,0.732616,2.77287,99,0.588114,10,0.00203145,-2.55707,0.0943273,0.625482,0.731396,
2,1,0,0,0,65211.5,0.713887,0.713601,1.69897,99,0.596467,10,0.00121239,-2.76981,0.0808327,0.729902,0.712853,
2,1,0,1,0,65215.3,0.69491,0.694653,0.933002,99,0.601335,10,0.000648113,-3.03012,0.064508,0.914615,0.694243,
2,1,0,0,0,65219.1,0.675933,0.675662,0.43512,99,0.60383,10,0.000293994,-3.36139,0.0487909,1.20924,0.67547,
2,1,0,1,0,65222.9,0.656956,0.656691,0.147036,99,0.604852,10,9.65571e-05,-3.83258,0.0305432,1.93169,0.656626,
2,0,0,0,0,65226.7,0.637979,0.637664,0.00175712,99,0.605072,10,1.12045e-06,-5.7552,0.0302573,1.94994,0.637663,
2,0,0,1,0,65230.5,0.619002,0.618703,-0.0633522,99,0.604911,10,-3.91962e-05,-4.19824,-0.0705412,-0.83639,0.618731,
2,0,0,0,0,65234.3,0.600024,0.599716,-0.0932375,99,0.604579,10,-5.5916e-05,-4.03041,-0.177834,-0.33177,0.599757,
2,0,0,1,0,65238.1,0.581047,0.580729,-0.106804,99,0.604169,10,-6.20243e-05,-3.97141,-0.435538,-0.135465,0.580776,
2,0,0,1,0,65241.9,0.56207,0.561764,-0.115232,99,0.603719,10,-6.47332e-05,-3.93843,-1.00169,-0.0589003,0.561815,
2,0,0,1,0,65245.7,0.543093,0.542786,-0.12002,99,0.603246,10,-6.51453e-05,-3.92075,-0.973476,-0.0606076,0.542839,
2,0,0,1,0,65249.5,0.524116,0.523796,-0.124758,99,0.602754,10,-6.5348e-05,-3.90393,-1.16931,-0.0504569,0.523851,
2,0,0,1,0,65253.3,0.505139,0.504834,-0.130252,99,0.602243,10,-6.57558e-05,-3.88521,-1.8186,-0.0324426,0.504891,
2,0,0,1,0,65257.1,0.486162,0.485848,-0.135144,99,0.601712,10,-6.56597e-05,-3.8692,-1.54579,-0.0381681,0.485908,
2,0,0,1,0,65260.9,0.467185,0.466889,-0.141197,99,0.601159,10,-6.59234e-05,-3.85017,-0.921942,-0.0639954,0.466951,
2,0,0,1,0,65264.6,0.448208,0.44791,-0.147721,99,0.600581,10,-6.61655e-05,-3.83056,-1.0991,-0.0536801,0.447975,
2,0,0,0,0,65268.4,0.429231,0.428886,-0.155433,99,0.599976,10,-6.66628e-05,-3.80846,-4.37118,-0.0134975,0.428954,
2,0,0,1,0,65272.2,0.410254,0.409951,-0.16376,99,0.599339,10,-6.71336e-05,-3.78579,-1.02244,-0.0577049,0.410023,
2,0,0,0,0,65276,0.391277,0.39097,-0.173396,99,0.598667,10,-6.77926e-05,-3.76096,-0.854301,-0.0690623,0.391046,
2,0,0,1,0,65279.8,0.3723,0.371988,-0.182675,99,0.597959,10,-6.79529e-05,-3.73832,-0.740191,-0.0797092,0.372068,
2,0,0,1,0,65283.6,0.353322,0.353051,-0.192073,99,0.597211,10,-6.78116e-05,-3.71653,-0.566037,-0.104233,0.353135,
2,0,0,1,0,65287.4,0.334345,0.334082,-0.204234,99,0.596421,10,-6.82309e-05,-3.68987,-1.0187,-0.0579167,0.334172,
2,0,0,1,0,65291.2,0.315368,0.315046,-0.214544,99,0.595589,10,-6.75912e-05,-3.66848,-0.846124,-0.0697297,0.31514,
2,0,0,1,0,65295,0.296391,0.296083,-0.226965,99,0.594711,10,-6.72003e-05,-3.64404,-0.864049,-0.0682831,0.296183,
2,0,0,1,0,65298.8,0.277414,0.277098,-0.23799,99,0.593788,10,-6.59465e-05,-3.62344,-0.714422,-0.0825842,0.277203,
2,0,0,1,0,65302.6,0.258437,0.258103,-0.250524,99,0.592818,10,-6.4661e-05,-3.60115,-0.672312,-0.0877568,0.258213,
2,0,0,1,0,65306.4,0.239461,0.239162,-0.262123,99,0.591803,10,-6.26897e-05,-3.5815,-0.854764,-0.0690249,0.239277,
2,0,0,0,0,65310.2,0.220483,0.220136,-0.273356,99,0.590746,10,-6.01756e-05,-3.56327,-0.697795,-0.084552,0.220257,
2,0,0,1,0,65314,0.201506,0.201178,-0.286383,99,0.589641,10,-5.76141e-05,-3.54305,-0.708519,-0.0832722,0.201304,
2,0,0,0,0,65317.8,0.182529,0.182254,-0.303176,99,0.58848,10,-5.52552e-05,-3.51831,-0.572197,-0.103111,0.182388,
2,0,0,1,0,65321.6,0.163552,0.163237,-0.332492,99,0.587233,10,-5.42751e-05,-3.47822,-0.321554,-0.183484,0.163383,
2,0,0,0,0,65325.4,0.144575,0.144236,-0.410402,99,0.585806,10,-5.91946e-05,-3.38679,-0.131535,-0.448549,0.144416,
2,0,0,1,0,65329.2,0.125598,0.125282,-0.598901,99,0.583856,10,-7.50315e-05,-3.22264,-0.149416,-0.39487,0.125545,
2,0,0,1,0,65333,0.10662,0.106276,-0.669355,99,0.581344,10,-7.11364e-05,-3.17434,-3.18168,-0.0185437,0.106571,
2,0,0,1,0,65336.8,0.0876433,0.087348,-0.652125,99,0.578775,10,-5.69618e-05,-3.18567,0.80288,0.0734854,0.0876349,
2,0,0,1,0,65340.6,0.0686664,0.0683115,-0.614816,99,0.576319,10,-4.1999e-05,-3.21125,0.728966,0.0809366,0.068582,
2,0,0,1,0,65344.3,0.0496895,0.0493824,-0.57199,99,0.574009,10,-2.82463e-05,-3.24261,0.58092,0.101563,0.0496341,
2,0,0,1,0,65348.1,0.0307126,0.030379,-0.525682,99,0.57187,10,-1.59697e-05,-3.27928,0.519465,0.113578,0.0306103,
2,0,0,1,0,65351.9,0.0117356,0.011382,-0.497178,99,0.569884,10,-5.65888e-06,-3.30349,2.15142,0.0274237,0.0116007,
2,0,0,0,0,65354.2,0.000274105,-0.000135643,-0.499536,99,0.568713,10,6.77587e-08,-3.30143, , ,8.41525e-05,