Folder: Figs_alphaMnO2_OER_Tafel_sleope/Figure_codes/Fig_3-5/workspace_calculate_alpha_eff (part 34)

File: 20221101_1-115_003_TrumpetPlot_ParaChange_from10_every3_16_CV_C01_59.csv
mode,ox/red,error,control changes,counter inc.,time/s,control/V,Ewe/V,<I>/mA,cycle number,(Q-Qo)/C,I Range,P/W,log(|I|),Tafel slope mV/dec,alpha_eff,E-IR/V,
2,0,0,0,0,39402.6,2.44065e-05,-0.00042076,-0.100666,60,0.0000000E+000,10,4.23563e-08,-3.99712, , ,-0.000376467,
2,1,0,1,0,39406.3,0.0187763,0.0184137,0.207498,60,0.000664951,10,3.8208e-06,-3.68299,0.138333,0.426506,0.0183224,
2,1,0,1,0,39410.1,0.0377538,0.0374188,0.272905,60,0.00162886,10,1.02118e-05,-3.56399,0.1805,0.32687,0.0372987,
2,1,0,0,0,39413.9,0.0567309,0.0564085,0.33498,60,0.00284109,10,1.88958e-05,-3.47498,0.24774,0.238153,0.0562612,
2,1,0,1,0,39417.7,0.075708,0.0754015,0.382318,60,0.00426106,10,2.88273e-05,-3.41758,0.478639,0.123266,0.0752333,
2,1,0,0,0,39421.5,0.094685,0.0943562,0.43594,60,0.00585285,10,4.11337e-05,-3.36057,0.245974,0.239863,0.0941644,
2,1,0,1,0,39425.3,0.113662,0.113392,0.53158,60,0.00774126,10,6.02768e-05,-3.27443,0.338711,0.17419,0.113158,
2,1,0,0,0,39429.1,0.132639,0.132304,0.575442,60,0.00991412,10,7.61333e-05,-3.24,-0.776466,-0.0759853,0.132051,
2,1,0,1,0,39432.9,0.151617,0.151251,0.380723,60,0.0118563,10,5.75846e-05,-3.41939,-0.0745347,-0.791578,0.151083,
2,1,0,1,0,39436.7,0.170594,0.170285,0.281693,60,0.0131082,10,4.79681e-05,-3.55022,-0.328151,-0.179795,0.170161,
2,1,0,1,0,39440.5,0.189571,0.189275,0.260035,60,0.0141783,10,4.9218e-05,-3.58497,-1.22056,-0.0483383,0.18916,
2,1,0,1,0,39444.3,0.208547,0.208267,0.251368,60,0.0151939,10,5.23516e-05,-3.59969,-1.20165,-0.0490993,0.208156,
2,1,0,1,0,39448.1,0.227524,0.227205,0.244223,60,0.0161799,10,5.54886e-05,-3.61221,-0.927964,-0.06358,0.227097,
2,1,0,1,0,39451.9,0.246501,0.246197,0.240609,60,0.017147,10,5.9237e-05,-3.61869,-1.11697,-0.0528213,0.246091,
2,1,0,0,0,39455.7,0.265479,0.265162,0.236733,60,0.0180983,10,6.27726e-05,-3.62574,-0.966656,-0.0610352,0.265058,
2,1,0,1,0,39459.5,0.284456,0.284144,0.232953,60,0.0190336,10,6.61921e-05,-3.63273,-6.15627,-0.00958373,0.284041,
2,1,0,0,0,39463.3,0.303433,0.303139,0.228245,60,0.0199522,10,6.91898e-05,-3.6416,-3.6596,-0.016122,0.303038,
2,1,0,1,0,39467.1,0.32241,0.32209,0.225244,60,0.020857,10,7.2549e-05,-3.64735,-34.3765,-0.00171629,0.321991,
2,1,0,0,0,39470.9,0.341387,0.341065,0.223098,60,0.0217498,10,7.60908e-05,-3.6515,-2.6107,-0.0225993,0.340967,
2,1,0,1,0,39474.7,0.360364,0.360044,0.221059,60,0.0226312,10,7.95908e-05,-3.65549,-2.1655,-0.0272455,0.359947,
2,1,0,1,0,39478.5,0.379342,0.379006,0.218479,60,0.0235035,10,8.2805e-05,-3.66059,-3.874,-0.0152297,0.37891,
2,1,0,1,0,39482.3,0.398319,0.397983,0.2168,60,0.0243697,10,8.62825e-05,-3.66394,-15.4638,-0.00381537,0.397887,
2,1,0,1,0,39486.1,0.417295,0.41696,0.216958,60,0.0252311,10,9.04626e-05,-3.66362,-166.786,-0.000353746,0.416864,
2,1,0,1,0,39489.8,0.436272,0.436021,0.216094,60,0.0260879,10,9.42216e-05,-3.66536,1.7397,0.0339139,0.435926,
2,1,0,1,0,39493.6,0.455249,0.454959,0.216511,60,0.0269434,10,9.85038e-05,-3.66452,1.74223,0.0338646,0.454864,
2,1,0,1,0,39497.4,0.474226,0.473893,0.21787,60,0.0278019,10,0.000103247,-3.6618,2.00924,0.0293643,0.473798,
2,1,0,1,0,39501.2,0.493203,0.492924,0.22075,60,0.0286681,10,0.000108813,-3.6561,1.9582,0.0301297,0.492826,
2,1,0,0,0,39505,0.512181,0.511882,0.224993,60,0.0295458,10,0.00011517,-3.64783,1.51243,0.0390101,0.511783,
2,1,0,1,0,39508.8,0.531158,0.530852,0.230353,60,0.030442,10,0.000122284,-3.63761,1.08515,0.0543702,0.530751,
2,1,0,0,0,39512.6,0.550135,0.549829,0.239088,60,0.0313658,10,0.000131458,-3.62144,1.00383,0.058775,0.549724,
2,1,0,1,0,39516.4,0.569112,0.568799,0.252307,60,0.0323311,10,0.000143512,-3.59807,0.786331,0.075032,0.568688,
2,1,0,0,0,39520.2,0.588089,0.587765,0.272761,60,0.0333574,10,0.00016032,-3.56422,0.425455,0.138675,0.587645,
2,1,0,1,0,39524,0.607066,0.606781,0.308781,60,0.0344872,10,0.000187362,-3.51035,0.306218,0.192673,0.606645,
2,1,0,1,0,39527.8,0.626044,0.625712,0.373553,60,0.0357997,10,0.000233737,-3.42765,0.17071,0.345614,0.625548,
2,1,0,1,0,39531.6,0.64502,0.644763,0.50849,60,0.0374761,10,0.000327856,-3.29372,0.119089,0.495427,0.644539,
2,1,0,1,0,39535.4,0.663997,0.663734,0.785085,60,0.0398993,10,0.000521088,-3.10508,0.0874478,0.674688,0.663389,
2,1,0,1,0,39539.2,0.682974,0.682711,1.32552,60,0.0438336,10,0.000904944,-2.87762,0.0776014,0.760296,0.682128,
2,1,0,1,0,39543,0.701951,0.701648,2.24964,60,0.050515,10,0.00157845,-2.64789,0.0830704,0.710241,0.700658,
2,1,0,1,0,39546.8,0.720928,0.720625,3.60916,60,0.0615213,10,0.00260085,-2.44259,0.0954151,0.618351,0.719037,
2,1,0,1,0,39550.6,0.739905,0.739593,5.42041,60,0.0785415,10,0.00400889,-2.26597,0.110048,0.536131,0.737208,
2,1,0,0,0,39554.4,0.758883,0.758618,7.72674,60,0.103347,10,0.00586164,-2.112,0.124665,0.473269,0.755218,
2,1,0,1,0,39558.2,0.77786,0.777617,10.6555,60,0.138027,10,0.00828592,-1.97243,0.129338,0.45617,0.772929,
2,1,0,0,0,39562,0.796837,0.796563,14.5224,60,0.185463,10,0.011568,-1.83796,0.128203,0.460207,0.790173,
2,1,0,1,0,39565.8,0.815814,0.81553,19.5854,60,0.249889,10,0.0159725,-1.70807,0.134827,0.437599,0.806913,
2,1,0,0,0,39569.6,0.834791,0.834542,25.5619,60,0.335436,10,0.0213325,-1.59241,0.147399,0.400273,0.823295,
2,1,0,0,0,39573.2,0.846726,0.846473,29.0979,60,0.440663,10,0.0246306,-1.53614,0.124313,0.474608,0.83367,
2,1,0,1,0,39577,0.827749,0.827482,21.9364,60,0.53697,10,0.018152,-1.65883,0.123676,0.477054,0.81783,
2,1,0,1,0,39580.8,0.808772,0.808536,16.1892,60,0.608959,10,0.0130896,-1.79077,0.120095,0.491279,0.801412,
2,1,0,1,0,39584.6,0.789795,0.789497,11.7887,60,0.66149,10,0.00930713,-1.92853,0.119993,0.491693,0.78431,
2,1,0,1,0,39588.4,0.770818,0.770558,8.27043,60,0.699214,10,0.00637284,-2.08247,0.110314,0.534837,0.766919,
2,1,0,1,0,39592.2,0.751841,0.751614,5.64117,60,0.725333,10,0.00423998,-2.24863,0.101768,0.579749,0.749131,
2,1,0,1,0,39596,0.732865,0.732599,3.67396,60,0.742791,10,0.00269154,-2.43487,0.0924888,0.637915,0.730983,
2,1,0,0,0,39599.8,0.713887,0.713593,2.23099,60,0.753812,10,0.00159202,-2.6515,0.0774687,0.761598,0.712612,
2,1,0,1,0,39603.6,0.69491,0.694618,1.21613,60,0.760195,10,0.000844745,-2.91502,0.0637058,0.926132,0.694083,
2,1,0,0,0,39607.4,0.675933,0.675641,0.576343,60,0.763453,10,0.000389401,-3.23932,0.0534726,1.10337,0.675388,
2,1,0,1,0,39611.2,0.656956,0.656657,0.210046,60,0.764836,10,0.000137928,-3.67769,0.0358255,1.64687,0.656564,
2,1,0,0,0,39615,0.637979,0.637693,0.0281539,60,0.765209,10,1.79535e-05,-4.55046,0.00907681,6.50008,0.63768,
2,0,0,1,0,39618.8,0.619002,0.618692,-0.0515783,60,0.765108,10,-3.19111e-05,-4.28753,-0.0476744,-1.23756,0.618715,
2,0,0,0,0,39622.6,0.600024,0.599697,-0.0875922,60,0.7648,10,-5.25288e-05,-4.05753,-0.159118,-0.370794,0.599736,
2,0,0,1,0,39626.4,0.581047,0.580731,-0.104608,60,0.764399,10,-6.07488e-05,-3.98044,-0.308917,-0.19099,0.580777,
2,0,0,1,0,39630.2,0.56207,0.561724,-0.11323,60,0.76395,10,-6.3604e-05,-3.94604,-0.717125,-0.0822729,0.561774,
2,0,0,1,0,39634,0.543093,0.542762,-0.119339,60,0.763476,10,-6.47729e-05,-3.92322,12.337,0.00478234,0.542814,
2,0,0,1,0,39637.8,0.524116,0.523759,-0.123397,60,0.762983,10,-6.46305e-05,-3.90869,-84.8626,-0.000695242,0.523814,
2,0,0,1,0,39641.6,0.505139,0.504807,-0.12774,60,0.762471,10,-6.44843e-05,-3.89367,-0.810215,-0.0728202,0.504863,
2,0,0,1,0,39645.4,0.486162,0.485865,-0.132881,60,0.76194,10,-6.45623e-05,-3.87654,-1.33969,-0.0440399,0.485924,
2,0,0,1,0,39649.2,0.467185,0.466863,-0.139606,60,0.761388,10,-6.51767e-05,-3.8551,-1.03326,-0.0571008,0.466924,
2,0,0,1,0,39653,0.448208,0.447894,-0.146017,60,0.760811,10,-6.54002e-05,-3.8356,-0.888162,-0.0664293,0.447958,
2,0,0,0,0,39656.7,0.429231,0.428934,-0.153919,60,0.760205,10,-6.6021e-05,-3.81271,-1.71075,-0.0344877,0.429001,
2,0,0,1,0,39660.5,0.410254,0.409914,-0.162561,60,0.759566,10,-6.66362e-05,-3.78898,-0.766143,-0.0770091,0.409986,
2,0,0,0,0,39664.3,0.391277,0.390991,-0.17136,60,0.758893,10,-6.70002e-05,-3.76609,-2.06405,-0.0285845,0.391067,
2,0,0,1,0,39668.1,0.3723,0.371979,-0.182096,60,0.758182,10,-6.77359e-05,-3.7397,-0.700101,-0.0842736,0.372059,
2,0,0,1,0,39671.9,0.353322,0.353052,-0.191148,60,0.757432,10,-6.7485e-05,-3.71863,-0.948153,-0.0622262,0.353136,
2,0,0,1,0,39675.7,0.334345,0.333986,-0.202427,60,0.756641,10,-6.7608e-05,-3.69373,-0.838408,-0.0703715,0.334076,
2,0,0,1,0,39679.5,0.315368,0.315039,-0.214357,60,0.755804,10,-6.75308e-05,-3.66886,-0.618568,-0.0953816,0.315134,
2,0,0,1,0,39683.3,0.296391,0.296075,-0.226025,60,0.754924,10,-6.69204e-05,-3.64584,-0.694491,-0.0849544,0.296175,
2,0,0,1,0,39687.1,0.277414,0.277112,-0.23756,60,0.753999,10,-6.58308e-05,-3.62423,-0.875736,-0.0673719,0.277217,
2,0,0,1,0,39690.9,0.258437,0.258127,-0.249012,60,0.753027,10,-6.42767e-05,-3.60378,-0.945679,-0.062389,0.258236,
2,0,0,1,0,39694.7,0.239461,0.239168,-0.260557,60,0.752012,10,-6.23168e-05,-3.5841,-0.80373,-0.0734077,0.239283,
2,0,0,0,0,39698.5,0.220483,0.22017,-0.271623,60,0.750953,10,-5.98034e-05,-3.56603,-0.567414,-0.10398,0.22029,
2,0,0,1,0,39702.3,0.201506,0.201201,-0.285682,60,0.749846,10,-5.74795e-05,-3.54412,-0.506701,-0.11644,0.201326,
2,0,0,0,0,39706.1,0.182529,0.18224,-0.304018,60,0.748678,10,-5.54041e-05,-3.5171,-0.49477,-0.119247,0.182373,
2,0,0,1,0,39709.9,0.163552,0.163203,-0.338255,60,0.747415,10,-5.52043e-05,-3.47076,-0.305703,-0.192998,0.163352,
2,0,0,0,0,39713.7,0.144575,0.144263,-0.434583,60,0.745933,10,-6.26943e-05,-3.36193,-0.108391,-0.544324,0.144454,
2,0,0,1,0,39717.5,0.125598,0.125299,-0.650821,60,0.743814,10,-8.15471e-05,-3.18654,-0.176023,-0.335184,0.125585,
2,0,0,1,0,39721.3,0.10662,0.106331,-0.699687,60,0.741135,10,-7.43985e-05,-3.1551,2.46885,0.0238977,0.106639,
2,0,0,1,0,39725.1,0.0876433,0.0873012,-0.668255,60,0.738474,10,-5.83395e-05,-3.17506,0.599302,0.0984479,0.0875952,
2,0,0,1,0,39728.9,0.0686664,0.0683115,-0.623986,60,0.735971,10,-4.26254e-05,-3.20482,0.762786,0.077348,0.068586,
2,0,0,1,0,39732.7,0.0496895,0.0493878,-0.579509,60,0.733628,10,-2.86207e-05,-3.23694,0.541907,0.108875,0.0496428,
2,0,0,1,0,39736.4,0.0307126,0.0303832,-0.530654,60,0.731465,10,-1.6123e-05,-3.27519,0.607129,0.0971787,0.0306167,
2,0,0,1,0,39740.2,0.0117356,0.011402,-0.49917,60,0.729462,10,-5.69154e-06,-3.30175,1.60113,0.036849,0.0116216,
2,0,0,0,0,39742.5,0.000274105,-0.000120135,-0.50001,60,0.728286,10,6.00686e-08,-3.30102, , ,9.98694e-05,

File: 20221101_1-115_003_TrumpetPlot_ParaChange_from10_every3_16_CV_C01_60.csv
mode,ox/red,error,control changes,counter inc.,time/s,control/V,Ewe/V,<I>/mA,cycle number,(Q-Qo)/C,I Range,P/W,log(|I|),Tafel slope mV/dec,alpha_eff,E-IR/V,
2,0,0,1,0,40632.7,2.44065e-05,-0.000401673,-0.0408791,61,0.0000000E+000,10,1.642e-08,-4.3885, , ,-0.000383686,
2,1,0,1,0,40636.5,0.0187763,0.0184563,0.266818,61,0.000887761,10,4.92447e-06,-3.57378,0.179,0.32961,0.0183389,
2,1,0,0,0,40640.3,0.0377538,0.0374209,0.330896,61,0.00207679,10,1.23824e-05,-3.48031,0.243465,0.242335,0.0372753,
2,1,0,1,0,40644.1,0.0567309,0.0563735,0.389052,61,0.00350549,10,2.19322e-05,-3.40999,0.349177,0.168969,0.0562024,
2,1,0,0,0,40647.9,0.075708,0.0753824,0.433536,61,0.00513227,10,3.2681e-05,-3.36297,0.586528,0.100592,0.0751916,
2,1,0,1,0,40651.7,0.094685,0.0943711,0.484807,61,0.0069123,10,4.57518e-05,-3.31443,0.258204,0.228502,0.0941578,
2,1,0,0,0,40655.5,0.113662,0.113324,0.578881,61,0.0089869,10,6.56009e-05,-3.23741,0.343785,0.171619,0.113069,
2,1,0,1,0,40659.2,0.132639,0.132273,0.620332,61,0.0113362,10,8.20533e-05,-3.20738,-0.668474,-0.0882607,0.132,
2,1,0,1,0,40663,0.151617,0.151302,0.420408,61,0.0134328,10,6.36088e-05,-3.37633,-0.0830034,-0.710814,0.151117,
2,1,0,1,0,40666.8,0.170594,0.170275,0.323405,61,0.0148362,10,5.50678e-05,-3.49025,-0.366046,-0.161182,0.170133,
2,1,0,1,0,40670.6,0.189571,0.189276,0.303425,61,0.016066,10,5.74309e-05,-3.51795,-0.745257,-0.0791673,0.189142,
2,1,0,1,0,40674.4,0.208547,0.208233,0.294907,61,0.0172466,10,6.14094e-05,-3.53032,-1.49778,-0.0393917,0.208103,
2,1,0,1,0,40678.2,0.227524,0.227162,0.288498,61,0.0184001,10,6.55359e-05,-3.53986,-0.888589,-0.0663974,0.227035,
2,1,0,1,0,40682,0.246501,0.246165,0.285602,61,0.0195346,10,7.03052e-05,-3.54424,-0.988082,-0.0597117,0.246039,
2,1,0,1,0,40685.8,0.265479,0.265154,0.280626,61,0.020654,10,7.44091e-05,-3.55187,-1.27003,-0.0464554,0.26503,
2,1,0,0,0,40689.6,0.284456,0.284147,0.276311,61,0.0217569,10,7.85128e-05,-3.5586,-2.30342,-0.025614,0.284025,
2,1,0,1,0,40693.4,0.303433,0.303123,0.271785,61,0.0228448,10,8.23842e-05,-3.56577,-10.9477,-0.00538927,0.303003,
2,1,0,0,0,40697.2,0.32241,0.322103,0.267941,61,0.023916,10,8.63045e-05,-3.57196,-10.8778,-0.00542391,0.321985,
2,1,0,1,0,40701,0.341387,0.341074,0.265787,61,0.0249736,10,9.06529e-05,-3.57547,-4.13903,-0.0142546,0.340957,
2,1,0,0,0,40704.8,0.360364,0.360048,0.263106,61,0.0260191,10,9.47309e-05,-3.57987,-2.71452,-0.021735,0.359933,
2,1,0,1,0,40708.6,0.379342,0.379065,0.260354,61,0.0270538,10,9.86913e-05,-3.58444,-36.3071,-0.00162503,0.378951,
2,1,0,1,0,40712.4,0.398319,0.397973,0.258259,61,0.0280807,10,0.00010278,-3.58795,-24.681,-0.0023905,0.39786,
2,1,0,1,0,40716.2,0.417295,0.417007,0.257263,61,0.0291005,10,0.00010728,-3.58962,6.8644,0.00859507,0.416894,
2,1,0,1,0,40720,0.436272,0.435965,0.256156,61,0.0301141,10,0.000111675,-3.5915,4.81305,0.0122583,0.435853,
2,1,0,1,0,40723.8,0.455249,0.45499,0.254621,61,0.031123,10,0.00011585,-3.59411,2.29443,0.0257145,0.454878,
2,1,0,1,0,40727.6,0.474226,0.473925,0.256111,61,0.0321315,10,0.000121377,-3.59157,1.92545,0.0306421,0.473813,
2,1,0,1,0,40731.4,0.493203,0.492908,0.258365,61,0.0331453,10,0.00012735,-3.58777,1.13725,0.0518797,0.492794,
2,1,0,1,0,40735.2,0.512181,0.511896,0.261794,61,0.0341681,10,0.000134011,-3.58204,3.33083,0.0177133,0.51178,
2,1,0,0,0,40739,0.531158,0.530833,0.26742,61,0.0352073,10,0.000141955,-3.57281,2.5774,0.0228913,0.530716,
2,1,0,1,0,40742.7,0.550135,0.549852,0.276,61,0.0362724,10,0.000151759,-3.55909,0.708113,0.0833201,0.54973,
2,1,0,0,0,40746.5,0.569112,0.56881,0.288862,61,0.0373768,10,0.000164308,-3.53931,0.830562,0.0710362,0.568682,
2,1,0,1,0,40750.3,0.588089,0.587782,0.309393,61,0.0385424,10,0.000181856,-3.50949,0.558748,0.105593,0.587646,
2,1,0,0,0,40754.1,0.607066,0.606754,0.343901,61,0.0398089,10,0.000208663,-3.46357,0.320291,0.184207,0.606603,
2,1,0,1,0,40757.9,0.626044,0.625734,0.411562,61,0.0412617,10,0.000257528,-3.38557,0.189859,0.310756,0.625553,
2,1,0,1,0,40761.7,0.64502,0.644706,0.548276,61,0.0430865,10,0.000353477,-3.261,0.12752,0.462673,0.644465,
2,1,0,1,0,40765.5,0.663997,0.663718,0.830557,61,0.0456714,10,0.000551256,-3.08063,0.0913437,0.645912,0.663353,
2,1,0,1,0,40769.3,0.682974,0.682689,1.37976,61,0.0497933,10,0.000941949,-2.8602,0.0824147,0.715891,0.682082,
2,1,0,1,0,40773.1,0.701951,0.701686,2.32096,61,0.0567103,10,0.00162859,-2.63433,0.0861146,0.685133,0.700665,
2,1,0,1,0,40776.9,0.720928,0.720613,3.71657,61,0.0680527,10,0.00267821,-2.42986,0.0957959,0.615893,0.718978,
2,1,0,1,0,40780.7,0.739905,0.739581,5.5883,61,0.0855901,10,0.00413301,-2.25272,0.108385,0.544355,0.737123,
2,1,0,1,0,40784.5,0.758883,0.758632,7.9775,61,0.111195,10,0.00605199,-2.09813,0.121439,0.485839,0.755122,
2,1,0,0,0,40788.3,0.77786,0.777571,11.0066,61,0.147017,10,0.00855839,-1.95835,0.12837,0.45961,0.772728,
2,1,0,1,0,40792.1,0.796837,0.796562,15.0669,61,0.196101,10,0.0120017,-1.82198,0.1224,0.482024,0.789932,
2,1,0,0,0,40795.9,0.815814,0.815531,20.3072,61,0.262922,10,0.0165611,-1.69235,0.131003,0.450371,0.806596,
2,1,0,1,0,40799.7,0.834791,0.834565,26.4045,61,0.35177,10,0.0220362,-1.57832,0.148523,0.397246,0.822947,
2,1,0,1,0,40803.4,0.846726,0.846469,29.983,61,0.46062,10,0.0253797,-1.52312,0.11476,0.514117,0.833276,
2,1,0,1,0,40807.2,0.827749,0.827478,22.6225,61,0.559856,10,0.0187197,-1.64546,0.123718,0.47689,0.817524,
2,1,0,1,0,40811,0.808772,0.808505,16.6993,61,0.633946,10,0.0135015,-1.7773,0.118104,0.499559,0.801157,
2,1,0,1,0,40814.8,0.789795,0.789544,11.9502,61,0.687856,10,0.00943523,-1.92262,0.116662,0.505734,0.784286,
2,1,0,1,0,40818.6,0.770818,0.770533,8.36477,61,0.726066,10,0.00644533,-2.07755,0.107666,0.54799,0.766853,
2,1,0,1,0,40822.4,0.751841,0.751545,5.68041,61,0.752443,10,0.00426909,-2.24562,0.10008,0.589528,0.749046,
2,1,0,1,0,40826.1,0.732865,0.732535,3.69657,61,0.770006,10,0.00270786,-2.4322,0.091421,0.645366,0.730908,
2,1,0,1,0,40829.9,0.713887,0.713673,2.24786,61,0.781096,10,0.00160423,-2.64823,0.0774117,0.762159,0.712684,
2,1,0,0,0,40833.7,0.69491,0.694619,1.23552,61,0.787545,10,0.000858215,-2.90815,0.0655692,0.899813,0.694076,
2,1,0,1,0,40837.5,0.675933,0.675634,0.590547,61,0.790875,10,0.000398994,-3.22875,0.0532585,1.1078,0.675374,
2,1,0,0,0,40841.3,0.656956,0.656663,0.230281,61,0.792324,10,0.000151217,-3.63774,0.0390156,1.51222,0.656562,
2,1,0,1,0,40845.1,0.637979,0.637675,0.050948,61,0.792777,10,3.24882e-05,-4.29287,0.0180554,3.26772,0.637652,
2,0,0,0,0,40848.9,0.619002,0.618702,-0.0290021,61,0.792759,10,-1.79436e-05,-4.53757,-0.0257604,-2.29034,0.618715,
2,0,0,1,0,40852.7,0.600024,0.599722,-0.0637414,61,0.792538,10,-3.82271e-05,-4.19558,-0.118881,-0.496293,0.59975,
2,0,0,1,0,40856.5,0.581047,0.580725,-0.080672,61,0.792224,10,-4.68482e-05,-4.09328,-0.311878,-0.189177,0.580761,
2,0,0,1,0,40860.3,0.56207,0.561768,-0.0897914,61,0.791863,10,-5.04419e-05,-4.04677,-0.727659,-0.0810819,0.561808,
2,0,0,1,0,40864.1,0.543093,0.542754,-0.0951695,61,0.791474,10,-5.16536e-05,-4.0215,-1.44988,-0.0406929,0.542796,
2,0,0,1,0,40867.9,0.524116,0.5238,-0.100364,61,0.791064,10,-5.25708e-05,-3.99842,-1.11085,-0.0531125,0.523845,
2,0,0,1,0,40871.7,0.505139,0.504859,-0.105768,61,0.790633,10,-5.3398e-05,-3.97564,-0.736353,-0.0801246,0.504905,
2,0,0,1,0,40875.5,0.486162,0.485797,-0.111828,61,0.790182,10,-5.43257e-05,-3.95145,-0.780683,-0.0755748,0.485847,
2,0,0,1,0,40879.3,0.467185,0.466878,-0.118164,61,0.789707,10,-5.51683e-05,-3.92751,-0.531602,-0.110985,0.46693,
2,0,0,0,0,40883.1,0.448208,0.44794,-0.125511,61,0.789203,10,-5.62215e-05,-3.90132,-0.78396,-0.0752589,0.447996,
2,0,0,1,0,40886.9,0.429231,0.428925,-0.133872,61,0.78867,10,-5.74212e-05,-3.87331,-1.11766,-0.0527887,0.428984,
2,0,0,0,0,40890.7,0.410254,0.409916,-0.143338,61,0.788104,10,-5.87564e-05,-3.84364,-0.862226,-0.0684275,0.409979,
2,0,0,1,0,40894.5,0.391277,0.390968,-0.15188,61,0.7875,10,-5.93802e-05,-3.8185,-0.474972,-0.124218,0.391035,
2,0,0,0,0,40898.3,0.3723,0.37197,-0.163496,61,0.786858,10,-6.08157e-05,-3.78649,-0.517314,-0.114051,0.372042,
2,0,0,1,0,40902.1,0.353322,0.353016,-0.173941,61,0.786175,10,-6.1404e-05,-3.7596,-0.797174,-0.0740114,0.353092,
2,0,0,1,0,40905.9,0.334345,0.334038,-0.184916,61,0.785448,10,-6.1769e-05,-3.73302,-0.698417,-0.0844767,0.334119,
2,0,0,1,0,40909.6,0.315368,0.315028,-0.196403,61,0.784676,10,-6.18723e-05,-3.70685,-0.718873,-0.082073,0.315114,
2,0,0,1,0,40913.4,0.296391,0.29604,-0.209374,61,0.783859,10,-6.19831e-05,-3.67908,-0.639658,-0.0922368,0.296132,
2,0,0,1,0,40917.2,0.277414,0.277144,-0.220784,61,0.782995,10,-6.11889e-05,-3.65603,-1.0459,-0.0564108,0.277241,
2,0,0,1,0,40921,0.258437,0.258083,-0.233981,61,0.782081,10,-6.03866e-05,-3.63082,-0.72407,-0.0814838,0.258186,
2,0,0,1,0,40924.8,0.239461,0.239151,-0.2462,61,0.781119,10,-5.88789e-05,-3.60871,-0.706199,-0.0835458,0.239259,
2,0,0,1,0,40928.6,0.220483,0.220187,-0.258624,61,0.780112,10,-5.69458e-05,-3.58733,-0.663049,-0.0889829,0.220301,
2,0,0,0,0,40932.4,0.201506,0.2012,-0.271177,61,0.779055,10,-5.45607e-05,-3.56675,-0.597254,-0.0987854,0.201319,
2,0,0,1,0,40936.2,0.182529,0.182234,-0.290762,61,0.777937,10,-5.29867e-05,-3.53646,-0.428043,-0.137837,0.182362,
2,0,0,0,0,40940,0.163552,0.163244,-0.324576,61,0.776725,10,-5.29852e-05,-3.48868,-0.299494,-0.196999,0.163387,
2,0,0,1,0,40943.8,0.144575,0.144205,-0.421197,61,0.775294,10,-6.07386e-05,-3.37551,-0.104958,-0.562129,0.14439,
2,0,0,0,0,40947.6,0.125598,0.125301,-0.637245,61,0.773228,10,-7.98475e-05,-3.19569,-0.166324,-0.354729,0.125581,
2,0,0,1,0,40951.4,0.10662,0.106349,-0.688646,61,0.770598,10,-7.32368e-05,-3.162,2.83583,0.0208052,0.106652,
2,0,0,1,0,40955.2,0.0876433,0.0873149,-0.655933,61,0.76798,10,-5.72727e-05,-3.18314,0.712083,0.0828555,0.0876035,
2,0,0,1,0,40959,0.0686664,0.0683645,-0.615232,61,0.765514,10,-4.206e-05,-3.21096,0.698765,0.0844347,0.0686352,
2,0,0,1,0,40962.8,0.0496895,0.0493357,-0.570452,61,0.7632,10,-2.81437e-05,-3.24378,0.542093,0.108837,0.0495867,
2,0,0,1,0,40966.6,0.0307126,0.030379,-0.525491,61,0.761057,10,-1.59639e-05,-3.27943,0.518032,0.113892,0.0306102,
2,0,0,1,0,40970.4,0.0117356,0.0113817,-0.494959,61,0.759069,10,-5.63349e-06,-3.30543,1.72247,0.034253,0.0115995,
2,0,0,1,0,40972.7,0.000274105,-0.00010224,-0.494928,61,0.757901,10,5.06017e-08,-3.30546, , ,0.000115528,