Folder: Figs_alphaMnO2_OER_Tafel_sleope/Figure_codes/Fig_3-5/workspace_calculate_alpha_eff (part 26)

File: 20221101_1-115_003_TrumpetPlot_ParaChange_from10_every3_16_CV_C01_43.csv
mode,ox/red,error,control changes,counter inc.,time/s,control/V,Ewe/V,<I>/mA,cycle number,(Q-Qo)/C,I Range,P/W,log(|I|),Tafel slope mV/dec,alpha_eff,E-IR/V,
2,0,0,0,0,29181.9,2.44065e-05,-0.000382585,-0.0866734,44,0.0000000E+000,10,3.316e-08,-4.06211, , ,-0.000344449,
2,1,0,1,0,29185.7,0.0187763,0.0184063,0.222999,44,0.000729425,10,4.10461e-06,-3.6517,0.151281,0.390002,0.0183082,
2,1,0,1,0,29189.5,0.0377538,0.0374135,0.290047,44,0.0017631,10,1.08517e-05,-3.53753,0.191382,0.308283,0.0372859,
2,1,0,0,0,29193.3,0.0567309,0.0563979,0.35138,44,0.00304844,10,1.98171e-05,-3.45422,0.273014,0.216106,0.0562433,
2,1,0,1,0,29197.1,0.075708,0.0753898,0.399839,44,0.00454411,10,3.01438e-05,-3.39811,0.446862,0.132032,0.0752139,
2,1,0,0,0,29200.9,0.0946851,0.0943605,0.456561,44,0.00621175,10,4.30813e-05,-3.3405,0.229098,0.257532,0.0941596,
2,1,0,1,0,29204.7,0.113662,0.113365,0.555769,44,0.00819126,10,6.30048e-05,-3.25511,0.32558,0.181215,0.113121,
2,1,0,0,0,29208.5,0.132639,0.132319,0.606462,44,0.0104737,10,8.02463e-05,-3.2172,-1.30552,-0.0451927,0.132052,
2,1,0,1,0,29212.3,0.151617,0.151318,0.405679,44,0.0125332,10,6.13867e-05,-3.39182,-0.0772109,-0.764141,0.15114,
2,1,0,1,0,29216.1,0.170594,0.170258,0.296925,44,0.0138623,10,5.0554e-05,-3.52735,-0.288297,-0.20465,0.170128,
2,1,0,1,0,29219.9,0.189571,0.189262,0.272669,44,0.0149903,10,5.16058e-05,-3.56436,-0.804959,-0.0732957,0.189142,
2,1,0,1,0,29223.6,0.208547,0.208241,0.261525,44,0.0160552,10,5.44602e-05,-3.58249,-1.20694,-0.0488838,0.208126,
2,1,0,1,0,29227.4,0.227524,0.227204,0.253568,44,0.017084,10,5.76115e-05,-3.59591,-0.762404,-0.0773868,0.227092,
2,1,0,1,0,29231.2,0.246501,0.24623,0.248048,44,0.0180881,10,6.10768e-05,-3.60546,-1.19449,-0.0493933,0.24612,
2,1,0,0,0,29235,0.265479,0.265177,0.244019,44,0.0190748,10,6.47083e-05,-3.61258,-1.37608,-0.0428755,0.26507,
2,1,0,1,0,29238.8,0.284456,0.284174,0.24067,44,0.0200445,10,6.83921e-05,-3.61858,-1.5782,-0.0373843,0.284068,
2,1,0,0,0,29242.6,0.303433,0.303126,0.235705,44,0.0209966,10,7.14483e-05,-3.62763,12.8445,0.0045934,0.303022,
2,1,0,1,0,29246.4,0.32241,0.322155,0.232021,44,0.021933,10,7.47468e-05,-3.63447,-4.21871,-0.0139853,0.322053,
2,1,0,0,0,29250.2,0.341387,0.341103,0.229959,44,0.022857,10,7.84396e-05,-3.63835,-4.00485,-0.0147321,0.341002,
2,1,0,1,0,29254,0.360364,0.360065,0.228408,44,0.0237706,10,8.22419e-05,-3.64129,62.1199,0.000949776,0.359965,
2,1,0,1,0,29257.8,0.379342,0.379016,0.225393,44,0.0246749,10,8.54275e-05,-3.64706,-3.1178,-0.0189236,0.378916,
2,1,0,1,0,29261.6,0.398319,0.398026,0.223798,44,0.0255716,10,8.90774e-05,-3.65014,5.7515,0.0102582,0.397928,
2,1,0,1,0,29265.4,0.417295,0.417031,0.221987,44,0.0264622,10,9.25754e-05,-3.65367,3.49027,0.0169041,0.416933,
2,1,0,1,0,29269.2,0.436272,0.435997,0.222293,44,0.0273492,10,9.69193e-05,-3.65307,3.03788,0.0194214,0.435899,
2,1,0,1,0,29273,0.455249,0.45495,0.223011,44,0.0282351,10,0.000101459,-3.65167,1.51441,0.0389591,0.454852,
2,1,0,1,0,29276.8,0.474226,0.473911,0.223735,44,0.0291236,10,0.00010603,-3.65027,1.34427,0.04389,0.473812,
2,1,0,1,0,29280.6,0.493203,0.492889,0.227101,44,0.0300198,10,0.000111936,-3.64378,0.865694,0.0681535,0.492789,
2,1,0,0,0,29284.4,0.512181,0.511904,0.231094,44,0.0309293,10,0.000118298,-3.63621,1.21025,0.0487501,0.511802,
2,1,0,1,0,29288.2,0.531158,0.530873,0.236494,44,0.0318587,10,0.000125548,-3.62618,1.19991,0.0491705,0.530769,
2,1,0,0,0,29292,0.550135,0.549821,0.247127,44,0.0328161,10,0.000135876,-3.60708,0.808752,0.0729519,0.549712,
2,1,0,1,0,29295.8,0.569112,0.568809,0.260528,44,0.0338173,10,0.00014819,-3.58415,0.619759,0.0951982,0.568694,
2,1,0,0,0,29299.6,0.588089,0.587795,0.283148,44,0.034885,10,0.000166433,-3.54799,0.499243,0.118179,0.587671,
2,1,0,1,0,29303.4,0.607066,0.60681,0.32243,44,0.036065,10,0.000195654,-3.49157,0.259072,0.227736,0.606669,
2,1,0,1,0,29307.1,0.626044,0.625794,0.3968,44,0.0374499,10,0.000248315,-3.40143,0.16885,0.349422,0.62562,
2,1,0,1,0,29310.9,0.64502,0.644772,0.551097,44,0.0392512,10,0.000355332,-3.25877,0.114094,0.517118,0.64453,
2,1,0,1,0,29314.7,0.663997,0.663706,0.875209,44,0.0419217,10,0.000580881,-3.05789,0.0812188,0.726432,0.663321,
2,1,0,1,0,29318.5,0.682974,0.682631,1.51413,44,0.046369,10,0.00103359,-2.81984,0.0767497,0.768732,0.681964,
2,1,0,1,0,29322.3,0.701951,0.701668,2.61309,44,0.0540775,10,0.00183352,-2.58285,0.080669,0.731384,0.700518,
2,1,0,1,0,29326.1,0.720928,0.720653,4.24291,44,0.0669569,10,0.00305767,-2.37234,0.0928565,0.635389,0.718786,
2,1,0,1,0,29329.9,0.739905,0.739638,6.40601,44,0.0870353,10,0.00473813,-2.19341,0.108256,0.545004,0.736819,
2,1,0,0,0,29333.7,0.758883,0.758633,9.12359,44,0.116359,10,0.00692146,-2.03983,0.122966,0.479807,0.754619,
2,1,0,1,0,29337.5,0.77786,0.777596,12.5735,44,0.157282,10,0.00977711,-1.90054,0.12641,0.466734,0.772064,
2,1,0,0,0,29341.3,0.796837,0.796582,17.2145,44,0.213399,10,0.0137128,-1.76411,0.127134,0.464076,0.789007,
2,1,0,1,0,29345.1,0.815814,0.815515,23.1131,44,0.28963,10,0.0188491,-1.63614,0.136546,0.432089,0.805346,
2,1,0,0,0,29348.9,0.834791,0.834519,29.8207,44,0.389904,10,0.0248859,-1.52548,0.158682,0.371813,0.821398,
2,1,0,0,0,29352.6,0.846727,0.846472,33.2621,44,0.511344,10,0.0281554,-1.47805,0.120426,0.489927,0.831837,
2,1,0,1,0,29356.4,0.827749,0.827545,25.3974,44,0.621992,10,0.0210175,-1.59521,0.135952,0.433976,0.816371,
2,1,0,1,0,29360.2,0.808772,0.808531,18.9607,44,0.705789,10,0.0153303,-1.72215,0.122297,0.482432,0.800188,
2,1,0,1,0,29364,0.789795,0.78956,13.4922,44,0.76676,10,0.0106529,-1.86992,0.116717,0.505498,0.783623,
2,1,0,1,0,29367.8,0.770818,0.770555,9.50267,44,0.810023,10,0.00732233,-2.02215,0.108031,0.546138,0.766374,
2,1,0,1,0,29371.6,0.751841,0.751545,6.46284,44,0.840016,10,0.00485712,-2.18958,0.100304,0.588212,0.748701,
2,1,0,1,0,29375.4,0.732865,0.732593,4.19215,44,0.859981,10,0.00307114,-2.37756,0.0906685,0.650722,0.730749,
2,1,0,0,0,29379.2,0.713887,0.713612,2.52555,44,0.872515,10,0.00180226,-2.59764,0.0751102,0.785512,0.712501,
2,1,0,1,0,29383,0.69491,0.694643,1.37296,44,0.879728,10,0.000953716,-2.86234,0.0640591,0.921025,0.694039,
2,1,0,0,0,29386.8,0.675933,0.675674,0.645564,44,0.8834,10,0.000436191,-3.19006,0.050574,1.16661,0.67539,
2,1,0,1,0,29390.5,0.656956,0.656691,0.2412,44,0.88496,10,0.000158394,-3.61762,0.0364126,1.62032,0.656585,
2,1,0,0,0,29394.3,0.637979,0.637716,0.0437941,44,0.885415,10,2.79282e-05,-4.35858,0.0141532,4.16866,0.637697,
2,0,0,1,0,29398.1,0.619002,0.618718,-0.0421659,44,0.885356,10,-2.60888e-05,-4.37504,-0.0320779,-1.83927,0.618736,
2,0,0,0,0,29401.9,0.600025,0.599769,-0.0805744,44,0.885075,10,-4.83261e-05,-4.0938,-0.124722,-0.47305,0.599805,
2,0,0,1,0,29405.7,0.581047,0.58074,-0.0983733,44,0.884694,10,-5.71293e-05,-4.00712,-0.358,-0.164805,0.580783,
2,0,0,1,0,29409.5,0.56207,0.561769,-0.107811,44,0.884265,10,-6.05647e-05,-3.96734,-0.570768,-0.10337,0.561816,
2,0,0,1,0,29413.3,0.543093,0.542808,-0.112995,44,0.883808,10,-6.13346e-05,-3.94694,-1.06204,-0.0555532,0.542858,
2,0,0,1,0,29417.1,0.524116,0.523778,-0.118093,44,0.883331,10,-6.18544e-05,-3.92778,-1.17048,-0.0504065,0.52383,
2,0,0,1,0,29420.9,0.505139,0.504828,-0.122065,44,0.882837,10,-6.16216e-05,-3.91341,-1.95989,-0.0301037,0.504882,
2,0,0,1,0,29424.7,0.486162,0.485849,-0.127696,44,0.882323,10,-6.20409e-05,-3.89382,-1.61582,-0.036514,0.485906,
2,0,0,1,0,29428.5,0.467185,0.466838,-0.133606,44,0.881788,10,-6.23722e-05,-3.87418,-1.56883,-0.0376076,0.466897,
2,0,0,1,0,29432.3,0.448208,0.44786,-0.140941,44,0.881227,10,-6.31217e-05,-3.85096,-3.69995,-0.0159462,0.447922,
2,0,0,0,0,29436.1,0.429231,0.428956,-0.148052,44,0.880637,10,-6.35078e-05,-3.82959,-1.24694,-0.047316,0.429021,
2,0,0,1,0,29439.9,0.410254,0.409907,-0.157606,44,0.880015,10,-6.46036e-05,-3.80243,-1.2712,-0.0464128,0.409976,
2,0,0,0,0,29443.7,0.391277,0.390965,-0.16714,44,0.879358,10,-6.53459e-05,-3.77692,-1.01644,-0.0580456,0.391038,
2,0,0,1,0,29447.5,0.3723,0.372016,-0.176296,44,0.878663,10,-6.5585e-05,-3.75376,-0.758698,-0.0777648,0.372094,
2,0,0,1,0,29451.3,0.353322,0.352966,-0.186462,44,0.877927,10,-6.58146e-05,-3.72941,-0.96623,-0.0610621,0.353048,
2,0,0,1,0,29455.1,0.334345,0.334022,-0.198981,44,0.87715,10,-6.64641e-05,-3.70119,-1.04413,-0.0565065,0.33411,
2,0,0,1,0,29458.9,0.315368,0.315021,-0.209119,44,0.876328,10,-6.5877e-05,-3.67961,-0.811913,-0.0726679,0.315114,
2,0,0,1,0,29462.7,0.296391,0.296032,-0.222499,44,0.875462,10,-6.58668e-05,-3.65267,-0.633391,-0.0931494,0.29613,
2,0,0,1,0,29466.5,0.277414,0.277059,-0.234304,44,0.874549,10,-6.49162e-05,-3.63022,-0.963932,-0.0612076,0.277162,
2,0,0,1,0,29470.3,0.258437,0.258147,-0.246359,44,0.87359,10,-6.35968e-05,-3.60843,-0.800837,-0.073673,0.258255,
2,0,0,1,0,29474,0.239461,0.23912,-0.258026,44,0.872584,10,-6.16993e-05,-3.58834,-0.845615,-0.0697717,0.239234,
2,0,0,0,0,29477.8,0.220483,0.220142,-0.269525,44,0.871535,10,-5.93337e-05,-3.5694,-0.0925331,-0.637609,0.22026,
2,0,0,1,0,29481.6,0.201506,0.201188,-0.283303,44,0.870425,10,-5.69972e-05,-3.54775,-0.566656,-0.10412,0.201313,
2,0,0,0,0,29485.4,0.182529,0.182247,-0.303394,44,0.86926,10,-5.52926e-05,-3.51799,-0.405636,-0.145451,0.18238,
2,0,0,1,0,29489.2,0.163552,0.163203,-0.340165,44,0.867994,10,-5.55159e-05,-3.46831,-0.248178,-0.237733,0.163353,
2,0,0,0,0,29493,0.144575,0.144232,-0.451907,44,0.866478,10,-6.51797e-05,-3.34495,-0.0945615,-0.623933,0.144431,
2,0,0,1,0,29496.8,0.125598,0.125295,-0.680933,44,0.864255,10,-8.53172e-05,-3.1669,-0.195696,-0.301489,0.125594,
2,0,0,1,0,29500.6,0.10662,0.106277,-0.718648,44,0.86148,10,-7.63759e-05,-3.14348,1.23161,0.0479049,0.106593,
2,0,0,1,0,29504.4,0.0876433,0.0872971,-0.673088,44,0.858774,10,-5.87586e-05,-3.17193,0.573881,0.102809,0.0875933,
2,0,0,1,0,29508.2,0.0686664,0.0683657,-0.627635,44,0.856251,10,-4.29087e-05,-3.20229,0.605374,0.0974605,0.0686419,
2,0,0,1,0,29512,0.0496895,0.0493781,-0.58295,44,0.853891,10,-2.8785e-05,-3.23437,0.496899,0.118736,0.0496346,
2,0,0,1,0,29515.8,0.0307126,0.0304025,-0.53358,44,0.851709,10,-1.62221e-05,-3.2728,0.480687,0.122741,0.0306372,
2,0,0,1,0,29519.6,0.0117356,0.0113797,-0.501114,44,0.849694,10,-5.70255e-06,-3.30006,1.28382,0.0459567,0.0116002,
2,0,0,0,0,29521.9,0.000274105,-9.26968e-05,-0.500621,44,0.848513,10,4.6406e-08,-3.30049, , ,0.000127576,

File: 20221101_1-115_003_TrumpetPlot_ParaChange_from10_every3_16_CV_C01_44.csv
mode,ox/red,error,control changes,counter inc.,time/s,control/V,Ewe/V,<I>/mA,cycle number,(Q-Qo)/C,I Range,P/W,log(|I|),Tafel slope mV/dec,alpha_eff,E-IR/V,
2,0,0,0,0,29551.9,2.44065e-05,-0.000306236,-0.0962139,45,0.0000000E+000,10,2.94642e-08,-4.01676, , ,-0.000263902,
2,1,0,1,0,29555.7,0.0187763,0.0184868,0.213608,45,0.000694973,10,3.94893e-06,-3.67038,0.133784,0.441011,0.0183928,
2,1,0,1,0,29559.5,0.0377538,0.037388,0.279303,45,0.00169006,10,1.04426e-05,-3.55393,0.19754,0.298674,0.0372651,
2,1,0,0,0,29563.3,0.0567309,0.0563948,0.343169,45,0.00293833,10,1.9353e-05,-3.46449,0.298663,0.197547,0.0562438,
2,1,0,1,0,29567.1,0.075708,0.0754068,0.39081,45,0.00439971,10,2.94697e-05,-3.40803,0.415428,0.142022,0.0752348,
2,1,0,0,0,29570.9,0.0946851,0.0943711,0.447855,45,0.00603633,10,4.22646e-05,-3.34886,0.240637,0.245182,0.094174,
2,1,0,1,0,29574.7,0.113662,0.113339,0.548909,45,0.00798537,10,6.22126e-05,-3.2605,0.334523,0.17637,0.113097,
2,1,0,0,0,29578.5,0.132639,0.132319,0.599062,45,0.0102383,10,7.92671e-05,-3.22253,-1.21831,-0.0484278,0.132055,
2,1,0,1,0,29582.3,0.151617,0.151271,0.395137,45,0.0122656,10,5.97726e-05,-3.40325,-0.0734454,-0.803318,0.151097,
2,1,0,1,0,29586.1,0.170594,0.170236,0.286674,45,0.0135532,10,4.88023e-05,-3.54261,-0.249358,-0.236607,0.17011,
2,1,0,1,0,29589.9,0.189571,0.189218,0.26199,45,0.0146393,10,4.95734e-05,-3.58171,-0.945806,-0.0623807,0.189103,
2,1,0,1,0,29593.6,0.208547,0.208274,0.252157,45,0.015663,10,5.25177e-05,-3.59833,-1.00132,-0.0589219,0.208163,
2,1,0,1,0,29597.4,0.227524,0.227175,0.243934,45,0.0166537,10,5.54158e-05,-3.61273,-0.82771,-0.071281,0.227068,
2,1,0,1,0,29601.2,0.246501,0.246205,0.239446,45,0.0176227,10,5.89529e-05,-3.62079,-0.5953,-0.0991097,0.2461,
2,1,0,0,0,29605,0.265479,0.265156,0.235898,45,0.0185753,10,6.25497e-05,-3.62728,-1.11955,-0.0526998,0.265052,
2,1,0,1,0,29608.8,0.284456,0.284124,0.231976,45,0.0195125,10,6.591e-05,-3.63456,-1.6941,-0.0348267,0.284022,
2,1,0,0,0,29612.6,0.303433,0.303169,0.227412,45,0.0204335,10,6.89442e-05,-3.64319,165.145,0.000357262,0.303069,
2,1,0,1,0,29616.4,0.32241,0.322096,0.225188,45,0.021341,10,7.25322e-05,-3.64745,-5.18949,-0.0113691,0.321996,
2,1,0,0,0,29620.2,0.341387,0.341066,0.22274,45,0.0222354,10,7.59691e-05,-3.6522,-5.73846,-0.0102815,0.340968,
2,1,0,1,0,29624,0.360364,0.360076,0.220835,45,0.0231193,10,7.95173e-05,-3.65593,-2.72058,-0.0216865,0.359979,
2,1,0,1,0,29627.8,0.379342,0.379052,0.218455,45,0.0239954,10,8.2806e-05,-3.66064,6.43891,0.00916304,0.378956,
2,1,0,1,0,29631.6,0.398319,0.398024,0.216847,45,0.0248655,10,8.63102e-05,-3.66385,3.94735,0.0149468,0.397929,
2,1,0,1,0,29635.4,0.417295,0.417012,0.216525,45,0.02573,10,9.02934e-05,-3.66449,4.67583,0.0126181,0.416916,
2,1,0,1,0,29639.2,0.436272,0.435975,0.216265,45,0.0265911,10,9.42861e-05,-3.66501,4.60409,0.0128147,0.43588,
2,1,0,1,0,29643,0.455249,0.454944,0.216287,45,0.0274518,10,9.83985e-05,-3.66497,1.54011,0.0383091,0.454849,
2,1,0,1,0,29646.8,0.474226,0.473929,0.217966,45,0.0283161,10,0.0001033,-3.66161,1.27843,0.0461503,0.473833,
2,1,0,1,0,29650.6,0.493203,0.492947,0.221755,45,0.0291881,10,0.000109313,-3.65413,0.884753,0.0666853,0.492849,
2,1,0,0,0,29654.4,0.512181,0.511866,0.225319,45,0.0300726,10,0.000115333,-3.6472,1.1847,0.0498015,0.511767,
2,1,0,1,0,29658.2,0.531158,0.530843,0.232308,45,0.030977,10,0.000123319,-3.63394,2.25265,0.0261914,0.530741,
2,1,0,0,0,29662,0.550135,0.549869,0.240181,45,0.0319102,10,0.000132068,-3.61946,0.669309,0.0881507,0.549763,
2,1,0,1,0,29665.8,0.569112,0.568854,0.254901,45,0.0328857,10,0.000145001,-3.59363,0.55618,0.106081,0.568742,
2,1,0,0,0,29669.6,0.588089,0.587794,0.277163,45,0.0339275,10,0.000162915,-3.55726,0.416118,0.141787,0.587672,
2,1,0,1,0,29673.4,0.607066,0.606775,0.316546,45,0.0350828,10,0.000192072,-3.49956,0.270979,0.217729,0.606636,
2,1,0,1,0,29677.1,0.626044,0.625785,0.391271,45,0.0364447,10,0.000244852,-3.40752,0.168261,0.350646,0.625613,
2,1,0,1,0,29680.9,0.64502,0.644706,0.544597,45,0.0382222,10,0.000351105,-3.26392,0.111245,0.530361,0.644466,
2,1,0,1,0,29684.7,0.663997,0.663708,0.868742,45,0.0408683,10,0.000576591,-3.06111,0.0826074,0.714222,0.663326,
2,1,0,1,0,29688.5,0.682974,0.682695,1.50728,45,0.0452912,10,0.00102901,-2.82181,0.07773,0.759037,0.682032,
2,1,0,1,0,29692.3,0.701951,0.701683,2.6022,45,0.0529652,10,0.00182592,-2.58466,0.0827771,0.712757,0.700538,
2,1,0,1,0,29696.1,0.720928,0.720675,4.21826,45,0.0657761,10,0.00304,-2.37487,0.0947744,0.622531,0.718819,
2,1,0,1,0,29699.9,0.739905,0.739648,6.36834,45,0.0857244,10,0.00471033,-2.19597,0.109817,0.537258,0.736846,
2,1,0,0,0,29703.7,0.758883,0.758593,9.07274,45,0.114871,10,0.00688252,-2.04226,0.12281,0.480418,0.754601,
2,1,0,1,0,29707.5,0.77786,0.77758,12.525,45,0.155587,10,0.00973923,-1.90222,0.12953,0.455493,0.772069,
2,1,0,0,0,29711.3,0.796837,0.79659,17.0952,45,0.211348,10,0.0136178,-1.76713,0.12418,0.475116,0.789068,
2,1,0,1,0,29715.1,0.815814,0.81558,22.9753,45,0.287122,10,0.0187382,-1.63874,0.137686,0.428512,0.805471,
2,1,0,0,0,29718.9,0.834791,0.834555,29.753,45,0.387062,10,0.0248306,-1.52647,0.149922,0.393538,0.821464,
2,1,0,0,0,29722.6,0.846727,0.846474,33.5342,45,0.508591,10,0.0283858,-1.47451,0.123908,0.476158,0.831719,
2,1,0,1,0,29726.4,0.827749,0.827513,25.3243,45,0.61956,10,0.0209562,-1.59646,0.131682,0.448049,0.816371,
2,1,0,1,0,29730.2,0.808772,0.808505,18.9288,45,0.703086,10,0.015304,-1.72288,0.123026,0.479573,0.800176,
2,1,0,1,0,29734,0.789795,0.789532,13.6997,45,0.764558,10,0.0108163,-1.86329,0.10724,0.550167,0.783505,
2,1,0,1,0,29737.8,0.770818,0.770527,9.54891,45,0.808186,10,0.00735769,-2.02005,0.107259,0.550072,0.766325,
2,1,0,1,0,29741.6,0.751841,0.751575,6.49455,45,0.83829,10,0.00488114,-2.18745,0.109915,0.53678,0.748718,
2,1,0,1,0,29745.4,0.732865,0.732591,4.22584,45,0.858449,10,0.00309581,-2.37409,0.0902323,0.653868,0.730732,
2,1,0,0,0,29749.2,0.713887,0.713601,2.53893,45,0.871066,10,0.00181178,-2.59535,0.0763904,0.772348,0.712484,
2,1,0,1,0,29753,0.69491,0.694616,1.37838,45,0.878312,10,0.000957448,-2.86063,0.0634021,0.930569,0.69401,
2,1,0,0,0,29756.8,0.675933,0.675655,0.645633,45,0.881993,10,0.000436226,-3.19001,0.0496217,1.189,0.675371,
2,1,0,1,0,29760.5,0.656956,0.656691,0.238985,45,0.883548,10,0.000156939,-3.62163,0.0365953,1.61223,0.656586,
2,1,0,0,0,29764.3,0.637979,0.637706,0.040293,45,0.88399,10,2.56951e-05,-4.39477,0.012764,4.62237,0.637689,
2,0,0,1,0,29768.1,0.619002,0.618694,-0.0463737,45,0.883915,10,-2.86912e-05,-4.33373,-0.0366329,-1.61058,0.618715,
2,0,0,0,0,29771.9,0.600025,0.599729,-0.0850689,45,0.883616,10,-5.10183e-05,-4.07023,-0.194758,-0.30294,0.599766,
2,0,0,1,0,29775.7,0.581047,0.580714,-0.102474,45,0.883217,10,-5.95083e-05,-3.98938,-0.323656,-0.182292,0.58076,
2,0,0,1,0,29779.5,0.56207,0.561809,-0.112509,45,0.882769,10,-6.32087e-05,-3.94881,-1.3887,-0.0424858,0.561858,
2,0,0,1,0,29783.3,0.543093,0.542777,-0.117553,45,0.882294,10,-6.3805e-05,-3.92977,-0.838078,-0.0703992,0.542828,
2,0,0,1,0,29787.1,0.524116,0.523744,-0.122549,45,0.881799,10,-6.41844e-05,-3.91169,9.27908,0.00635839,0.523798,
2,0,0,1,0,29790.9,0.505139,0.504821,-0.126562,45,0.881289,10,-6.38911e-05,-3.8977,-1.07119,-0.0550787,0.504876,
2,0,0,1,0,29794.7,0.486162,0.485822,-0.131443,45,0.880757,10,-6.38579e-05,-3.88126,-1.14127,-0.0516968,0.485879,
2,0,0,1,0,29798.5,0.467185,0.466888,-0.13797,45,0.880203,10,-6.44167e-05,-3.86021,-1.71068,-0.0344892,0.466949,
2,0,0,1,0,29802.3,0.448208,0.447877,-0.144499,45,0.879626,10,-6.47179e-05,-3.84013,-1.27231,-0.0463723,0.44794,
2,0,0,0,0,29806.1,0.429231,0.428918,-0.152376,45,0.879019,10,-6.53568e-05,-3.81708,-1.25387,-0.0470543,0.428985,
2,0,0,1,0,29809.9,0.410254,0.409941,-0.16212,45,0.87838,10,-6.64595e-05,-3.79016,-3.99855,-0.0147554,0.410012,
2,0,0,0,0,29813.7,0.391277,0.390942,-0.171545,45,0.877706,10,-6.70644e-05,-3.76562,-0.779406,-0.0756986,0.391018,
2,0,0,1,0,29817.5,0.3723,0.371982,-0.180538,45,0.876994,10,-6.7157e-05,-3.74343,-0.560069,-0.105344,0.372062,
2,0,0,1,0,29821.3,0.353322,0.353002,-0.190347,45,0.876243,10,-6.71929e-05,-3.72045,-0.621478,-0.094935,0.353085,
2,0,0,1,0,29825.1,0.334345,0.334053,-0.201899,45,0.87545,10,-6.74451e-05,-3.69487,-1.28958,-0.0457513,0.334142,
2,0,0,1,0,29828.9,0.315368,0.315024,-0.214369,45,0.874614,10,-6.75312e-05,-3.66884,-0.786483,-0.0750175,0.315118,
2,0,0,1,0,29832.7,0.296391,0.296107,-0.225821,45,0.873732,10,-6.68673e-05,-3.64623,-0.834567,-0.0706954,0.296207,
2,0,0,1,0,29836.5,0.277414,0.277111,-0.237227,45,0.872804,10,-6.57381e-05,-3.62484,-0.712257,-0.0828352,0.277215,
2,0,0,1,0,29840.3,0.258437,0.258151,-0.249723,45,0.871829,10,-6.44663e-05,-3.60254,-0.897585,-0.0657319,0.258261,
2,0,0,1,0,29844,0.239461,0.239155,-0.261581,45,0.870808,10,-6.25585e-05,-3.58239,-0.733102,-0.0804799,0.23927,
2,0,0,0,0,29847.8,0.220483,0.220162,-0.272084,45,0.869745,10,-5.99025e-05,-3.5653,-0.647832,-0.0910729,0.220282,
2,0,0,1,0,29851.6,0.201506,0.201174,-0.287141,45,0.868632,10,-5.77654e-05,-3.5419,-0.611421,-0.0964965,0.201301,
2,0,0,0,0,29855.4,0.182529,0.182155,-0.306079,45,0.867456,10,-5.57538e-05,-3.51417,-0.489832,-0.12045,0.182289,
2,0,0,1,0,29859.2,0.163552,0.163239,-0.343342,45,0.866178,10,-5.60468e-05,-3.46427,-0.274232,-0.215146,0.16339,
2,0,0,0,0,29863,0.144575,0.144277,-0.452991,45,0.864657,10,-6.53562e-05,-3.34391,-0.0970859,-0.60771,0.144476,
2,0,0,1,0,29866.8,0.125598,0.125293,-0.681507,45,0.862433,10,-8.53877e-05,-3.16653,-0.195883,-0.301201,0.125592,
2,0,0,1,0,29870.6,0.10662,0.106278,-0.718999,45,0.859659,10,-7.64137e-05,-3.14327,1.27545,0.0462581,0.106594,
2,0,0,1,0,29874.4,0.0876433,0.087336,-0.674389,45,0.856949,10,-5.88984e-05,-3.17109,0.600184,0.0983031,0.0876328,
2,0,0,1,0,29878.2,0.0686664,0.0683231,-0.629399,45,0.854422,10,-4.30025e-05,-3.20107,0.711135,0.0829659,0.0686001,
2,0,0,1,0,29882,0.0496895,0.049357,-0.58312,45,0.852058,10,-2.87811e-05,-3.23424,0.566853,0.104084,0.0496136,
2,0,0,1,0,29885.8,0.0307126,0.0304151,-0.534237,45,0.849875,10,-1.62489e-05,-3.27227,0.489677,0.120488,0.0306502,
2,0,0,1,0,29889.6,0.0117356,0.0114328,-0.501209,45,0.847861,10,-5.73021e-06,-3.29998,2.54994,0.0231378,0.0116533,
2,0,0,0,0,29891.9,0.000274105,-9.74687e-05,-0.501484,45,0.846679,10,4.8879e-08,-3.29974, , ,0.000123184,