Folder: Figs_alphaMnO2_OER_Tafel_sleope/Figure_codes/Fig_3-5/workspace_calculate_alpha_eff (part 47)

File: 20221101_1-115_003_TrumpetPlot_ParaChange_from10_every3_16_CV_C01_85.csv
mode,ox/red,error,control changes,counter inc.,time/s,control/V,Ewe/V,<I>/mA,cycle number,(Q-Qo)/C,I Range,P/W,log(|I|),Tafel slope mV/dec,alpha_eff,E-IR/V,
2,0,0,0,0,56763.8,2.44065e-05,-0.000344411,-0.0930337,86,0.0000000E+000,10,3.20418e-08,-4.03136, , ,-0.000303476,
2,1,0,1,0,56767.5,0.0187763,0.0184763,0.211555,86,0.000681051,10,3.90877e-06,-3.67458,0.148237,0.39801,0.0183833,
2,1,0,1,0,56771.3,0.0377538,0.0373965,0.275024,86,0.00165589,10,1.02849e-05,-3.56063,0.18798,0.313863,0.0372755,
2,1,0,0,0,56775.1,0.0567309,0.0563958,0.33396,86,0.00286915,10,1.8834e-05,-3.47631,0.299512,0.196987,0.0562489,
2,1,0,1,0,56778.9,0.075708,0.075393,0.378211,86,0.00427828,10,2.85145e-05,-3.42227,0.436586,0.135139,0.0752266,
2,1,0,0,0,56782.7,0.094685,0.0943722,0.430032,86,0.00584827,10,4.0583e-05,-3.3665,0.259428,0.227424,0.0941829,
2,1,0,1,0,56786.5,0.113662,0.1133,0.521005,86,0.00770016,10,5.90301e-05,-3.28316,0.355502,0.165962,0.113071,
2,1,0,0,0,56790.3,0.132639,0.132271,0.555615,86,0.00981742,10,7.34918e-05,-3.25523,-0.559367,-0.105476,0.132027,
2,1,0,1,0,56794.1,0.151617,0.151276,0.371103,86,0.0116859,10,5.61389e-05,-3.43051,-0.0823002,-0.716888,0.151113,
2,1,0,1,0,56797.9,0.170594,0.170243,0.28459,86,0.012926,10,4.84495e-05,-3.54578,-0.326624,-0.180636,0.170118,
2,1,0,1,0,56801.7,0.189571,0.189233,0.266775,86,0.0140119,10,5.04827e-05,-3.57385,-1.01753,-0.0579835,0.189116,
2,1,0,1,0,56805.5,0.208547,0.208242,0.259901,86,0.0150549,10,5.41221e-05,-3.58519,-1.17771,-0.0500971,0.208127,
2,1,0,1,0,56809.3,0.227524,0.227196,0.253959,86,0.0160726,10,5.76986e-05,-3.59524,-0.996826,-0.0591879,0.227085,
2,1,0,1,0,56813.1,0.246501,0.246149,0.249562,86,0.0170718,10,6.14294e-05,-3.60282,-1.74066,-0.0338952,0.246039,
2,1,0,0,0,56816.9,0.265479,0.265155,0.246809,86,0.0180562,10,6.54426e-05,-3.60764,-3.59106,-0.0164297,0.265046,
2,1,0,1,0,56820.7,0.284456,0.284139,0.242008,86,0.0190241,10,6.87639e-05,-3.61617,-2.06026,-0.0286372,0.284033,
2,1,0,0,0,56824.5,0.303433,0.303138,0.237651,86,0.0199742,10,7.2041e-05,-3.62406,-1.57844,-0.0373788,0.303033,
2,1,0,1,0,56828.2,0.32241,0.322075,0.234227,86,0.0209094,10,7.54387e-05,-3.63036,-39.1806,-0.00150585,0.321972,
2,1,0,0,0,56832,0.341387,0.341104,0.23129,86,0.0218311,10,7.88939e-05,-3.63584,-4.44979,-0.013259,0.341003,
2,1,0,1,0,56835.8,0.360364,0.360051,0.229524,86,0.0227431,10,8.26403e-05,-3.63917,-2.38932,-0.0246932,0.35995,
2,1,0,1,0,56839.6,0.379342,0.379029,0.227942,86,0.0236459,10,8.63965e-05,-3.64218,-4.9287,-0.0119707,0.378929,
2,1,0,1,0,56843.4,0.398319,0.397989,0.225521,86,0.0245398,10,8.97548e-05,-3.64681,-5.13379,-0.0114925,0.39789,
2,1,0,1,0,56847.2,0.417295,0.416972,0.225304,86,0.0254295,10,9.39454e-05,-3.64723,-9.41763,-0.00626484,0.416873,
2,1,0,1,0,56851,0.436272,0.435937,0.224096,86,0.0263147,10,9.76918e-05,-3.64957,2.73763,0.0215515,0.435838,
2,1,0,1,0,56854.8,0.455249,0.454945,0.223329,86,0.027196,10,0.000101602,-3.65106,5.14458,0.0114684,0.454847,
2,1,0,1,0,56858.6,0.474226,0.473898,0.225151,86,0.0280782,10,0.000106698,-3.64753,1.21448,0.0485804,0.473799,
2,1,0,1,0,56862.4,0.493203,0.492892,0.227192,86,0.0289666,10,0.000111981,-3.64361,2.4986,0.0236132,0.492792,
2,1,0,0,0,56866.2,0.512181,0.51186,0.23151,86,0.0298657,10,0.000118501,-3.63543,1.78603,0.0330341,0.511759,
2,1,0,1,0,56870,0.531158,0.530858,0.236577,86,0.0307806,10,0.000125588,-3.62603,1.22866,0.0480198,0.530754,
2,1,0,0,0,56873.8,0.550135,0.549763,0.244396,86,0.0317208,10,0.00013436,-3.61191,0.821412,0.0718275,0.549655,
2,1,0,1,0,56877.6,0.569112,0.568809,0.256385,86,0.0326985,10,0.000145834,-3.59111,0.771557,0.0764687,0.568696,
2,1,0,0,0,56881.4,0.588089,0.587774,0.274549,86,0.0337319,10,0.000161372,-3.56138,0.54357,0.108542,0.587653,
2,1,0,1,0,56885.2,0.607066,0.606735,0.303829,86,0.0348527,10,0.000184344,-3.51737,0.363684,0.162229,0.606601,
2,1,0,1,0,56889,0.626044,0.625762,0.358264,86,0.0361257,10,0.000224188,-3.4458,0.212048,0.278239,0.625604,
2,1,0,1,0,56892.8,0.64502,0.644753,0.466039,86,0.0376944,10,0.00030048,-3.33158,0.139868,0.421826,0.644548,
2,1,0,1,0,56896.6,0.663997,0.663714,0.683238,86,0.0398542,10,0.000453475,-3.16543,0.10019,0.588879,0.663413,
2,1,0,1,0,56900.4,0.682974,0.682661,1.10236,86,0.0431917,10,0.000752541,-2.95768,0.085778,0.687822,0.682176,
2,1,0,1,0,56904.2,0.701951,0.701619,1.81966,86,0.0486586,10,0.00127671,-2.74001,0.0869292,0.678713,0.700818,
2,1,0,1,0,56908,0.720928,0.720655,2.88812,86,0.0575047,10,0.00208134,-2.53938,0.0979484,0.602358,0.719384,
2,1,0,1,0,56911.7,0.739905,0.739595,4.32738,86,0.0710972,10,0.00320051,-2.36378,0.11202,0.52669,0.737691,
2,1,0,0,0,56915.5,0.758883,0.758638,6.1902,86,0.0909361,10,0.00469612,-2.2083,0.122536,0.481491,0.755915,
2,1,0,1,0,56919.3,0.77786,0.777561,8.55005,86,0.118759,10,0.00664819,-2.06803,0.130637,0.451634,0.773799,
2,1,0,0,0,56923.1,0.796837,0.796536,11.6272,86,0.156805,10,0.00926147,-1.93453,0.131137,0.449913,0.79142,
2,1,0,1,0,56926.9,0.815814,0.815536,15.6715,86,0.208329,10,0.0127807,-1.80489,0.133787,0.440999,0.808641,
2,1,0,0,0,56930.7,0.834791,0.834539,20.656,86,0.277067,10,0.0172382,-1.68495,0.146365,0.403103,0.82545,
2,1,0,0,0,56934.4,0.846726,0.846444,23.5133,86,0.362477,10,0.0199027,-1.62869,0.109859,0.537052,0.836098,
2,1,0,1,0,56938.2,0.827749,0.827479,17.3187,86,0.439359,10,0.0143309,-1.76148,0.1213,0.486395,0.819858,
2,1,0,1,0,56942,0.808772,0.808476,12.6222,86,0.495741,10,0.0102047,-1.89887,0.123006,0.479652,0.802922,
2,1,0,1,0,56945.8,0.789795,0.7895,9.02585,86,0.536452,10,0.00712591,-2.04451,0.120659,0.488983,0.785529,
2,1,0,1,0,56949.6,0.770818,0.770486,6.34043,86,0.565332,10,0.00488521,-2.19788,0.112058,0.526514,0.767696,
2,1,0,1,0,56953.4,0.751841,0.751554,4.35759,86,0.5854,10,0.00327496,-2.36075,0.107111,0.55083,0.749637,
2,1,0,1,0,56957.2,0.732865,0.732574,2.85991,86,0.598925,10,0.00209509,-2.54365,0.0960302,0.61439,0.731316,
2,1,0,0,0,56961,0.713887,0.713599,1.74549,86,0.607529,10,0.00124558,-2.75808,0.0883405,0.66787,0.712831,
2,1,0,1,0,56964.8,0.69491,0.694643,0.973837,86,0.612598,10,0.000676469,-3.01151,0.0641464,0.91977,0.694214,
2,1,0,0,0,56968.6,0.675933,0.675655,0.455389,86,0.615201,10,0.000307686,-3.34162,0.049423,1.19378,0.675455,
2,1,0,1,0,56972.4,0.656956,0.656668,0.158928,86,0.616277,10,0.000104363,-3.7988,0.0315145,1.87215,0.656598,
2,1,0,0,0,56976.2,0.637979,0.637688,0.00869016,86,0.616533,10,5.54161e-06,-5.06097,0.0030133,19.5799,0.637685,
2,0,0,1,0,56980,0.619002,0.618706,-0.0570376,86,0.616397,10,-3.52895e-05,-4.24384,-0.0594649,-0.992182,0.618731,
2,0,0,0,0,56983.8,0.600024,0.599733,-0.0860059,86,0.616087,10,-5.15806e-05,-4.06547,-0.169529,-0.348022,0.599771,
2,0,0,1,0,56987.6,0.581047,0.580709,-0.101705,86,0.615698,10,-5.90613e-05,-3.99266,-0.570487,-0.10342,0.580754,
2,0,0,1,0,56991.4,0.56207,0.561734,-0.109761,86,0.615268,10,-6.16567e-05,-3.95955,-1.09613,-0.0538259,0.561783,
2,0,0,1,0,56995.1,0.543093,0.542743,-0.114245,86,0.614814,10,-6.20056e-05,-3.94216,-1.83113,-0.0322205,0.542793,
2,0,0,1,0,56998.9,0.524116,0.523804,-0.119541,86,0.614339,10,-6.26162e-05,-3.92248,-7.2444,-0.00814422,0.523857,
2,0,0,1,0,57002.7,0.505139,0.504813,-0.123722,86,0.613847,10,-6.24564e-05,-3.90755,-1.72177,-0.034267,0.504868,
2,0,0,1,0,57006.5,0.486162,0.485813,-0.129334,86,0.613335,10,-6.2832e-05,-3.88829,-1.84553,-0.0319692,0.48587,
2,0,0,1,0,57010.3,0.467185,0.466851,-0.135237,86,0.612801,10,-6.31355e-05,-3.8689,-1.26383,-0.0466834,0.46691,
2,0,0,1,0,57014.1,0.448208,0.447882,-0.141921,86,0.61224,10,-6.3564e-05,-3.84795,-0.89748,-0.0657396,0.447944,
2,0,0,0,0,57017.9,0.429231,0.428898,-0.14982,86,0.611651,10,-6.42575e-05,-3.82443,-5.70759,-0.0103371,0.428963,
2,0,0,1,0,57021.7,0.410254,0.409871,-0.15924,86,0.611031,10,-6.52678e-05,-3.79795,-0.80066,-0.0736892,0.409941,
2,0,0,0,0,57025.5,0.391277,0.390946,-0.168642,86,0.610376,10,-6.59298e-05,-3.77303,-0.971704,-0.0607181,0.39102,
2,0,0,1,0,57029.3,0.3723,0.371949,-0.176989,86,0.609684,10,-6.58309e-05,-3.75205,-1.48684,-0.0396815,0.372027,
2,0,0,1,0,57033.1,0.353322,0.352995,-0.187245,86,0.608952,10,-6.60968e-05,-3.72759,-0.999355,-0.0590381,0.353078,
2,0,0,1,0,57036.9,0.334345,0.33403,-0.198844,86,0.60818,10,-6.642e-05,-3.70149,-0.814004,-0.0724812,0.334118,
2,0,0,1,0,57040.7,0.315368,0.31503,-0.210456,86,0.607363,10,-6.63e-05,-3.67684,-0.578467,-0.101994,0.315123,
2,0,0,1,0,57044.5,0.296391,0.296084,-0.222362,86,0.6065,10,-6.58377e-05,-3.65294,-0.714008,-0.0826321,0.296182,
2,0,0,1,0,57048.3,0.277414,0.277083,-0.233772,86,0.605592,10,-6.47741e-05,-3.63121,-0.906793,-0.0650644,0.277185,
2,0,0,1,0,57052.1,0.258437,0.258072,-0.245957,86,0.604636,10,-6.34745e-05,-3.60914,-0.703374,-0.0838814,0.25818,
2,0,0,1,0,57055.9,0.239461,0.239123,-0.25839,86,0.603635,10,-6.17872e-05,-3.58772,-0.779047,-0.0757336,0.239237,
2,0,0,0,0,57059.7,0.220483,0.220131,-0.267492,86,0.602592,10,-5.88833e-05,-3.57269,-0.987603,-0.0597406,0.220249,
2,0,0,1,0,57063.5,0.201506,0.201159,-0.281279,86,0.601503,10,-5.65818e-05,-3.55086,-0.651918,-0.0905022,0.201283,
2,0,0,0,0,57067.3,0.182529,0.18221,-0.298725,86,0.600356,10,-5.44307e-05,-3.52473,-0.439241,-0.134323,0.182341,
2,0,0,1,0,57071.1,0.163552,0.163208,-0.329309,86,0.599121,10,-5.3746e-05,-3.4824,-0.338565,-0.174265,0.163353,
2,0,0,0,0,57074.8,0.144575,0.144186,-0.409153,86,0.597702,10,-5.89941e-05,-3.38811,-0.120194,-0.490871,0.144366,
2,0,0,1,0,57078.6,0.125598,0.125241,-0.603448,86,0.595741,10,-7.55762e-05,-3.21936,-0.149328,-0.395104,0.125506,
2,0,0,1,0,57082.4,0.10662,0.106258,-0.673042,86,0.593206,10,-7.15161e-05,-3.17196,-6.01832,-0.0098034,0.106554,
2,0,0,1,0,57086.2,0.0876433,0.0873107,-0.653743,86,0.590623,10,-5.70788e-05,-3.18459,0.884202,0.0667268,0.0875983,
2,0,0,1,0,57090,0.0686664,0.0683338,-0.616545,86,0.588161,10,-4.21308e-05,-3.21004,0.749345,0.0787355,0.0686051,
2,0,0,1,0,57093.8,0.0496895,0.0493623,-0.574581,86,0.585843,10,-2.83626e-05,-3.24065,0.550808,0.107115,0.0496151,
2,0,0,1,0,57097.6,0.0307126,0.0303862,-0.529356,86,0.583693,10,-1.60851e-05,-3.27625,0.531728,0.110959,0.0306191,
2,0,0,1,0,57101.4,0.0117356,0.0113439,-0.499303,86,0.581697,10,-5.66405e-06,-3.30164,1.07563,0.0548517,0.0115636,
2,0,0,0,0,57103.7,0.000274105,-8.31532e-05,-0.499387,86,0.580522,10,4.15256e-08,-3.30156, , ,0.000136577,

File: 20221101_1-115_003_TrumpetPlot_ParaChange_from10_every3_16_CV_C01_86.csv
mode,ox/red,error,control changes,counter inc.,time/s,control/V,Ewe/V,<I>/mA,cycle number,(Q-Qo)/C,I Range,P/W,log(|I|),Tafel slope mV/dec,alpha_eff,E-IR/V,
2,0,0,0,0,57133.8,2.44065e-05,-0.000382585,-0.103846,87,0.0000000E+000,10,3.97301e-08,-3.98361, , ,-0.000336893,
2,1,0,1,0,57137.5,0.0187763,0.0183734,0.203209,87,0.0006555,10,3.73364e-06,-3.69206,0.142854,0.41301,0.018284,
2,1,0,1,0,57141.3,0.0377538,0.0373976,0.267239,87,0.00160129,10,9.99407e-06,-3.5731,0.175561,0.336065,0.03728,
2,1,0,0,0,57145.1,0.0567309,0.0563226,0.325561,87,0.00278784,10,1.83364e-05,-3.48737,0.309942,0.190358,0.0561794,
2,1,0,1,0,57148.9,0.075708,0.0753824,0.371714,87,0.00417303,10,2.80207e-05,-3.42979,0.47257,0.124849,0.0752188,
2,1,0,0,0,57152.7,0.094685,0.0943785,0.423161,87,0.00572069,10,3.99373e-05,-3.37349,0.242214,0.243586,0.0941923,
2,1,0,1,0,57156.5,0.113662,0.11333,0.517404,87,0.00755755,10,5.86374e-05,-3.28617,0.327447,0.180182,0.113102,
2,1,0,0,0,57160.3,0.132639,0.132308,0.54891,87,0.00965796,10,7.26252e-05,-3.2605,-0.487756,-0.120962,0.132067,
2,1,0,1,0,57164.1,0.151617,0.151256,0.356311,87,0.011488,10,5.3894e-05,-3.44817,-0.0792041,-0.744911,0.151099,
2,1,0,1,0,57167.9,0.170594,0.170247,0.2718,87,0.0126804,10,4.62731e-05,-3.56575,-0.36752,-0.160535,0.170127,
2,1,0,1,0,57171.7,0.189571,0.189218,0.255436,87,0.0137232,10,4.83332e-05,-3.59272,-1.06325,-0.05549,0.189106,
2,1,0,1,0,57175.5,0.208547,0.208198,0.248976,87,0.0147264,10,5.18364e-05,-3.60384,-0.969488,-0.0608569,0.208088,
2,1,0,1,0,57179.3,0.227524,0.227165,0.243972,87,0.0157058,10,5.54218e-05,-3.61266,-1.19158,-0.0495142,0.227057,
2,1,0,1,0,57183.1,0.246501,0.246169,0.239274,87,0.0166685,10,5.89018e-05,-3.6211,-0.716073,-0.0823938,0.246064,
2,1,0,0,0,57186.9,0.265479,0.265156,0.236537,87,0.0176176,10,6.27191e-05,-3.6261,-1.21379,-0.0486083,0.265052,
2,1,0,1,0,57190.7,0.284456,0.284122,0.233354,87,0.018552,10,6.6301e-05,-3.63199,-1.91307,-0.0308404,0.28402,
2,1,0,0,0,57194.5,0.303433,0.3031,0.228632,87,0.0194691,10,6.92985e-05,-3.64086,5.41262,0.0109005,0.303,
2,1,0,1,0,57198.2,0.32241,0.322079,0.225287,87,0.0203717,10,7.25601e-05,-3.64726,-27.0161,-0.00218388,0.321979,
2,1,0,0,0,57202,0.341387,0.341081,0.223279,87,0.0212627,10,7.61561e-05,-3.65115,-3.15324,-0.0187109,0.340983,
2,1,0,1,0,57205.8,0.360364,0.360026,0.221805,87,0.0221434,10,7.98556e-05,-3.65403,4.02029,0.0146756,0.359929,
2,1,0,1,0,57209.6,0.379342,0.378989,0.218916,87,0.0230154,10,8.29667e-05,-3.65972,-2.85474,-0.0206674,0.378892,
2,1,0,1,0,57213.4,0.398319,0.397997,0.216845,87,0.0238792,10,8.63037e-05,-3.66385,8.04715,0.00733178,0.397901,
2,1,0,1,0,57217.2,0.417295,0.416966,0.216699,87,0.0247389,10,9.0356e-05,-3.66414,-1.91601,-0.0307932,0.41687,
2,1,0,1,0,57221,0.436272,0.435928,0.216158,87,0.0255943,10,9.42294e-05,-3.66523,2.22985,0.0264592,0.435833,
2,1,0,1,0,57224.8,0.455249,0.454928,0.21646,87,0.0264478,10,9.84737e-05,-3.66462,1.38482,0.0426048,0.454833,
2,1,0,1,0,57228.6,0.474226,0.473867,0.217327,87,0.0273034,10,0.000102984,-3.66289,1.14888,0.0513545,0.473771,
2,1,0,1,0,57232.4,0.493203,0.492902,0.220408,87,0.0281659,10,0.00010864,-3.65677,7.61586,0.00774699,0.492805,
2,1,0,0,0,57236.2,0.512181,0.511838,0.22461,87,0.0290392,10,0.000114964,-3.64857,2.35734,0.0250282,0.511739,
2,1,0,1,0,57240,0.531158,0.530817,0.230327,87,0.0299302,10,0.000122261,-3.63766,1.80177,0.0327455,0.530716,
2,1,0,0,0,57243.8,0.550135,0.549804,0.237681,87,0.0308457,10,0.000130678,-3.62401,0.935575,0.0630628,0.549699,
2,1,0,1,0,57247.6,0.569112,0.568809,0.249327,87,0.0317979,10,0.000141819,-3.60323,1.19822,0.0492398,0.568699,
2,1,0,0,0,57251.4,0.588089,0.587737,0.267984,87,0.032805,10,0.000157504,-3.57189,0.563054,0.104786,0.587619,
2,1,0,1,0,57255.2,0.607066,0.606784,0.297764,87,0.0339003,10,0.000180678,-3.52613,0.327392,0.180212,0.606653,
2,1,0,1,0,57259,0.626044,0.625722,0.351187,87,0.0351489,10,0.000219745,-3.45446,0.214399,0.275188,0.625567,
2,1,0,1,0,57262.8,0.64502,0.644673,0.459201,87,0.0366917,10,0.000296034,-3.338,0.134483,0.438716,0.64447,
2,1,0,1,0,57266.6,0.663997,0.66367,0.67658,87,0.0388264,10,0.000449026,-3.16968,0.0983883,0.599664,0.663372,
2,1,0,1,0,57270.4,0.682974,0.682672,1.09629,87,0.0421386,10,0.000748407,-2.96007,0.0867527,0.680094,0.68219,
2,1,0,1,0,57274.2,0.701951,0.701668,1.81402,87,0.0475838,10,0.00127284,-2.74136,0.0877316,0.672505,0.70087,
2,1,0,1,0,57278,0.720928,0.720628,2.88469,87,0.0564127,10,0.00207879,-2.5399,0.0977745,0.603429,0.719358,
2,1,0,1,0,57281.7,0.739905,0.739605,4.33184,87,0.070006,10,0.00320385,-2.36333,0.109266,0.539966,0.737699,
2,1,0,0,0,57285.5,0.758883,0.758555,6.21778,87,0.089899,10,0.00471652,-2.20636,0.122024,0.48351,0.755819,
2,1,0,1,0,57289.3,0.77786,0.777536,8.66306,87,0.117959,10,0.00673584,-2.06233,0.125835,0.468869,0.773724,
2,1,0,0,0,57293.1,0.796837,0.796531,11.8896,87,0.156693,10,0.00947047,-1.92483,0.127575,0.462472,0.791299,
2,1,0,1,0,57296.9,0.815814,0.815495,16.2041,87,0.209679,10,0.0132144,-1.79037,0.13796,0.42766,0.808365,
2,1,0,0,0,57300.7,0.834791,0.834548,21.4348,87,0.280683,10,0.0178884,-1.66888,0.138899,0.424769,0.825116,
2,1,0,0,0,57304.4,0.846726,0.846444,24.5605,87,0.369694,10,0.0207891,-1.60976,0.100957,0.584409,0.835638,
2,1,0,1,0,57308.2,0.827749,0.82746,17.8554,87,0.449452,10,0.0147747,-1.74823,0.116878,0.504802,0.819604,
2,1,0,1,0,57312,0.808772,0.808426,12.8669,87,0.507259,10,0.0104019,-1.89053,0.116823,0.505038,0.802765,
2,1,0,1,0,57315.8,0.789795,0.789512,9.12538,87,0.548521,10,0.0072046,-2.03975,0.118196,0.499172,0.785497,
2,1,0,1,0,57319.6,0.770818,0.770514,6.38943,87,0.57765,10,0.00492315,-2.19454,0.11364,0.519185,0.767703,
2,1,0,1,0,57323.4,0.751841,0.751503,4.36291,87,0.597839,10,0.00327874,-2.36022,0.107105,0.550859,0.749584,
2,1,0,1,0,57327.2,0.732865,0.732612,2.86209,87,0.611388,10,0.0020968,-2.54332,0.093317,0.632253,0.731353,
2,1,0,0,0,57331,0.713887,0.713564,1.75297,87,0.619989,10,0.00125085,-2.75623,0.0838203,0.703887,0.712792,
2,1,0,1,0,57334.8,0.69491,0.694575,0.968578,87,0.625043,10,0.00067275,-3.01387,0.064053,0.921112,0.694149,
2,1,0,0,0,57338.6,0.675933,0.675597,0.448176,87,0.627622,10,0.000302786,-3.34855,0.048914,1.2062,0.6754,
2,1,0,1,0,57342.4,0.656956,0.656645,0.151157,87,0.628671,10,9.92564e-05,-3.82057,0.0309443,1.90665,0.656579,
2,1,0,0,0,57346.2,0.637979,0.637701,0.00246382,87,0.628897,10,1.57118e-06,-5.60839,0.020803,2.83612,0.6377,
2,0,0,1,0,57350,0.619002,0.618681,-0.0625204,87,0.628737,10,-3.86802e-05,-4.20398,-0.0675825,-0.873008,0.618708,
2,0,0,0,0,57353.8,0.600024,0.599691,-0.0921986,87,0.628405,10,-5.52906e-05,-4.03528,-0.215539,-0.273733,0.599731,
2,0,0,1,0,57357.6,0.581047,0.580707,-0.105681,87,0.627995,10,-6.13695e-05,-3.976,-0.727478,-0.0811021,0.580754,
2,0,0,1,0,57361.4,0.56207,0.561751,-0.114091,87,0.627546,10,-6.40905e-05,-3.94275,-0.845041,-0.0698191,0.561802,
2,0,0,1,0,57365.1,0.543093,0.542748,-0.119116,87,0.627073,10,-6.46497e-05,-3.92403,-0.85046,-0.0693742,0.5428,
2,0,0,1,0,57368.9,0.524116,0.523739,-0.123809,87,0.626583,10,-6.48438e-05,-3.90725,-0.902228,-0.0653937,0.523794,
2,0,0,1,0,57372.7,0.505139,0.504813,-0.127551,87,0.626075,10,-6.43894e-05,-3.89432,-0.873696,-0.0675292,0.504869,
2,0,0,1,0,57376.5,0.486162,0.485799,-0.13397,87,0.625547,10,-6.50825e-05,-3.87299,-0.784056,-0.0752498,0.485858,
2,0,0,1,0,57380.3,0.467185,0.466849,-0.139069,87,0.624996,10,-6.4924e-05,-3.85677,-0.97788,-0.0603346,0.46691,
2,0,0,1,0,57384.1,0.448208,0.447823,-0.146023,87,0.624423,10,-6.53925e-05,-3.83558,-1.66045,-0.0355325,0.447887,
2,0,0,0,0,57387.9,0.429231,0.4289,-0.154025,87,0.623819,10,-6.60613e-05,-3.81241,-1.38134,-0.0427122,0.428967,
2,0,0,1,0,57391.7,0.410254,0.409887,-0.162305,87,0.623185,10,-6.65267e-05,-3.78967,-1.53151,-0.038524,0.409958,
2,0,0,0,0,57395.5,0.391277,0.390929,-0.171302,87,0.622516,10,-6.6967e-05,-3.76624,-0.604213,-0.0976477,0.391004,
2,0,0,1,0,57399.3,0.3723,0.371951,-0.179983,87,0.62181,10,-6.69448e-05,-3.74477,-1.06246,-0.0555314,0.37203,
2,0,0,1,0,57403.1,0.353322,0.352975,-0.19118,87,0.621065,10,-6.74819e-05,-3.71856,-0.657849,-0.0896863,0.353059,
2,0,0,1,0,57406.9,0.334345,0.334018,-0.201994,87,0.620279,10,-6.74698e-05,-3.69466,-0.657852,-0.0896859,0.334107,
2,0,0,1,0,57410.7,0.315368,0.315018,-0.212746,87,0.61945,10,-6.70188e-05,-3.67214,-0.678372,-0.086973,0.315112,
2,0,0,1,0,57414.5,0.296391,0.29606,-0.22492,87,0.618577,10,-6.65898e-05,-3.64797,-0.997102,-0.0591715,0.296159,
2,0,0,1,0,57418.3,0.277414,0.2771,-0.23589,87,0.617659,10,-6.53651e-05,-3.62729,-0.892779,-0.0660858,0.277204,
2,0,0,1,0,57422.1,0.258437,0.258058,-0.248026,87,0.616694,10,-6.40051e-05,-3.6055,-1.08812,-0.0542218,0.258167,
2,0,0,1,0,57425.9,0.239461,0.239098,-0.259887,87,0.615684,10,-6.21384e-05,-3.58522,-1.37272,-0.0429803,0.239212,
2,0,0,0,0,57429.7,0.220483,0.220108,-0.271189,87,0.614631,10,-5.96908e-05,-3.56673,-0.775002,-0.0761289,0.220227,
2,0,0,1,0,57433.5,0.201506,0.201142,-0.283511,87,0.613531,10,-5.7026e-05,-3.54743,-0.618238,-0.0954324,0.201267,
2,0,0,0,0,57437.3,0.182529,0.182207,-0.301184,87,0.612373,10,-5.48777e-05,-3.52117,-0.621242,-0.0949711,0.182339,
2,0,0,1,0,57441.1,0.163552,0.16324,-0.330867,87,0.61113,10,-5.40108e-05,-3.48035,-0.310264,-0.19016,0.163386,
2,0,0,0,0,57444.9,0.144575,0.144235,-0.411695,87,0.609701,10,-5.93806e-05,-3.38542,-0.120234,-0.490711,0.144416,
2,0,0,1,0,57448.6,0.125598,0.125255,-0.607054,87,0.607726,10,-7.60368e-05,-3.21677,-0.154425,-0.382063,0.125523,
2,0,0,1,0,57452.4,0.10662,0.106282,-0.674607,87,0.60518,10,-7.16987e-05,-3.17095,-7.84176,-0.00752382,0.106579,
2,0,0,1,0,57456.2,0.0876433,0.087264,-0.654218,87,0.602593,10,-5.70897e-05,-3.18428,0.783689,0.075285,0.0875518,
2,0,0,1,0,57460,0.0686664,0.0683062,-0.615612,87,0.60013,10,-4.20501e-05,-3.21069,0.656159,0.0899173,0.0685771,
2,0,0,1,0,57463.8,0.0496895,0.0493262,-0.572572,87,0.597815,10,-2.82428e-05,-3.24217,0.558439,0.105652,0.0495781,
2,0,0,1,0,57467.6,0.0307126,0.0303505,-0.525101,87,0.595673,10,-1.59371e-05,-3.27976,0.580948,0.101558,0.0305815,
2,0,0,1,0,57471.4,0.0117356,0.0114083,-0.49537,87,0.593687,10,-5.65135e-06,-3.30507,1.97533,0.0298684,0.0116263,
2,0,0,0,0,57473.7,0.000274105,-9.38898e-05,-0.497565,87,0.592518,10,4.67163e-08,-3.30315, , ,0.000125039,