Folder: Figs_alphaMnO2_OER_Tafel_sleope/Figure_codes/Fig_3-5/workspace_calculate_alpha_eff (part 15)

File: 20221101_1-115_003_TrumpetPlot_ParaChange_from10_every3_16_CV_C01_21.csv
mode,ox/red,error,control changes,counter inc.,time/s,control/V,Ewe/V,<I>/mA,cycle number,(Q-Qo)/C,I Range,P/W,log(|I|),Tafel slope mV/dec,alpha_eff,E-IR/V,
2,0,0,1,0,15021,2.44065e-05,-0.000229887,-0.0427872,22,0.0000000E+000,10,9.83622e-09,-4.36869, , ,-0.000211061,
2,1,0,1,0,15024.8,0.0187763,0.0184454,0.276246,22,0.000944282,10,5.09548e-06,-3.5587,0.16853,0.350085,0.0183239,
2,1,0,0,0,15028.6,0.0377538,0.0374145,0.342658,22,0.00219386,10,1.28204e-05,-3.46514,0.22289,0.264705,0.0372638,
2,1,0,1,0,15032.4,0.0567309,0.0563789,0.404449,22,0.00369563,10,2.28024e-05,-3.39314,0.317497,0.185828,0.0562009,
2,1,0,0,0,15036.2,0.075708,0.0753591,0.4518,22,0.00540598,10,3.40472e-05,-3.34505,0.574904,0.102626,0.0751603,
2,1,0,1,0,15040,0.0946851,0.0943796,0.512139,22,0.00729133,10,4.83354e-05,-3.29061,0.247755,0.238138,0.0941542,
2,1,0,0,0,15043.8,0.113662,0.113356,0.616071,22,0.00950743,10,6.98351e-05,-3.21037,0.350867,0.168155,0.113084,
2,1,0,1,0,15047.6,0.132639,0.13232,0.678,22,0.0120473,10,8.97129e-05,-3.16877,-2.42972,-0.0242826,0.132022,
2,1,0,1,0,15051.3,0.151617,0.151278,0.459269,22,0.0143656,10,6.94773e-05,-3.33793,-0.0799447,-0.73801,0.151076,
2,1,0,1,0,15055.1,0.170594,0.170298,0.334348,22,0.0158793,10,5.69389e-05,-3.4758,-0.25711,-0.229474,0.170151,
2,1,0,1,0,15058.9,0.189571,0.189265,0.307358,22,0.0171556,10,5.81721e-05,-3.51235,-0.975402,-0.0604879,0.18913,
2,1,0,1,0,15062.7,0.208547,0.208264,0.295217,22,0.0183631,10,6.14829e-05,-3.52986,-0.791185,-0.0745717,0.208134,
2,1,0,1,0,15066.5,0.227524,0.227208,0.28748,22,0.0195314,10,6.53178e-05,-3.54139,-1.36052,-0.0433658,0.227082,
2,1,0,1,0,15070.3,0.246501,0.246193,0.279392,22,0.0206716,10,6.87845e-05,-3.55379,-0.991852,-0.0594847,0.24607,
2,1,0,1,0,15074.1,0.265479,0.265186,0.274409,22,0.0217905,10,7.27692e-05,-3.5616,-0.96694,-0.0610172,0.265065,
2,1,0,0,0,15077.9,0.284456,0.284178,0.270612,22,0.0228918,10,7.69017e-05,-3.56765,-1.67427,-0.0352393,0.284058,
2,1,0,1,0,15081.7,0.303433,0.303127,0.267308,22,0.0239757,10,8.10282e-05,-3.57299,-7.71873,-0.00764375,0.303009,
2,1,0,0,0,15085.5,0.32241,0.322134,0.263184,22,0.0250448,10,8.47804e-05,-3.57974,-2.54764,-0.0231587,0.322018,
2,1,0,1,0,15089.3,0.341387,0.341057,0.259856,22,0.0260996,10,8.86258e-05,-3.58527,-1.48775,-0.0396573,0.340942,
2,1,0,0,0,15093.1,0.360364,0.360068,0.258049,22,0.0271423,10,9.29149e-05,-3.5883,-32.4778,-0.00181662,0.359954,
2,1,0,1,0,15096.9,0.379342,0.379079,0.254958,22,0.0281739,10,9.66492e-05,-3.59353,-2.79773,-0.0210885,0.378967,
2,1,0,1,0,15100.7,0.398319,0.397991,0.252301,22,0.0291948,10,0.000100414,-3.59808,-2.56713,-0.0229829,0.39788,
2,1,0,1,0,15104.5,0.417295,0.416973,0.250976,22,0.0302092,10,0.00010465,-3.60037,-4.4611,-0.0132254,0.416863,
2,1,0,1,0,15108.3,0.436272,0.435972,0.251079,22,0.0312199,10,0.000109463,-3.60019,1.8939,0.0311526,0.435861,
2,1,0,1,0,15112.1,0.455249,0.45499,0.250839,22,0.0322278,10,0.000114129,-3.60061,2.5396,0.023232,0.454879,
2,1,0,1,0,15115.9,0.474226,0.473933,0.251108,22,0.033236,10,0.000119008,-3.60014,1.69123,0.0348859,0.473822,
2,1,0,1,0,15119.7,0.493203,0.492909,0.254417,22,0.0342494,10,0.000125405,-3.59445,1.04533,0.0564417,0.492798,
2,1,0,1,0,15123.5,0.512181,0.511847,0.258668,22,0.0352761,10,0.000132399,-3.58726,1.24568,0.0473635,0.511733,
2,1,0,0,0,15127.3,0.531158,0.530846,0.265233,22,0.036322,10,0.000140798,-3.57637,1.70961,0.0345109,0.530729,
2,1,0,1,0,15131.1,0.550135,0.549862,0.274451,22,0.0373976,10,0.00015091,-3.56153,0.88138,0.0669405,0.549742,
2,1,0,0,0,15134.8,0.569112,0.568801,0.291789,22,0.0385225,10,0.00016597,-3.53493,0.576853,0.102279,0.568673,
2,1,0,1,0,15138.6,0.588089,0.587791,0.319134,22,0.0397267,10,0.000187584,-3.49603,0.394055,0.149725,0.587651,
2,1,0,0,0,15142.4,0.607066,0.606783,0.367318,22,0.0410688,10,0.000222882,-3.43496,0.23745,0.248474,0.606621,
2,1,0,1,0,15146.2,0.626044,0.625763,0.464648,22,0.0426792,10,0.00029076,-3.33288,0.141588,0.416701,0.625559,
2,1,0,1,0,15150,0.64502,0.644777,0.673416,22,0.0448413,10,0.000434204,-3.17172,0.0999648,0.590208,0.644481,
2,1,0,1,0,15153.8,0.663997,0.663724,1.12175,22,0.0481982,10,0.000744534,-2.9501,0.0763612,0.772644,0.66323,
2,1,0,1,0,15157.6,0.682974,0.68268,2.00639,22,0.0540424,10,0.00136973,-2.69758,0.0749966,0.786702,0.681798,
2,1,0,1,0,15161.4,0.701951,0.701668,3.56695,22,0.0644521,10,0.00250282,-2.4477,0.077512,0.761172,0.700098,
2,1,0,1,0,15165.2,0.720928,0.720673,5.86772,22,0.0821752,10,0.00422871,-2.23153,0.0901108,0.65475,0.718092,
2,1,0,1,0,15169,0.739905,0.739643,8.86132,22,0.109969,10,0.00655421,-2.0525,0.107626,0.548193,0.735744,
2,1,0,1,0,15172.8,0.758883,0.758565,12.5096,22,0.15035,10,0.00948934,-1.90276,0.123635,0.477212,0.753061,
2,1,0,0,0,15176.6,0.77786,0.777584,17.1679,22,0.206321,10,0.0133495,-1.76528,0.124096,0.47544,0.77003,
2,1,0,1,0,15180.4,0.796837,0.796561,23.0933,22,0.282421,10,0.0183952,-1.63651,0.135057,0.436853,0.786399,
2,1,0,0,0,15184.2,0.815814,0.81555,30.1867,22,0.383021,10,0.0246188,-1.52018,0.127157,0.463994,0.802268,
2,1,0,1,0,15188,0.834791,0.834608,37.66,22,0.511834,10,0.0314314,-1.42412,0.177362,0.332654,0.818038,
2,1,0,1,0,15191.7,0.846727,0.846522,41.3091,22,0.66296,10,0.0349691,-1.38395,0.143371,0.411518,0.828346,
2,1,0,1,0,15195.5,0.827749,0.827499,32.8663,22,0.803134,10,0.0271968,-1.48325,0.151755,0.388784,0.813037,
2,1,0,1,0,15199.3,0.808772,0.808521,25.3844,22,0.913419,10,0.0205238,-1.59543,0.130212,0.453108,0.797352,
2,1,0,1,0,15203.1,0.789795,0.789484,18.7743,22,0.996792,10,0.014822,-1.72644,0.117143,0.503656,0.781224,
2,1,0,1,0,15206.9,0.770818,0.770538,13.3,22,1.05723,10,0.0102482,-1.87615,0.104925,0.562304,0.764686,
2,1,0,1,0,15210.7,0.751841,0.75157,9.01027,22,1.09917,10,0.00677185,-2.04526,0.09512,0.620269,0.747605,
2,1,0,1,0,15214.5,0.732865,0.732618,5.759,22,1.12683,10,0.00421914,-2.23965,0.0838661,0.703502,0.730084,
2,1,0,1,0,15218.2,0.713887,0.713616,3.39907,22,1.1439,10,0.00242563,-2.46864,0.074226,0.79487,0.71212,
2,1,0,0,0,15222,0.69491,0.694651,1.82956,22,1.15355,10,0.00127091,-2.73765,0.0619416,0.95251,0.693846,
2,1,0,1,0,15225.8,0.675933,0.675656,0.868723,22,1.15845,10,0.000586958,-3.06112,0.0530542,1.11207,0.675274,
2,1,0,0,0,15229.6,0.656956,0.656678,0.350216,22,1.16061,10,0.000229979,-3.45566,0.0424949,1.3884,0.656524,
2,1,0,1,0,15233.4,0.637979,0.637705,0.105971,22,1.16136,10,6.75781e-05,-3.97481,0.0279102,2.11393,0.637659,
2,0,0,0,0,15237.2,0.619002,0.618709,-0.00470185,22,1.16148,10,-2.90908e-06,-5.32773,-0.0061724,-9.55868,0.618711,
2,0,0,1,0,15241,0.600025,0.599734,-0.0515086,22,1.16131,10,-3.08915e-05,-4.28812,-0.0773797,-0.762474,0.599757,
2,0,0,1,0,15244.8,0.581047,0.58078,-0.07343,22,1.16101,10,-4.26467e-05,-4.13413,-0.193959,-0.304188,0.580813,
2,0,0,1,0,15248.6,0.56207,0.561785,-0.0856782,22,1.16066,10,-4.81327e-05,-4.06713,-0.55222,-0.106841,0.561823,
2,0,0,1,0,15252.4,0.543093,0.542788,-0.0917046,22,1.16027,10,-4.97762e-05,-4.03761,-0.42759,-0.137983,0.542829,
2,0,0,1,0,15256.2,0.524116,0.523831,-0.0976254,22,1.15986,10,-5.11391e-05,-4.01044,-0.700017,-0.0842837,0.523873,
2,0,0,1,0,15260,0.505139,0.504812,-0.103043,22,1.15943,10,-5.20172e-05,-3.98698,-0.91276,-0.0646391,0.504858,
2,0,0,1,0,15263.8,0.486162,0.485858,-0.109231,22,1.15897,10,-5.30707e-05,-3.96165,-0.873833,-0.0675186,0.485906,
2,0,0,1,0,15267.6,0.467185,0.466841,-0.114586,22,1.1585,10,-5.34935e-05,-3.94087,-0.568773,-0.103732,0.466892,
2,0,0,0,0,15271.4,0.448208,0.447892,-0.121763,22,1.15799,10,-5.45365e-05,-3.91449,-1.5885,-0.0371419,0.447945,
2,0,0,1,0,15275.2,0.429231,0.428913,-0.129396,22,1.15746,10,-5.54999e-05,-3.88808,-1.2187,-0.0484122,0.42897,
2,0,0,0,0,15279,0.410254,0.409931,-0.139192,22,1.15689,10,-5.7059e-05,-3.85639,-0.781592,-0.0754869,0.409992,
2,0,0,1,0,15282.8,0.391277,0.390981,-0.149979,22,1.15629,10,-5.8639e-05,-3.82397,-0.620526,-0.0950806,0.391047,
2,0,0,0,0,15286.6,0.3723,0.371991,-0.160067,22,1.15565,10,-5.95436e-05,-3.7957,-0.653095,-0.0903391,0.372061,
2,0,0,1,0,15290.4,0.353322,0.353017,-0.169742,22,1.15496,10,-5.99218e-05,-3.77021,-0.519655,-0.113537,0.353092,
2,0,0,1,0,15294.2,0.334345,0.334021,-0.181214,22,1.15423,10,-6.05294e-05,-3.74181,-0.599839,-0.0983596,0.334101,
2,0,0,1,0,15298,0.315368,0.315015,-0.193322,22,1.15346,10,-6.08994e-05,-3.71372,-0.700224,-0.0842587,0.3151,
2,0,0,1,0,15301.7,0.296391,0.296113,-0.205542,22,1.15264,10,-6.08637e-05,-3.6871,-0.47077,-0.125326,0.296204,
2,0,0,1,0,15305.5,0.277414,0.277088,-0.217757,22,1.15177,10,-6.03378e-05,-3.66203,-0.68085,-0.0866564,0.277184,
2,0,0,1,0,15309.3,0.258437,0.258127,-0.230997,22,1.15086,10,-5.96266e-05,-3.63639,-0.935789,-0.0630484,0.258228,
2,0,0,1,0,15313.1,0.239461,0.239105,-0.243069,22,1.14989,10,-5.8119e-05,-3.61427,-0.628008,-0.0939479,0.239212,
2,0,0,1,0,15316.9,0.220483,0.220199,-0.25546,22,1.14888,10,-5.62521e-05,-3.59268,-0.481234,-0.122602,0.220311,
2,0,0,0,0,15320.7,0.201506,0.201187,-0.270924,22,1.14782,10,-5.45063e-05,-3.56715,-0.498687,-0.118311,0.201306,
2,0,0,1,0,15324.5,0.182529,0.182184,-0.293379,22,1.14669,10,-5.34492e-05,-3.53257,-0.353833,-0.166745,0.182314,
2,0,0,0,0,15328.3,0.163552,0.163205,-0.339069,22,1.14544,10,-5.53379e-05,-3.46971,-0.211676,-0.278728,0.163354,
2,0,0,1,0,15332.1,0.144575,0.144277,-0.481188,22,1.14387,10,-6.94244e-05,-3.31768,-0.0800521,-0.73702,0.144489,
2,0,0,0,0,15335.9,0.125598,0.125337,-0.730383,22,1.14146,10,-9.15441e-05,-3.13645,-0.241764,-0.244039,0.125658,
2,0,0,1,0,15339.7,0.10662,0.106296,-0.735942,22,1.13855,10,-7.82277e-05,-3.13316,0.582541,0.10128,0.10662,
2,0,0,1,0,15343.5,0.0876433,0.0873519,-0.673955,22,1.13581,10,-5.88713e-05,-3.17137,0.531451,0.111017,0.0876485,
2,0,0,1,0,15347.3,0.0686664,0.0683561,-0.626086,22,1.13328,10,-4.27968e-05,-3.20337,0.775604,0.0760698,0.0686316,
2,0,0,1,0,15351.1,0.0496895,0.0493665,-0.581022,22,1.13091,10,-2.86831e-05,-3.23581,0.612924,0.0962599,0.0496222,
2,0,0,1,0,15354.9,0.0307126,0.0303822,-0.530766,22,1.12873,10,-1.61258e-05,-3.2751,0.490092,0.120386,0.0306157,
2,0,0,1,0,15358.7,0.0117356,0.0114423,-0.495889,22,1.12672,10,-5.67413e-06,-3.30462,1.73619,0.0339825,0.0116605,
2,0,0,1,0,15361,0.000274105,-9.62757e-05,-0.494769,22,1.12554,10,4.76342e-08,-3.3056, , ,0.000121423,

File: 20221101_1-115_003_TrumpetPlot_ParaChange_from10_every3_16_CV_C01_22.csv
mode,ox/red,error,control changes,counter inc.,time/s,control/V,Ewe/V,<I>/mA,cycle number,(Q-Qo)/C,I Range,P/W,log(|I|),Tafel slope mV/dec,alpha_eff,E-IR/V,
2,0,0,0,0,15391,2.44065e-05,-0.000344411,-0.116567,23,0.0000000E+000,10,4.01469e-08,-3.93342, , ,-0.000293121,
2,1,0,1,0,15394.8,0.0187763,0.0184467,0.228027,23,0.000763429,10,4.20634e-06,-3.64201,0.151508,0.389419,0.0183464,
2,1,0,1,0,15398.6,0.0377538,0.0374633,0.296135,23,0.00183111,10,1.10942e-05,-3.52851,0.172891,0.341256,0.037333,
2,1,0,0,0,15402.4,0.0567309,0.0563948,0.360548,23,0.00315549,10,2.0333e-05,-3.44304,0.291607,0.202327,0.0562361,
2,1,0,1,0,15406.2,0.075708,0.0753941,0.411568,23,0.00470027,10,3.10298e-05,-3.38556,0.359177,0.164264,0.075213,
2,1,0,0,0,15410,0.0946851,0.0943478,0.473519,23,0.00643426,10,4.46755e-05,-3.32466,0.241962,0.24384,0.0941394,
2,1,0,1,0,15413.8,0.113662,0.113369,0.579772,23,0.00850612,10,6.57283e-05,-3.23674,0.320384,0.184154,0.113114,
2,1,0,0,0,15417.6,0.132639,0.132333,0.646689,23,0.0109183,10,8.55781e-05,-3.1893,-2.5506,-0.0231318,0.132048,
2,1,0,1,0,15421.4,0.151617,0.15135,0.432854,23,0.0131346,10,6.55126e-05,-3.36366,-0.0736832,-0.800725,0.15116,
2,1,0,1,0,15425.1,0.170594,0.170282,0.304813,23,0.0145346,10,5.19041e-05,-3.51597,-0.232158,-0.254138,0.170148,
2,1,0,1,0,15428.9,0.189571,0.189246,0.273201,23,0.015685,10,5.17021e-05,-3.56352,-0.533845,-0.110519,0.189126,
2,1,0,1,0,15432.7,0.208547,0.208288,0.259243,23,0.0167571,10,5.39972e-05,-3.58629,-0.751995,-0.078458,0.208174,
2,1,0,1,0,15436.5,0.227524,0.227199,0.251799,23,0.0177872,10,5.72084e-05,-3.59895,-0.706963,-0.0834556,0.227088,
2,1,0,1,0,15440.3,0.246501,0.246195,0.24418,23,0.0187909,10,6.01158e-05,-3.61229,-0.828487,-0.0712141,0.246087,
2,1,0,0,0,15444.1,0.265479,0.265182,0.239948,23,0.019775,10,6.363e-05,-3.61988,-1.08659,-0.0542981,0.265077,
2,1,0,1,0,15447.9,0.284456,0.284142,0.236658,23,0.020743,10,6.72445e-05,-3.62588,-4.34043,-0.0135931,0.284038,
2,1,0,0,0,15451.7,0.303433,0.303147,0.233295,23,0.0216935,10,7.07227e-05,-3.63209,-4.48969,-0.0131412,0.303045,
2,1,0,1,0,15455.5,0.32241,0.322121,0.229623,23,0.0226299,10,7.39664e-05,-3.63898,-6.82444,-0.0086454,0.32202,
2,1,0,0,0,15459.3,0.341387,0.341086,0.225695,23,0.023553,10,7.69814e-05,-3.64648,-3.96461,-0.0148817,0.340987,
2,1,0,1,0,15463.1,0.360364,0.360053,0.224376,23,0.024465,10,8.07871e-05,-3.64902,-0.76372,-0.0772535,0.359954,
2,1,0,1,0,15466.9,0.379342,0.379065,0.221482,23,0.025367,10,8.39559e-05,-3.65466,1.95843,0.0301261,0.378968,
2,1,0,1,0,15470.7,0.398319,0.39799,0.219852,23,0.0262611,10,8.74988e-05,-3.65787,28.4736,0.0020721,0.397893,
2,1,0,1,0,15474.5,0.417295,0.417013,0.218526,23,0.0271498,10,9.1128e-05,-3.6605,-2.33637,-0.0252528,0.416916,
2,1,0,1,0,15478.3,0.436272,0.435997,0.219277,23,0.0280358,10,9.56043e-05,-3.65901,65.2302,0.000904488,0.4359,
2,1,0,1,0,15482.1,0.455249,0.455012,0.220165,23,0.0289221,10,0.000100178,-3.65725,1.96696,0.0299956,0.454915,
2,1,0,1,0,15485.9,0.474226,0.473927,0.221014,23,0.0298121,10,0.000104744,-3.65558,1.45904,0.0404376,0.47383,
2,1,0,1,0,15489.7,0.493203,0.492937,0.223909,23,0.0307091,10,0.000110373,-3.64993,1.99471,0.0295782,0.492839,
2,1,0,0,0,15493.5,0.512181,0.51188,0.22908,23,0.0316199,10,0.000117261,-3.64001,0.907934,0.0649827,0.511779,
2,1,0,1,0,15497.3,0.531158,0.530877,0.237266,23,0.0325527,10,0.000125959,-3.62477,1.44595,0.0408037,0.530772,
2,1,0,0,0,15501.1,0.550135,0.549893,0.246749,23,0.0335185,10,0.000135685,-3.60775,0.629504,0.0937245,0.549785,
2,1,0,1,0,15504.8,0.569112,0.568832,0.261959,23,0.0345329,10,0.000149011,-3.58177,0.48326,0.122087,0.568717,
2,1,0,0,0,15508.6,0.588089,0.587782,0.289541,23,0.0356259,10,0.000170187,-3.53829,0.375035,0.157319,0.587655,
2,1,0,1,0,15512.4,0.607066,0.606775,0.336434,23,0.0368549,10,0.00020414,-3.4731,0.212412,0.277762,0.606627,
2,1,0,1,0,15516.2,0.626044,0.625781,0.433138,23,0.0383451,10,0.000271049,-3.36337,0.133767,0.441067,0.62559,
2,1,0,1,0,15520,0.64502,0.644748,0.633698,23,0.0403731,10,0.000408575,-3.19812,0.0950639,0.620635,0.644469,
2,1,0,1,0,15523.8,0.663997,0.663716,1.07059,23,0.0435605,10,0.000710568,-2.97038,0.0770694,0.765544,0.663245,
2,1,0,1,0,15527.6,0.682974,0.682735,1.94981,23,0.0491682,10,0.0013312,-2.71001,0.0709503,0.831568,0.681877,
2,1,0,1,0,15531.4,0.701951,0.701686,3.4839,23,0.0592985,10,0.00244461,-2.45793,0.0759484,0.776843,0.700153,
2,1,0,1,0,15535.2,0.720928,0.720645,5.76348,23,0.0766646,10,0.00415342,-2.23931,0.0891993,0.66144,0.718109,
2,1,0,1,0,15539,0.739905,0.739654,8.75822,23,0.104054,10,0.00647806,-2.05758,0.104674,0.563654,0.735801,
2,1,0,0,0,15542.8,0.758883,0.758617,12.4479,23,0.144114,10,0.00944315,-1.90491,0.120012,0.491617,0.75314,
2,1,0,1,0,15546.6,0.77786,0.777601,17.2152,23,0.200025,10,0.0133866,-1.76409,0.117618,0.501626,0.770026,
2,1,0,0,0,15550.4,0.796837,0.796576,23.3397,23,0.276703,10,0.0185918,-1.6319,0.119009,0.49576,0.786306,
2,1,0,1,0,15554.2,0.815814,0.815528,30.6531,23,0.378891,10,0.0249985,-1.51353,0.142967,0.412682,0.802041,
2,1,0,0,0,15558,0.834791,0.834541,38.3224,23,0.50978,10,0.0319816,-1.41655,0.177367,0.332643,0.817679,
2,1,0,0,0,15561.7,0.846727,0.846488,42.0815,23,0.663738,10,0.0356215,-1.37591,0.131412,0.448969,0.827972,
2,1,0,1,0,15565.5,0.827749,0.827511,33.3198,23,0.806261,10,0.0275725,-1.4773,0.138168,0.427018,0.812851,
2,1,0,1,0,15569.3,0.808772,0.808496,25.4537,23,0.91718,10,0.0205792,-1.59425,0.130558,0.451908,0.797297,
2,1,0,1,0,15573.1,0.789795,0.789511,19.5144,23,1.00332,10,0.0154068,-1.70964,0.115562,0.510549,0.780925,
2,1,0,1,0,15576.9,0.770818,0.770541,13.7731,23,1.06603,10,0.0106128,-1.86097,0.103188,0.571772,0.764481,
2,1,0,1,0,15580.7,0.751841,0.751567,9.28142,23,1.10931,10,0.00697561,-2.03239,0.0947505,0.622688,0.747483,
2,1,0,1,0,15584.5,0.732865,0.732605,5.90795,23,1.13775,10,0.00432819,-2.22856,0.0834631,0.706899,0.730005,
2,1,0,0,0,15588.2,0.713887,0.713638,3.50213,23,1.15527,10,0.00249925,-2.45567,0.0731173,0.806922,0.712097,
2,1,0,1,0,15592,0.69491,0.694639,1.88143,23,1.16521,10,0.00130691,-2.72551,0.0615976,0.957829,0.693811,
2,1,0,0,0,15595.8,0.675933,0.675676,0.886226,23,1.17023,10,0.000598802,-3.05246,0.0519895,1.13484,0.675286,
2,1,0,1,0,15599.6,0.656956,0.656676,0.34741,23,1.1724,10,0.000228136,-3.45916,0.0403472,1.46231,0.656523,
2,1,0,0,0,15603.4,0.637979,0.637696,0.0894809,23,1.17311,10,5.70616e-05,-4.04827,0.0237992,2.47907,0.637657,
2,0,0,1,0,15607.2,0.619002,0.61874,-0.0209751,23,1.17315,10,-1.29782e-05,-4.6783,-0.0133134,-4.43163,0.618749,
2,0,0,0,0,15611,0.600025,0.59975,-0.0690254,23,1.17291,10,-4.1398e-05,-4.16099,-0.0951993,-0.619752,0.599781,
2,0,0,1,0,15614.8,0.581047,0.580753,-0.0909695,23,1.17255,10,-5.28308e-05,-4.0411,-0.17546,-0.336259,0.580793,
2,0,0,1,0,15618.6,0.56207,0.561795,-0.10292,23,1.17212,10,-5.78201e-05,-3.9875,-0.718281,-0.0821406,0.56184,
2,0,0,1,0,15622.4,0.543093,0.542791,-0.109708,23,1.17167,10,-5.95484e-05,-3.95976,-0.915945,-0.0644144,0.542839,
2,0,0,1,0,15626.2,0.524116,0.523808,-0.11528,23,1.17119,10,-6.03848e-05,-3.93824,-0.558566,-0.105628,0.523859,
2,0,0,1,0,15630,0.505139,0.504841,-0.119775,23,1.17069,10,-6.04673e-05,-3.92163,-2.19579,-0.0268697,0.504894,
2,0,0,1,0,15633.8,0.486162,0.485871,-0.125304,23,1.17017,10,-6.08815e-05,-3.90204,-5.3662,-0.0109948,0.485926,
2,0,0,1,0,15637.6,0.467185,0.466881,-0.131311,23,1.16963,10,-6.13068e-05,-3.8817,-0.80059,-0.0736957,0.466938,
2,0,0,1,0,15641.4,0.448208,0.447904,-0.138519,23,1.16906,10,-6.20432e-05,-3.85849,-4.51081,-0.0130797,0.447965,
2,0,0,0,0,15645.2,0.429231,0.42891,-0.14472,23,1.16847,10,-6.2072e-05,-3.83947,-0.942366,-0.0626083,0.428974,
2,0,0,1,0,15649,0.410254,0.409983,-0.154423,23,1.16784,10,-6.33106e-05,-3.81129,-0.921762,-0.0640078,0.410051,
2,0,0,0,0,15652.8,0.391277,0.390989,-0.164165,23,1.16717,10,-6.41866e-05,-3.78472,-0.867732,-0.0679933,0.391061,
2,0,0,1,0,15656.6,0.3723,0.372036,-0.173843,23,1.16647,10,-6.46759e-05,-3.75984,-1.12544,-0.052424,0.372113,
2,0,0,1,0,15660.4,0.353322,0.353008,-0.183085,23,1.16573,10,-6.46306e-05,-3.73735,-0.679322,-0.0868513,0.353088,
2,0,0,1,0,15664.2,0.334345,0.334033,-0.196663,23,1.16495,10,-6.5692e-05,-3.70628,-0.657246,-0.0897685,0.33412,
2,0,0,1,0,15668,0.315368,0.315019,-0.207557,23,1.16412,10,-6.53844e-05,-3.68286,-0.58831,-0.100287,0.315111,
2,0,0,1,0,15671.7,0.296391,0.29611,-0.219003,23,1.16325,10,-6.48489e-05,-3.65955,-0.774145,-0.0762131,0.296207,
2,0,0,1,0,15675.5,0.277414,0.277082,-0.230167,23,1.16233,10,-6.37752e-05,-3.63796,-0.664417,-0.0887997,0.277184,
2,0,0,1,0,15679.3,0.258437,0.258161,-0.243633,23,1.16136,10,-6.28964e-05,-3.61326,-0.888856,-0.0663775,0.258268,
2,0,0,1,0,15683.1,0.239461,0.239145,-0.254791,23,1.16035,10,-6.09318e-05,-3.59382,-0.623017,-0.0947004,0.239257,
2,0,0,0,0,15686.9,0.220483,0.220187,-0.268018,23,1.15929,10,-5.90141e-05,-3.57184,-0.66418,-0.0888313,0.220305,
2,0,0,1,0,15690.7,0.201506,0.201155,-0.282312,23,1.15818,10,-5.67885e-05,-3.54927,-0.461393,-0.127874,0.201279,
2,0,0,0,0,15694.5,0.182529,0.182199,-0.305119,23,1.157,10,-5.55925e-05,-3.51553,-0.419296,-0.140712,0.182334,
2,0,0,1,0,15698.3,0.163552,0.163272,-0.351207,23,1.1557,10,-5.73423e-05,-3.45444,-0.209154,-0.282088,0.163427,
2,0,0,0,0,15702.1,0.144575,0.144246,-0.493709,23,1.15409,10,-7.12156e-05,-3.30653,-0.084363,-0.699359,0.144463,
2,0,0,1,0,15705.9,0.125598,0.125286,-0.745449,23,1.15162,10,-9.33944e-05,-3.12758,-0.263126,-0.224227,0.125614,
2,0,0,1,0,15709.7,0.10662,0.10634,-0.750589,23,1.14866,10,-7.98173e-05,-3.1246,0.678845,0.0869124,0.10667,
2,0,0,1,0,15713.5,0.0876433,0.0872767,-0.68599,23,1.14587,10,-5.98709e-05,-3.16368,0.489395,0.120557,0.0875785,
2,0,0,1,0,15717.3,0.0686664,0.0683118,-0.63529,23,1.1433,10,-4.33978e-05,-3.19703,0.660307,0.0893524,0.0685913,
2,0,0,1,0,15721.1,0.0496895,0.0493527,-0.588265,23,1.14091,10,-2.90325e-05,-3.23043,0.642222,0.0918686,0.0496115,
2,0,0,1,0,15724.9,0.0307126,0.0304054,-0.537088,23,1.1387,10,-1.63304e-05,-3.26995,0.505996,0.116602,0.0306418,
2,0,0,1,0,15728.7,0.0117356,0.0114497,-0.501621,23,1.13666,10,-5.74341e-06,-3.29962,1.15649,0.0510164,0.0116704,
2,0,0,0,0,15731,0.000274105,-0.000115363,-0.502903,23,1.13547,10,5.80164e-08,-3.29852, , ,0.000105914,