Folder: Figs_alphaMnO2_OER_Tafel_sleope/Figure_codes/Fig_3-5/workspace_calculate_alpha_eff (part 29)

File: 20221101_1-115_003_TrumpetPlot_ParaChange_from10_every3_16_CV_C01_49.csv
mode,ox/red,error,control changes,counter inc.,time/s,control/V,Ewe/V,<I>/mA,cycle number,(Q-Qo)/C,I Range,P/W,log(|I|),Tafel slope mV/dec,alpha_eff,E-IR/V,
2,0,0,0,0,33122.2,2.44065e-05,-0.000363498,-0.0873094,50,0.0000000E+000,10,3.17368e-08,-4.05894, , ,-0.000325082,
2,1,0,1,0,33126,0.0187763,0.0184211,0.218532,50,0.000728726,10,4.0256e-06,-3.66048,0.153198,0.385122,0.018325,
2,1,0,1,0,33129.8,0.0377538,0.0373997,0.286499,50,0.00175683,10,1.0715e-05,-3.54288,0.180273,0.327281,0.0372736,
2,1,0,0,0,33133.5,0.0567309,0.0564096,0.348125,50,0.00303601,10,1.96376e-05,-3.45826,0.275018,0.214532,0.0562564,
2,1,0,1,0,33137.3,0.075708,0.0753707,0.395882,50,0.00452464,10,2.98379e-05,-3.40243,0.536981,0.109873,0.0751965,
2,1,0,0,0,33141.1,0.094685,0.0943796,0.451092,50,0.00618489,10,4.25738e-05,-3.34574,0.247012,0.238854,0.0941811,
2,1,0,1,0,33144.9,0.113662,0.113321,0.550882,50,0.00815782,10,6.24263e-05,-3.25894,0.330164,0.178699,0.113078,
2,1,0,0,0,33148.7,0.132639,0.13228,0.597994,50,0.0104267,10,7.91024e-05,-3.2233,-0.763253,-0.0773007,0.132016,
2,1,0,1,0,33152.5,0.151617,0.151293,0.392985,50,0.0124508,10,5.94559e-05,-3.40562,-0.0752107,-0.784463,0.15112,
2,1,0,1,0,33156.3,0.170594,0.170299,0.289188,50,0.0137488,10,4.92483e-05,-3.53882,-0.302689,-0.194919,0.170171,
2,1,0,1,0,33160.1,0.189571,0.189273,0.267316,50,0.0148604,10,5.05958e-05,-3.57298,-0.755851,-0.0780577,0.189156,
2,1,0,1,0,33163.9,0.208547,0.208245,0.258752,50,0.0159173,10,5.38838e-05,-3.58712,-2.3295,-0.0253273,0.208131,
2,1,0,1,0,33167.7,0.227524,0.227201,0.250298,50,0.0169436,10,5.6868e-05,-3.60154,-0.694981,-0.0848944,0.227091,
2,1,0,1,0,33171.5,0.246501,0.246201,0.247047,50,0.017948,10,6.08232e-05,-3.60722,-0.953279,-0.0618917,0.246092,
2,1,0,0,0,33175.3,0.265479,0.265207,0.242828,50,0.0189352,10,6.43996e-05,-3.6147,-0.913107,-0.0646146,0.2651,
2,1,0,1,0,33179.1,0.284456,0.284171,0.238798,50,0.0199054,10,6.78596e-05,-3.62197,-7.48574,-0.00788165,0.284066,
2,1,0,0,0,33182.9,0.303433,0.303143,0.234789,50,0.0208576,10,7.11747e-05,-3.62932,-1.221,-0.0483209,0.30304,
2,1,0,1,0,33186.7,0.32241,0.322073,0.230082,50,0.0217933,10,7.41033e-05,-3.63812,7.40745,0.00796495,0.321972,
2,1,0,0,0,33190.5,0.341387,0.341054,0.227478,50,0.0227158,10,7.75823e-05,-3.64306,7.7522,0.00761074,0.340954,
2,1,0,1,0,33194.3,0.360364,0.360093,0.226206,50,0.023628,10,8.14551e-05,-3.6455,12.444,0.00474125,0.359993,
2,1,0,1,0,33198.1,0.379342,0.379041,0.224418,50,0.0245311,10,8.50636e-05,-3.64894,-1.85865,-0.0317434,0.378942,
2,1,0,1,0,33201.9,0.398319,0.397976,0.221987,50,0.0254268,10,8.83455e-05,-3.65367,16.1939,0.00364334,0.397879,
2,1,0,1,0,33205.7,0.417295,0.417019,0.22121,50,0.0263173,10,9.22488e-05,-3.6552,-2.04722,-0.0288196,0.416921,
2,1,0,1,0,33209.5,0.436272,0.435942,0.221699,50,0.0272049,10,9.66478e-05,-3.65424,4.86053,0.0121386,0.435844,
2,1,0,1,0,33213.3,0.455249,0.45496,0.22128,50,0.0280907,10,0.000100673,-3.65506,1.46641,0.0402344,0.454863,
2,1,0,1,0,33217,0.474226,0.473907,0.222962,50,0.0289798,10,0.000105663,-3.65177,1.93771,0.0304484,0.473809,
2,1,0,1,0,33220.8,0.493203,0.492919,0.226981,50,0.0298771,10,0.000111884,-3.64401,3.55177,0.0166114,0.492819,
2,1,0,0,0,33224.6,0.512181,0.511885,0.230481,50,0.030787,10,0.00011798,-3.63736,1.65009,0.0357557,0.511784,
2,1,0,1,0,33228.4,0.531158,0.530827,0.237213,50,0.0317164,10,0.000125919,-3.62486,1.23642,0.0477184,0.530723,
2,1,0,0,0,33232.2,0.550135,0.549846,0.245831,50,0.032673,10,0.000135169,-3.60936,0.798521,0.0738866,0.549738,
2,1,0,1,0,33236,0.569112,0.5688,0.260051,50,0.0336727,10,0.000147917,-3.58494,0.680604,0.0866877,0.568686,
2,1,0,0,0,33239.8,0.588089,0.58777,0.281748,50,0.0347383,10,0.000165603,-3.55014,0.503203,0.117249,0.587646,
2,1,0,1,0,33243.6,0.607066,0.606714,0.319644,50,0.0359136,10,0.000193933,-3.49533,0.276872,0.213095,0.606573,
2,1,0,1,0,33247.4,0.626044,0.625718,0.391974,50,0.0372892,10,0.000245265,-3.40674,0.162584,0.362889,0.625546,
2,1,0,1,0,33251.2,0.64502,0.644673,0.541036,50,0.0390674,10,0.000348791,-3.26677,0.113159,0.521389,0.644435,
2,1,0,1,0,33255,0.663997,0.663726,0.853946,50,0.0416839,10,0.000566786,-3.06857,0.084328,0.699649,0.66335,
2,1,0,1,0,33258.8,0.682974,0.682715,1.47313,50,0.0460188,10,0.00100573,-2.83176,0.0763526,0.77273,0.682067,
2,1,0,1,0,33262.6,0.701951,0.701699,2.54599,50,0.0535262,10,0.00178652,-2.59414,0.0806583,0.731481,0.700579,
2,1,0,1,0,33266.4,0.720928,0.720678,4.15176,50,0.0661051,10,0.00299208,-2.38177,0.0919357,0.641753,0.718851,
2,1,0,1,0,33270.2,0.739905,0.739618,6.31418,50,0.085826,10,0.00467008,-2.19968,0.10664,0.553265,0.73684,
2,1,0,0,0,33274,0.758883,0.758605,9.07508,50,0.114865,10,0.00688441,-2.04215,0.118435,0.498163,0.754612,
2,1,0,1,0,33277.8,0.77786,0.777592,12.6507,50,0.155806,10,0.00983706,-1.89789,0.117512,0.502077,0.772026,
2,1,0,0,0,33281.6,0.796837,0.796561,17.4724,50,0.212548,10,0.0139178,-1.75765,0.118711,0.497006,0.788873,
2,1,0,1,0,33285.4,0.815814,0.815597,23.7707,50,0.290468,10,0.0193873,-1.62396,0.13134,0.449216,0.805138,
2,1,0,0,0,33289.2,0.834791,0.834543,31.1994,50,0.394554,10,0.0260372,-1.50585,0.140811,0.419001,0.820815,
2,1,0,0,0,33292.9,0.846726,0.846461,34.8121,50,0.521868,10,0.0294671,-1.45827,0.116648,0.505794,0.831144,
2,1,0,1,0,33296.7,0.827749,0.827461,26.6343,50,0.63845,10,0.0220389,-1.57456,0.124882,0.472444,0.815742,
2,1,0,1,0,33300.4,0.808772,0.808486,19.6379,50,0.725713,10,0.0158769,-1.70691,0.118454,0.498082,0.799845,
2,1,0,1,0,33304.2,0.789795,0.789483,14.067,50,0.789213,10,0.0111057,-1.8518,0.111333,0.529939,0.783294,
2,1,0,1,0,33308,0.770818,0.770564,9.79217,50,0.834071,10,0.00754549,-2.00912,0.104908,0.562399,0.766255,
2,1,0,1,0,33311.8,0.751841,0.751568,6.60916,50,0.864837,10,0.00496723,-2.17985,0.10104,0.58393,0.74866,
2,1,0,1,0,33315.6,0.732865,0.73264,4.25783,50,0.885199,10,0.00311946,-2.37081,0.0876403,0.673206,0.730766,
2,1,0,0,0,33319.4,0.713887,0.713599,2.55267,50,0.897892,10,0.00182158,-2.593,0.0762206,0.774069,0.712475,
2,1,0,1,0,33323.2,0.69491,0.694642,1.38396,50,0.905169,10,0.000961355,-2.85888,0.0635637,0.928203,0.694033,
2,1,0,0,0,33327,0.675933,0.675664,0.647397,50,0.90886,10,0.000437423,-3.18883,0.0502598,1.1739,0.675379,
2,1,0,1,0,33330.8,0.656956,0.656682,0.241434,50,0.910419,10,0.000158545,-3.6172,0.0372281,1.58483,0.656576,
2,1,0,0,0,33334.6,0.637979,0.63771,0.0432361,50,0.910868,10,2.75721e-05,-4.36415,0.0137217,4.29976,0.637691,
2,0,0,1,0,33338.4,0.619002,0.618671,-0.0427445,50,0.910802,10,-2.64448e-05,-4.36912,-0.0364665,-1.61792,0.61869,
2,0,0,0,0,33342.2,0.600024,0.599727,-0.0802702,50,0.910515,10,-4.81402e-05,-4.09545,-0.150655,-0.391624,0.599762,
2,0,0,1,0,33346,0.581047,0.580761,-0.0988208,50,0.910129,10,-5.73913e-05,-4.00515,-0.344569,-0.171229,0.580805,
2,0,0,1,0,33349.8,0.56207,0.56179,-0.107339,50,0.909695,10,-6.03022e-05,-3.96924,-0.433996,-0.135946,0.561837,
2,0,0,1,0,33353.6,0.543093,0.542786,-0.112992,50,0.909234,10,-6.13307e-05,-3.94695,-0.588983,-0.100173,0.542836,
2,0,0,1,0,33357.4,0.524116,0.523826,-0.118846,50,0.908753,10,-6.22548e-05,-3.92501,-1.39785,-0.0422076,0.523879,
2,0,0,1,0,33361.2,0.505139,0.504833,-0.121797,50,0.908255,10,-6.14872e-05,-3.91436,-1.8985,-0.0310772,0.504887,
2,0,0,1,0,33365,0.486162,0.485854,-0.127192,50,0.907738,10,-6.17966e-05,-3.89554,-1.63567,-0.0360708,0.48591,
2,0,0,1,0,33368.8,0.467185,0.466827,-0.132345,50,0.9072,10,-6.17822e-05,-3.87829,-0.885706,-0.0666135,0.466885,
2,0,0,1,0,33372.6,0.448208,0.447905,-0.140342,50,0.906636,10,-6.28597e-05,-3.85281,-0.950952,-0.0620431,0.447967,
2,0,0,0,0,33376.4,0.429231,0.428919,-0.147538,50,0.906043,10,-6.32819e-05,-3.8311,-3.74575,-0.0157512,0.428984,
2,0,0,1,0,33380.1,0.410254,0.409919,-0.156808,50,0.905417,10,-6.42785e-05,-3.80463,-1.95277,-0.0302136,0.409988,
2,0,0,0,0,33383.9,0.391277,0.390988,-0.165823,50,0.904757,10,-6.48346e-05,-3.78036,-0.950707,-0.0620591,0.391061,
2,0,0,1,0,33387.7,0.3723,0.371999,-0.175453,50,0.904059,10,-6.52683e-05,-3.75584,-0.804186,-0.0733661,0.372076,
2,0,0,1,0,33391.5,0.353322,0.352997,-0.185436,50,0.903321,10,-6.54583e-05,-3.73181,-0.650633,-0.0906809,0.353078,
2,0,0,1,0,33395.3,0.334345,0.334074,-0.197141,50,0.902543,10,-6.58596e-05,-3.70522,-0.687567,-0.0858098,0.33416,
2,0,0,1,0,33399.1,0.315368,0.31504,-0.208581,50,0.90172,10,-6.57113e-05,-3.68072,-0.986393,-0.0598139,0.315131,
2,0,0,1,0,33402.9,0.296391,0.296085,-0.220158,50,0.900852,10,-6.51854e-05,-3.65727,-0.90558,-0.0651516,0.296182,
2,0,0,1,0,33406.7,0.277414,0.277085,-0.232222,50,0.899937,10,-6.43453e-05,-3.6341,-1.02117,-0.0577771,0.277187,
2,0,0,1,0,33410.5,0.258437,0.258114,-0.244078,50,0.898975,10,-6.29999e-05,-3.61247,-0.737261,-0.0800259,0.258221,
2,0,0,1,0,33414.3,0.239461,0.239156,-0.25577,50,0.897968,10,-6.11689e-05,-3.59215,-1.18584,-0.0497536,0.239269,
2,0,0,0,0,33418.1,0.220483,0.220173,-0.267725,50,0.896916,10,-5.89458e-05,-3.57231,-0.790742,-0.0746135,0.220291,
2,0,0,1,0,33421.9,0.201506,0.20122,-0.280822,50,0.895815,10,-5.6507e-05,-3.55157,-0.579406,-0.101828,0.201343,
2,0,0,0,0,33425.7,0.182529,0.182227,-0.301293,50,0.894651,10,-5.49037e-05,-3.52101,-0.338202,-0.174452,0.182359,
2,0,0,1,0,33429.5,0.163552,0.163241,-0.335774,50,0.893389,10,-5.48122e-05,-3.47395,-0.28075,-0.210152,0.163389,
2,0,0,0,0,33433.3,0.144575,0.144269,-0.441068,50,0.891891,10,-6.36323e-05,-3.35549,-0.101071,-0.583749,0.144463,
2,0,0,1,0,33437.1,0.125598,0.125273,-0.666729,50,0.88971,10,-8.35235e-05,-3.17605,-0.194845,-0.302805,0.125567,
2,0,0,1,0,33440.9,0.10662,0.106351,-0.70978,50,0.886969,10,-7.54859e-05,-3.14888,1.77953,0.0331549,0.106663,
2,0,0,1,0,33444.7,0.0876433,0.087298,-0.669143,50,0.884278,10,-5.84148e-05,-3.17448,0.551753,0.106932,0.0875924,
2,0,0,1,0,33448.5,0.0686664,0.0683529,-0.623891,50,0.881762,10,-4.26448e-05,-3.20489,0.593087,0.0994795,0.0686274,
2,0,0,1,0,33452.3,0.0496895,0.0493474,-0.579603,50,0.879406,10,-2.86019e-05,-3.23687,0.56371,0.104664,0.0496024,
2,0,0,1,0,33456.1,0.0307126,0.030377,-0.531279,50,0.877227,10,-1.61387e-05,-3.27468,0.486657,0.121235,0.0306108,
2,0,0,1,0,33459.9,0.0117356,0.0113936,-0.499126,50,0.875212,10,-5.68684e-06,-3.30179,1.02891,0.0573424,0.0116132,
2,0,0,0,0,33462.1,0.000274105,-0.000112977,-0.499996,50,0.87403,10,5.64881e-08,-3.30103, , ,0.000107021,

File: 20221101_1-115_003_TrumpetPlot_ParaChange_from10_every3_16_CV_C01_50.csv
mode,ox/red,error,control changes,counter inc.,time/s,control/V,Ewe/V,<I>/mA,cycle number,(Q-Qo)/C,I Range,P/W,log(|I|),Tafel slope mV/dec,alpha_eff,E-IR/V,
2,0,0,0,0,33492.2,2.44065e-05,-0.000325324,-0.0930337,51,0.0000000E+000,10,3.02661e-08,-4.03136, , ,-0.000284389,
2,1,0,1,0,33496,0.0187763,0.0184688,0.209632,51,0.000692356,10,3.87167e-06,-3.67854,0.14211,0.415172,0.0183766,
2,1,0,1,0,33499.8,0.0377538,0.0373891,0.275871,51,0.00168082,10,1.03146e-05,-3.55929,0.169495,0.348092,0.0372677,
2,1,0,0,0,33503.5,0.0567309,0.0563704,0.338928,51,0.00292134,10,1.91055e-05,-3.46989,0.29762,0.198239,0.0562212,
2,1,0,1,0,33507.3,0.075708,0.0754015,0.387026,51,0.00437356,10,2.91823e-05,-3.41226,0.438874,0.134435,0.0752312,
2,1,0,0,0,33511.1,0.094685,0.0944029,0.44281,51,0.00600006,10,4.18025e-05,-3.35378,0.237766,0.248144,0.0942081,
2,1,0,1,0,33514.9,0.113662,0.113323,0.542998,51,0.00793774,10,6.1534e-05,-3.2652,0.332121,0.177646,0.113084,
2,1,0,0,0,33518.7,0.132639,0.132342,0.587218,51,0.0101657,10,7.77136e-05,-3.2312,-0.775828,-0.0760478,0.132084,
2,1,0,1,0,33522.5,0.151617,0.15131,0.383157,51,0.0121471,10,5.79754e-05,-3.41662,-0.0738642,-0.798763,0.151141,
2,1,0,1,0,33526.3,0.170594,0.170309,0.282068,51,0.0134112,10,4.80388e-05,-3.54965,-0.266757,-0.221175,0.170185,
2,1,0,1,0,33530.1,0.189571,0.189214,0.258909,51,0.0144875,10,4.89891e-05,-3.58685,-0.633294,-0.0931637,0.1891,
2,1,0,1,0,33533.9,0.208547,0.208247,0.249043,51,0.0155091,10,5.18625e-05,-3.60372,-1.99784,-0.0295319,0.208137,
2,1,0,1,0,33537.7,0.227524,0.227214,0.242451,51,0.0165005,10,5.50883e-05,-3.61538,-2.25541,-0.0261593,0.227108,
2,1,0,1,0,33541.5,0.246501,0.246191,0.237499,51,0.0174702,10,5.84703e-05,-3.62434,-1.17574,-0.0501811,0.246087,
2,1,0,0,0,33545.3,0.265479,0.265191,0.23463,51,0.0184232,10,6.22218e-05,-3.62962,-1.66327,-0.0354723,0.265088,
2,1,0,1,0,33549.1,0.284456,0.284118,0.230948,51,0.0193611,10,6.56165e-05,-3.63649,-6.41836,-0.00919238,0.284016,
2,1,0,0,0,33552.9,0.303433,0.303106,0.226534,51,0.0202823,10,6.86638e-05,-3.64487,-2.50448,-0.0235578,0.303006,
2,1,0,1,0,33556.7,0.32241,0.3221,0.223282,51,0.0211881,10,7.1919e-05,-3.65115,-30.3324,-0.00194512,0.322002,
2,1,0,0,0,33560.5,0.341387,0.341061,0.220209,51,0.0220811,10,7.51047e-05,-3.65716,5.23953,0.0112606,0.340964,
2,1,0,1,0,33564.3,0.360364,0.360051,0.219367,51,0.0229638,10,7.89832e-05,-3.65883,14.6367,0.00403096,0.359954,
2,1,0,1,0,33568.1,0.379342,0.379047,0.215839,51,0.023839,10,8.18132e-05,-3.66587,3.44725,0.0171151,0.378952,
2,1,0,1,0,33571.9,0.398319,0.398,0.214906,51,0.0247066,10,8.55324e-05,-3.66775,-1.3934,-0.0423424,0.397905,
2,1,0,1,0,33575.7,0.417295,0.417034,0.214444,51,0.0255691,10,8.94302e-05,-3.66869,-5.74472,-0.0102703,0.416939,
2,1,0,1,0,33579.5,0.436272,0.435987,0.214605,51,0.0264283,10,9.35653e-05,-3.66836,1.97235,0.0299135,0.435893,
2,1,0,1,0,33583.3,0.455249,0.454985,0.216023,51,0.0272876,10,9.82872e-05,-3.6655,1.34184,0.0439695,0.45489,
2,1,0,1,0,33587,0.474226,0.473939,0.216403,51,0.0281504,10,0.000102562,-3.66474,5.55976,0.010612,0.473844,
2,1,0,1,0,33590.8,0.493203,0.492931,0.22036,51,0.0290209,10,0.000108622,-3.65687,0.947894,0.0622432,0.492834,
2,1,0,0,0,33594.6,0.512181,0.511883,0.224655,51,0.0299046,10,0.000114997,-3.64848,3.41724,0.0172654,0.511784,
2,1,0,1,0,33598.4,0.531158,0.5309,0.230019,51,0.0308077,10,0.000122117,-3.63824,0.930836,0.0633839,0.530799,
2,1,0,0,0,33602.2,0.550135,0.549804,0.238819,51,0.031739,10,0.000131304,-3.62193,0.534787,0.110324,0.549699,
2,1,0,1,0,33606,0.569112,0.568818,0.253127,51,0.0327123,10,0.000143983,-3.59666,0.971936,0.0607036,0.568707,
2,1,0,0,0,33609.8,0.588089,0.587793,0.275263,51,0.0337513,10,0.000161797,-3.56025,0.534127,0.110461,0.587672,
2,1,0,1,0,33613.6,0.607066,0.606783,0.313925,51,0.0349005,10,0.000190485,-3.50317,0.296937,0.198695,0.606645,
2,1,0,1,0,33617.4,0.626044,0.625742,0.384253,51,0.0362478,10,0.000240444,-3.41538,0.160638,0.367284,0.625573,
2,1,0,1,0,33621.2,0.64502,0.644744,0.532323,51,0.0379939,10,0.000343212,-3.27382,0.113286,0.520805,0.64451,
2,1,0,1,0,33625,0.663997,0.663705,0.843624,51,0.0405733,10,0.000559918,-3.07385,0.0825051,0.715107,0.663334,
2,1,0,1,0,33628.8,0.682974,0.682654,1.46033,51,0.0448641,10,0.000996902,-2.83555,0.077096,0.765279,0.682011,
2,1,0,1,0,33632.6,0.701951,0.701674,2.5272,51,0.0523108,10,0.00177327,-2.59736,0.0822479,0.717343,0.700562,
2,1,0,1,0,33636.4,0.720928,0.720649,4.12348,51,0.0647997,10,0.00297158,-2.38474,0.0932568,0.632662,0.718835,
2,1,0,1,0,33640.2,0.739905,0.739641,6.27195,51,0.0843863,10,0.00463899,-2.2026,0.106002,0.556593,0.736881,
2,1,0,0,0,33644,0.758883,0.758618,9.02669,51,0.113252,10,0.00684781,-2.04447,0.118956,0.49598,0.754646,
2,1,0,1,0,33647.8,0.77786,0.777579,12.6005,51,0.154013,10,0.00979787,-1.89961,0.11998,0.49175,0.772035,
2,1,0,0,0,33651.6,0.796837,0.796572,17.4508,51,0.210609,10,0.0139008,-1.75818,0.118101,0.499572,0.788894,
2,1,0,1,0,33655.4,0.815814,0.815505,23.7329,51,0.288402,10,0.0193543,-1.62465,0.123345,0.478333,0.805062,
2,1,0,0,0,33659.2,0.834791,0.834539,28.9656,51,0.391811,10,0.0241729,-1.53812,-0.679144,-0.0868741,0.821794,
2,1,0,0,0,33662.9,0.846726,0.846517,32.7559,51,0.510645,10,0.0277285,-1.48471,0.121073,0.48731,0.832105,
2,1,0,1,0,33666.7,0.827749,0.827464,24.9,51,0.619495,10,0.0206038,-1.6038,0.135447,0.435595,0.816508,
2,1,0,1,0,33670.4,0.808772,0.808459,18.4881,51,0.701484,10,0.0149469,-1.73311,0.115229,0.512025,0.800324,
2,1,0,1,0,33674.2,0.789795,0.789558,13.2805,51,0.761284,10,0.0104857,-1.87679,0.113906,0.517971,0.783714,
2,1,0,1,0,33678,0.770818,0.770573,9.29932,51,0.803742,10,0.00716581,-2.03155,0.10931,0.539751,0.766482,
2,1,0,1,0,33681.8,0.751841,0.751529,6.29963,51,0.833008,10,0.00473435,-2.20069,0.102356,0.576419,0.748757,
2,1,0,1,0,33685.6,0.732865,0.732568,4.08285,51,0.852469,10,0.00299097,-2.38904,0.0893296,0.660476,0.730772,
2,1,0,0,0,33689.4,0.713887,0.713594,2.45798,51,0.864666,10,0.001754,-2.60942,0.077672,0.759605,0.712513,
2,1,0,1,0,33693.2,0.69491,0.694617,1.33398,51,0.871678,10,0.000926608,-2.87485,0.063296,0.932128,0.69403,
2,1,0,0,0,33697,0.675933,0.675712,0.621435,51,0.875237,10,0.000419911,-3.2066,0.0505538,1.16707,0.675439,
2,1,0,1,0,33700.8,0.656956,0.656702,0.227813,51,0.876731,10,0.000149606,-3.64242,0.0355816,1.65816,0.656602,
2,1,0,0,0,33704.6,0.637979,0.637713,0.0350693,51,0.877145,10,2.23641e-05,-4.45507,0.01071,5.50888,0.637697,
2,0,0,1,0,33708.4,0.619002,0.618706,-0.048563,51,0.877057,10,-3.00462e-05,-4.31369,-0.0396636,-1.48751,0.618727,
2,0,0,0,0,33712.2,0.600024,0.599737,-0.0859756,51,0.876753,10,-5.15628e-05,-4.06562,-0.192085,-0.307155,0.599775,
2,0,0,1,0,33716,0.581047,0.580746,-0.10348,51,0.876351,10,-6.00957e-05,-3.98514,-0.289688,-0.203667,0.580792,
2,0,0,1,0,33719.8,0.56207,0.561763,-0.113026,51,0.875902,10,-6.3494e-05,-3.94682,-15.5912,-0.00378419,0.561813,
2,0,0,1,0,33723.6,0.543093,0.542763,-0.117579,51,0.875428,10,-6.38176e-05,-3.92967,-0.665999,-0.0885887,0.542815,
2,0,0,1,0,33727.4,0.524116,0.523814,-0.123298,51,0.874933,10,-6.45851e-05,-3.90904,-10.3214,-0.00571628,0.523868,
2,0,0,1,0,33731.2,0.505139,0.504859,-0.126474,51,0.874422,10,-6.38516e-05,-3.898,-1.26233,-0.046739,0.504915,
2,0,0,1,0,33735,0.486162,0.485816,-0.132266,51,0.873892,10,-6.42568e-05,-3.87855,-1.25342,-0.0470711,0.485874,
2,0,0,1,0,33738.8,0.467185,0.466846,-0.137064,51,0.873342,10,-6.39879e-05,-3.86308,-1.48981,-0.0396025,0.466906,
2,0,0,1,0,33742.6,0.448208,0.447883,-0.144567,51,0.872766,10,-6.47491e-05,-3.83993,-0.848389,-0.0695436,0.447947,
2,0,0,0,0,33746.4,0.429231,0.428928,-0.151108,51,0.872162,10,-6.48147e-05,-3.82071,-2.79703,-0.0210938,0.428995,
2,0,0,1,0,33750.1,0.410254,0.409923,-0.160811,51,0.871524,10,-6.592e-05,-3.79368,-1.67528,-0.035218,0.409993,
2,0,0,0,0,33753.9,0.391277,0.390945,-0.169104,51,0.870853,10,-6.61104e-05,-3.77185,-0.691548,-0.0853159,0.391019,
2,0,0,1,0,33757.7,0.3723,0.37198,-0.179293,51,0.870144,10,-6.66934e-05,-3.74644,-0.76476,-0.0771484,0.372059,
2,0,0,1,0,33761.5,0.353322,0.353021,-0.190043,51,0.869396,10,-6.7089e-05,-3.72115,-0.978651,-0.0602871,0.353104,
2,0,0,1,0,33765.3,0.334345,0.334062,-0.20019,51,0.868608,10,-6.68758e-05,-3.69856,-0.731465,-0.0806601,0.33415,
2,0,0,1,0,33769.1,0.315368,0.315057,-0.212074,51,0.867777,10,-6.68154e-05,-3.67351,-0.713018,-0.0827469,0.315151,
2,0,0,1,0,33772.9,0.296391,0.296092,-0.224167,51,0.8669,10,-6.63741e-05,-3.64943,-0.696113,-0.0847564,0.296191,
2,0,0,1,0,33776.7,0.277414,0.277106,-0.23542,51,0.865978,10,-6.52362e-05,-3.62816,-0.733016,-0.0804893,0.277209,
2,0,0,1,0,33780.5,0.258437,0.258114,-0.247932,51,0.865009,10,-6.39947e-05,-3.60567,-0.989642,-0.0596175,0.258223,
2,0,0,1,0,33784.3,0.239461,0.239127,-0.25952,51,0.863995,10,-6.2058e-05,-3.58583,-1.17145,-0.050365,0.239241,
2,0,0,0,0,33788.1,0.220483,0.220144,-0.270432,51,0.862938,10,-5.9534e-05,-3.56794,-0.502859,-0.117329,0.220263,
2,0,0,1,0,33791.9,0.201506,0.201166,-0.283877,51,0.861831,10,-5.71063e-05,-3.54687,-0.483014,-0.12215,0.201291,
2,0,0,0,0,33795.7,0.182529,0.182215,-0.303036,51,0.860663,10,-5.52178e-05,-3.51851,-0.514107,-0.114762,0.182348,
2,0,0,1,0,33799.5,0.163552,0.163202,-0.338511,51,0.859398,10,-5.52457e-05,-3.47043,-0.287816,-0.204992,0.163351,
2,0,0,0,0,33803.3,0.144575,0.144232,-0.440575,51,0.857904,10,-6.35452e-05,-3.35598,-0.0973344,-0.606158,0.144426,
2,0,0,1,0,33807.1,0.125598,0.125277,-0.663787,51,0.855738,10,-8.3157e-05,-3.17797,-0.186208,-0.316851,0.125569,
2,0,0,1,0,33810.9,0.10662,0.106275,-0.708449,51,0.853015,10,-7.52904e-05,-3.14969,1.51118,0.0390423,0.106587,
2,0,0,1,0,33814.7,0.0876433,0.0873139,-0.670855,51,0.850332,10,-5.85749e-05,-3.17337,0.531233,0.111062,0.0876091,
2,0,0,1,0,33818.5,0.0686664,0.0683136,-0.625659,51,0.847816,10,-4.2741e-05,-3.20366,0.722092,0.081707,0.0685889,
2,0,0,1,0,33822.3,0.0496895,0.0493346,-0.58093,51,0.845459,10,-2.866e-05,-3.23588,0.478609,0.123274,0.0495903,
2,0,0,1,0,33826.1,0.0307126,0.0304171,-0.532319,51,0.843282,10,-1.61916e-05,-3.27383,0.561278,0.105117,0.0306514,
2,0,0,1,0,33829.9,0.0117356,0.0114286,-0.499377,51,0.841271,10,-5.70717e-06,-3.30157,1.51285,0.0389992,0.0116483,
2,0,0,0,0,33832.1,0.000274105,-0.000121328,-0.49973,51,0.84009,10,6.06311e-08,-3.30126, , ,9.85533e-05,