Folder: Figs_alphaMnO2_OER_Tafel_sleope/Figure_codes/Fig_3-5/workspace_calculate_alpha_eff (part 49)

File: 20221101_1-115_003_TrumpetPlot_ParaChange_from10_every3_16_CV_C01_89.csv
mode,ox/red,error,control changes,counter inc.,time/s,control/V,Ewe/V,<I>/mA,cycle number,(Q-Qo)/C,I Range,P/W,log(|I|),Tafel slope mV/dec,alpha_eff,E-IR/V,
2,0,0,0,0,59103.9,2.44065e-05,-0.000458935,-0.109571,90,0.0000000E+000,10,5.02857e-08,-3.96031, , ,-0.000410724,
2,1,0,1,0,59107.7,0.0187763,0.0183883,0.204552,90,0.000655133,10,3.76137e-06,-3.6892,0.151021,0.390675,0.0182983,
2,1,0,1,0,59111.4,0.0377538,0.0374167,0.266891,90,0.00159916,10,9.98617e-06,-3.57367,0.182772,0.322807,0.0372992,
2,1,0,0,0,59115.2,0.0567309,0.0563693,0.327333,90,0.00278143,10,1.84515e-05,-3.48501,0.266675,0.221243,0.0562253,
2,1,0,1,0,59119,0.075708,0.0753379,0.372006,90,0.00416344,10,2.80261e-05,-3.42945,0.47629,0.123874,0.0751742,
2,1,0,0,0,59122.8,0.094685,0.09437,0.423268,90,0.00570847,10,3.99438e-05,-3.37338,0.262592,0.224683,0.0941838,
2,1,0,1,0,59126.6,0.113662,0.113299,0.515556,90,0.00753888,10,5.84121e-05,-3.28772,0.342031,0.172499,0.113072,
2,1,0,0,0,59130.4,0.132639,0.132321,0.547992,90,0.00963098,10,7.25109e-05,-3.26123,-0.492411,-0.119819,0.13208,
2,1,0,1,0,59134.2,0.151617,0.151256,0.357838,90,0.0114568,10,5.4125e-05,-3.44631,-0.082116,-0.718496,0.151098,
2,1,0,1,0,59138,0.170594,0.17025,0.273433,90,0.0126536,10,4.65519e-05,-3.56315,-0.325685,-0.181156,0.170129,
2,1,0,1,0,59141.8,0.189571,0.18922,0.257459,90,0.0136999,10,4.87165e-05,-3.58929,-1.15931,-0.0508925,0.189107,
2,1,0,1,0,59145.6,0.208547,0.20824,0.249806,90,0.0147038,10,5.20196e-05,-3.6024,-1.90948,-0.0308984,0.20813,
2,1,0,1,0,59149.4,0.227524,0.227192,0.24574,90,0.0156864,10,5.58303e-05,-3.60952,-0.673053,-0.0876603,0.227084,
2,1,0,1,0,59153.2,0.246501,0.246141,0.242081,90,0.0166536,10,5.95861e-05,-3.61604,-1.48866,-0.039633,0.246035,
2,1,0,0,0,59157,0.265479,0.265155,0.237472,90,0.0176056,10,6.29668e-05,-3.62439,-7.17067,-0.00822796,0.26505,
2,1,0,1,0,59160.8,0.284456,0.284117,0.233837,90,0.0185419,10,6.6437e-05,-3.63109,-2.18843,-0.0269599,0.284014,
2,1,0,0,0,59164.6,0.303433,0.303135,0.229901,90,0.0194612,10,6.96912e-05,-3.63846,-1.61871,-0.0364488,0.303034,
2,1,0,1,0,59168.4,0.32241,0.322042,0.226852,90,0.0203663,10,7.3056e-05,-3.64426,-3.2264,-0.0182866,0.321943,
2,1,0,0,0,59172.2,0.341387,0.341077,0.224526,90,0.0212588,10,7.65805e-05,-3.64873,28.1108,0.00209884,0.340978,
2,1,0,1,0,59176,0.360364,0.360003,0.222119,90,0.0221409,10,7.99633e-05,-3.65342,-32.8069,-0.0017984,0.359905,
2,1,0,1,0,59179.8,0.379342,0.379019,0.220505,90,0.0230145,10,8.35754e-05,-3.65658,83.2741,0.000708503,0.378922,
2,1,0,1,0,59183.6,0.398319,0.397992,0.218308,90,0.0238809,10,8.68851e-05,-3.66093,30.9549,0.001906,0.397896,
2,1,0,1,0,59187.4,0.417295,0.417005,0.217629,90,0.0247409,10,9.07526e-05,-3.66228,-28.7896,-0.00204935,0.416909,
2,1,0,1,0,59191.2,0.436272,0.435919,0.216541,90,0.0255967,10,9.43943e-05,-3.66446,5.98505,0.00985789,0.435824,
2,1,0,1,0,59194.9,0.455249,0.454954,0.217269,90,0.0264519,10,9.88475e-05,-3.663,-26.1559,-0.00225571,0.454858,
2,1,0,1,0,59198.7,0.474226,0.473922,0.218235,90,0.0273088,10,0.000103426,-3.66108,2.19805,0.026842,0.473826,
2,1,0,1,0,59202.5,0.493203,0.49293,0.220709,90,0.0281708,10,0.000108794,-3.65618,2.17711,0.0271002,0.492833,
2,1,0,0,0,59206.3,0.512181,0.511848,0.224856,90,0.0290449,10,0.000115092,-3.6481,2.35705,0.0250313,0.511749,
2,1,0,1,0,59210.1,0.531158,0.530841,0.230318,90,0.0299362,10,0.000122262,-3.63767,1.80524,0.0326827,0.530739,
2,1,0,0,0,59213.9,0.550135,0.549808,0.237414,90,0.0308506,10,0.000130532,-3.62449,0.901553,0.0654426,0.549704,
2,1,0,1,0,59217.7,0.569112,0.568819,0.24877,90,0.0318003,10,0.000141505,-3.6042,0.801643,0.0735989,0.56871,
2,1,0,0,0,59221.5,0.588089,0.587776,0.267805,90,0.032804,10,0.00015741,-3.57218,0.495911,0.118973,0.587658,
2,1,0,1,0,59225.3,0.607066,0.606743,0.296312,90,0.0338962,10,0.000179785,-3.52825,0.336646,0.175259,0.606612,
2,1,0,1,0,59229.1,0.626044,0.625754,0.350126,90,0.03514,10,0.000219093,-3.45578,0.221373,0.266519,0.6256,
2,1,0,1,0,59232.9,0.64502,0.644733,0.455188,90,0.0366716,10,0.000293475,-3.34181,0.136633,0.431815,0.644533,
2,1,0,1,0,59236.7,0.663997,0.663705,0.66829,90,0.038783,10,0.000443547,-3.17503,0.0998333,0.590985,0.663411,
2,1,0,1,0,59240.5,0.682974,0.682681,1.07687,90,0.0420445,10,0.000735158,-2.96784,0.0872074,0.676548,0.682207,
2,1,0,1,0,59244.3,0.701951,0.701604,1.77266,90,0.0473767,10,0.0012437,-2.75138,0.0876059,0.67347,0.700824,
2,1,0,1,0,59248.1,0.720928,0.720633,2.8053,90,0.0559812,10,0.00202159,-2.55202,0.0983705,0.599773,0.719399,
2,1,0,1,0,59251.9,0.739905,0.739618,4.1965,90,0.0691735,10,0.0031038,-2.37711,0.111548,0.52892,0.737771,
2,1,0,0,0,59255.7,0.758883,0.758573,5.99962,90,0.0884038,10,0.00455115,-2.22188,0.121724,0.484703,0.755933,
2,1,0,1,0,59259.5,0.77786,0.777573,8.31876,90,0.115416,10,0.00646844,-2.07994,0.129408,0.455923,0.773913,
2,1,0,0,0,59263.3,0.796837,0.796504,11.3067,90,0.152391,10,0.00900585,-1.94666,0.131918,0.447247,0.791529,
2,1,0,1,0,59267.1,0.815814,0.815523,15.3296,90,0.202622,10,0.0125017,-1.81447,0.130026,0.453755,0.808778,
2,1,0,0,0,59270.9,0.834791,0.834506,20.3995,90,0.270174,10,0.0170235,-1.69038,0.140628,0.419546,0.82553,
2,1,0,0,0,59274.6,0.846726,0.84646,23.3738,90,0.354885,10,0.019785,-1.63127,0.103648,0.569236,0.836176,
2,1,0,1,0,59278.3,0.827749,0.827455,16.9737,90,0.430819,10,0.0140449,-1.77022,0.124848,0.472573,0.819987,
2,1,0,1,0,59282.1,0.808772,0.808487,12.3211,90,0.485971,10,0.00996143,-1.90935,0.121824,0.484307,0.803065,
2,1,0,1,0,59285.9,0.789795,0.789479,8.79906,90,0.525711,10,0.00694667,-2.05556,0.119693,0.492926,0.785607,
2,1,0,1,0,59289.7,0.770818,0.770526,6.17847,90,0.553859,10,0.00476067,-2.20912,0.114134,0.516936,0.767807,
2,1,0,1,0,59293.5,0.751841,0.751492,4.23944,90,0.573432,10,0.00318591,-2.37269,0.105571,0.558866,0.749627,
2,1,0,1,0,59297.3,0.732865,0.732506,2.78628,90,0.586605,10,0.00204097,-2.55498,0.0952647,0.619327,0.73128,
2,1,0,0,0,59301.1,0.713887,0.71362,1.7027,90,0.594992,10,0.00121508,-2.76886,0.0786012,0.750625,0.712871,
2,1,0,1,0,59304.9,0.69491,0.694599,0.934149,90,0.599878,10,0.000648859,-3.02958,0.063379,0.930907,0.694188,
2,1,0,0,0,59308.7,0.675933,0.675632,0.431925,90,0.602364,10,0.000291822,-3.36459,0.0486798,1.212,0.675442,
2,1,0,1,0,59312.5,0.656956,0.656654,0.144197,90,0.603373,10,9.46877e-05,-3.84104,0.030856,1.91211,0.65659,
2,1,0,0,0,59316.3,0.637979,0.637664,0.000641116,90,0.603584,10,4.08817e-07,-6.19306,-0.72604,-0.0812628,0.637664,
2,0,0,1,0,59320.1,0.619002,0.618686,-0.0633081,90,0.603419,10,-3.91678e-05,-4.19854,-0.0697822,-0.845488,0.618714,
2,0,0,0,0,59323.9,0.600024,0.599719,-0.0934542,90,0.603085,10,-5.60463e-05,-4.0294,-0.274075,-0.21527,0.599761,
2,0,0,1,0,59327.7,0.581047,0.5807,-0.106704,90,0.602675,10,-6.19628e-05,-3.97182,-0.59117,-0.0998022,0.580747,
2,0,0,1,0,59331.5,0.56207,0.561735,-0.114093,90,0.602227,10,-6.409e-05,-3.94274,-1.17469,-0.0502259,0.561785,
2,0,0,1,0,59335.3,0.543093,0.542766,-0.120001,90,0.601756,10,-6.51325e-05,-3.92081,-0.717979,-0.0821751,0.542819,
2,0,0,1,0,59339.1,0.524116,0.523786,-0.124326,90,0.601266,10,-6.51201e-05,-3.90544,-1.22367,-0.0482156,0.523841,
2,0,0,1,0,59342.9,0.505139,0.504833,-0.128648,90,0.600759,10,-6.49458e-05,-3.8906,-0.891211,-0.0662021,0.50489,
2,0,0,1,0,59346.7,0.486162,0.485864,-0.133181,90,0.600234,10,-6.47077e-05,-3.87556,-1.7448,-0.0338147,0.485923,
2,0,0,1,0,59350.5,0.467185,0.466824,-0.139107,90,0.599687,10,-6.49384e-05,-3.85665,-0.910919,-0.0647698,0.466886,
2,0,0,1,0,59354.3,0.448208,0.447908,-0.14659,90,0.599114,10,-6.56589e-05,-3.8339,-1.90673,-0.0309431,0.447973,
2,0,0,0,0,59358,0.429231,0.428906,-0.153552,90,0.598512,10,-6.58596e-05,-3.81374,-1.72801,-0.0341433,0.428974,
2,0,0,1,0,59361.8,0.410254,0.409923,-0.162442,90,0.597881,10,-6.65887e-05,-3.7893,-1.87882,-0.0314026,0.409994,
2,0,0,0,0,59365.6,0.391277,0.39094,-0.171266,90,0.597214,10,-6.69546e-05,-3.76633,-0.634351,-0.0930085,0.391016,
2,0,0,1,0,59369.4,0.3723,0.371969,-0.180487,90,0.59651,10,-6.71354e-05,-3.74355,-0.747122,-0.0789697,0.372048,
2,0,0,1,0,59373.2,0.353322,0.353007,-0.190798,90,0.595768,10,-6.73529e-05,-3.71943,-0.696603,-0.0846968,0.353091,
2,0,0,1,0,59377,0.334345,0.334043,-0.201654,90,0.594986,10,-6.73611e-05,-3.69539,-1.02647,-0.0574785,0.334132,
2,0,0,1,0,59380.8,0.315368,0.315022,-0.211541,90,0.594161,10,-6.66402e-05,-3.67461,-0.954009,-0.0618443,0.315116,
2,0,0,1,0,59384.6,0.296391,0.296016,-0.225067,90,0.593292,10,-6.66233e-05,-3.64769,-0.88185,-0.0669048,0.296115,
2,0,0,1,0,59388.4,0.277414,0.277072,-0.235505,90,0.592377,10,-6.52518e-05,-3.628,-0.816056,-0.072299,0.277175,
2,0,0,1,0,59392.2,0.258437,0.258073,-0.249003,90,0.591416,10,-6.42609e-05,-3.6038,-0.709327,-0.0831775,0.258182,
2,0,0,1,0,59396,0.239461,0.239149,-0.259754,90,0.59041,10,-6.21199e-05,-3.58544,-0.975362,-0.0604903,0.239263,
2,0,0,0,0,59399.8,0.220483,0.220125,-0.271023,90,0.589361,10,-5.96588e-05,-3.56699,-0.517882,-0.113926,0.220244,
2,0,0,1,0,59403.6,0.201506,0.201183,-0.2834,90,0.588266,10,-5.70152e-05,-3.5476,-0.443151,-0.133137,0.201307,
2,0,0,0,0,59407.4,0.182529,0.182184,-0.299897,90,0.587114,10,-5.46366e-05,-3.52303,-0.48227,-0.122338,0.182316,
2,0,0,1,0,59411.2,0.163552,0.163216,-0.329174,90,0.585877,10,-5.37264e-05,-3.48257,-0.380699,-0.154978,0.163361,
2,0,0,0,0,59415,0.144575,0.144222,-0.407681,90,0.58446,10,-5.87965e-05,-3.38968,-0.129036,-0.457236,0.144401,
2,0,0,1,0,59418.8,0.125598,0.125253,-0.599794,90,0.582512,10,-7.51262e-05,-3.222,-0.143389,-0.411467,0.125517,
2,0,0,1,0,59422.6,0.10662,0.106223,-0.670879,90,0.579993,10,-7.12628e-05,-3.17336,-5.64262,-0.0104561,0.106518,
2,0,0,1,0,59426.4,0.0876433,0.0872756,-0.652645,90,0.577423,10,-5.696e-05,-3.18532,0.971551,0.0607276,0.0875627,
2,0,0,1,0,59430.2,0.0686664,0.0683508,-0.614809,90,0.574967,10,-4.20227e-05,-3.21126,0.69544,0.0848384,0.0686213,
2,0,0,1,0,59434,0.0496895,0.0493336,-0.573148,90,0.572657,10,-2.82755e-05,-3.24173,0.533882,0.110511,0.0495858,
2,0,0,1,0,59437.8,0.0307126,0.0303385,-0.527288,90,0.570517,10,-1.59971e-05,-3.27795,0.636989,0.0926233,0.0305705,
2,0,0,1,0,59441.5,0.0117356,0.0114104,-0.497365,90,0.568529,10,-5.67514e-06,-3.30332,1.71714,0.0343594,0.0116293,
2,0,0,0,0,59443.8,0.000274105,-9.98546e-05,-0.499223,90,0.567358,10,4.98497e-08,-3.30171, , ,0.000119804,

File: 20221101_1-115_003_TrumpetPlot_ParaChange_from10_every3_16_CV_C01_90.csv
mode,ox/red,error,control changes,counter inc.,time/s,control/V,Ewe/V,<I>/mA,cycle number,(Q-Qo)/C,I Range,P/W,log(|I|),Tafel slope mV/dec,alpha_eff,E-IR/V,
2,0,0,1,0,60334,2.44065e-05,-0.000306236,-0.0307026,91,0.0000000E+000,10,9.40224e-09,-4.51283, , ,-0.000292727,
2,1,0,1,0,60337.8,0.0187763,0.0183988,0.26056,91,0.000863197,10,4.794e-06,-3.58409,0.173126,0.340792,0.0182842,
2,1,0,0,0,60341.6,0.0377538,0.0374008,0.323286,91,0.0020214,10,1.20911e-05,-3.49041,0.236349,0.24963,0.0372585,
2,1,0,1,0,60345.4,0.0567309,0.0564414,0.379279,91,0.00340804,10,2.1407e-05,-3.42104,0.349429,0.168847,0.0562745,
2,1,0,0,0,60349.2,0.075708,0.0753654,0.419833,91,0.00498041,10,3.16409e-05,-3.37692,0.602455,0.0979326,0.0751807,
2,1,0,1,0,60353,0.094685,0.0943255,0.468758,91,0.00669937,10,4.42158e-05,-3.32905,0.275784,0.213935,0.0941193,
2,1,0,0,0,60356.8,0.113662,0.11334,0.558606,91,0.00869922,10,6.33122e-05,-3.25289,0.365425,0.161456,0.113094,
2,1,0,1,0,60360.6,0.132639,0.132287,0.585055,91,0.0109411,10,7.73951e-05,-3.2328,-0.475682,-0.124032,0.13203,
2,1,0,1,0,60364.3,0.151617,0.151265,0.393713,91,0.012899,10,5.95551e-05,-3.40482,-0.089756,-0.657338,0.151092,
2,1,0,1,0,60368.1,0.170594,0.170269,0.313271,91,0.0142361,10,5.33403e-05,-3.50408,-0.391539,-0.150687,0.170131,
2,1,0,1,0,60371.9,0.189571,0.189197,0.297919,91,0.0154312,10,5.63654e-05,-3.5259,-1.82298,-0.0323646,0.189066,
2,1,0,1,0,60375.7,0.208547,0.208181,0.292711,91,0.0165921,10,6.0937e-05,-3.53356,-1.43873,-0.0410084,0.208052,
2,1,0,1,0,60379.5,0.227524,0.227156,0.287608,91,0.0177325,10,6.53319e-05,-3.5412,-1.23812,-0.0476529,0.227029,
2,1,0,1,0,60383.3,0.246501,0.246221,0.2836,91,0.0188554,10,6.98283e-05,-3.54729,-1.02609,-0.0574998,0.246096,
2,1,0,1,0,60387.1,0.265479,0.265153,0.279815,91,0.0199647,10,7.41937e-05,-3.55313,-1.90513,-0.030969,0.26503,
2,1,0,0,0,60390.9,0.284456,0.284118,0.276376,91,0.0210593,10,7.85233e-05,-3.5585,-1.57582,-0.0374408,0.283996,
2,1,0,1,0,60394.7,0.303433,0.303077,0.272287,91,0.0221369,10,8.2524e-05,-3.56497,-3.37849,-0.0174634,0.302957,
2,1,0,0,0,60398.5,0.32241,0.322084,0.272275,91,0.0231995,10,8.76955e-05,-3.56499,-2.70472,-0.0218137,0.321964,
2,1,0,1,0,60402.3,0.341387,0.341114,0.265208,91,0.0242507,10,9.04662e-05,-3.57641,-5.35187,-0.0110242,0.340997,
2,1,0,0,0,60406.1,0.360364,0.360043,0.263508,91,0.0252903,10,9.48742e-05,-3.57921,-3.19826,-0.0184475,0.359927,
2,1,0,1,0,60409.9,0.379342,0.379011,0.260517,91,0.0263199,10,9.87388e-05,-3.58416,1046.75,5.63648e-05,0.378897,
2,1,0,1,0,60413.7,0.398319,0.398016,0.258978,91,0.0273393,10,0.000103077,-3.58674,-5.16257,-0.0114284,0.397902,
2,1,0,1,0,60417.5,0.417295,0.416983,0.257079,91,0.0283503,10,0.000107197,-3.58993,4.48944,0.013142,0.41687,
2,1,0,1,0,60421.3,0.436272,0.435901,0.255609,91,0.0293564,10,0.00011142,-3.59242,7.78615,0.00757756,0.435788,
2,1,0,1,0,60425.1,0.455249,0.454935,0.25502,91,0.0303579,10,0.000116017,-3.59343,3.56206,0.0165635,0.454822,
2,1,0,1,0,60428.9,0.474226,0.473878,0.254998,91,0.0313569,10,0.000120838,-3.59346,3.93381,0.0149982,0.473765,
2,1,0,1,0,60432.7,0.493203,0.492866,0.257283,91,0.0323595,10,0.000126806,-3.58959,3.00036,0.0196643,0.492753,
2,1,0,1,0,60436.5,0.512181,0.511851,0.261489,91,0.0333717,10,0.000133844,-3.58255,2.83516,0.0208101,0.511736,
2,1,0,0,0,60440.3,0.531158,0.530826,0.265585,91,0.0343983,10,0.000140979,-3.5758,2.08363,0.0283159,0.530709,
2,1,0,1,0,60444.1,0.550135,0.549812,0.272992,91,0.0354464,10,0.000150095,-3.56385,1.55453,0.0379536,0.549692,
2,1,0,0,0,60447.8,0.569112,0.56881,0.284438,91,0.036529,10,0.000161791,-3.54601,0.756199,0.0780218,0.568684,
2,1,0,1,0,60451.6,0.588089,0.587744,0.301562,91,0.0376631,10,0.000177241,-3.52062,0.534827,0.110316,0.587612,
2,1,0,0,0,60455.4,0.607066,0.606743,0.329536,91,0.0388807,10,0.000199944,-3.4821,0.397032,0.148603,0.606598,
2,1,0,1,0,60459.2,0.626044,0.625735,0.381603,91,0.0402462,10,0.000238782,-3.41839,0.216259,0.272821,0.625567,
2,1,0,1,0,60463,0.64502,0.64475,0.48608,91,0.041899,10,0.0003134,-3.31329,0.147591,0.399752,0.644536,
2,1,0,1,0,60466.8,0.663997,0.663687,0.696049,91,0.0441229,10,0.000461958,-3.15736,0.105252,0.560558,0.66338,
2,1,0,1,0,60470.6,0.682974,0.68267,1.0975,91,0.0474769,10,0.000749233,-2.95959,0.0897328,0.657508,0.682187,
2,1,0,1,0,60474.4,0.701951,0.701662,1.78298,91,0.0528662,10,0.00125105,-2.74885,0.0894661,0.659468,0.700878,
2,1,0,1,0,60478.2,0.720928,0.720644,2.80336,91,0.0614849,10,0.00202022,-2.55232,0.0993273,0.593996,0.71941,
2,1,0,1,0,60482,0.739905,0.739583,4.18472,91,0.0746531,10,0.00309495,-2.37833,0.112595,0.524,0.737742,
2,1,0,1,0,60485.8,0.758883,0.758603,5.97671,91,0.0938197,10,0.00453395,-2.22354,0.124384,0.474338,0.755974,
2,1,0,0,0,60489.6,0.77786,0.777576,8.27979,91,0.120721,10,0.00643817,-2.08198,0.128992,0.457392,0.773933,
2,1,0,1,0,60493.4,0.796837,0.796543,11.2765,91,0.157593,10,0.00898223,-1.94782,0.129429,0.45585,0.791581,
2,1,0,0,0,60497.2,0.815814,0.815494,15.2691,91,0.207684,10,0.0124518,-1.81619,0.135533,0.435317,0.808776,
2,1,0,1,0,60501,0.834791,0.834511,20.3073,91,0.27492,10,0.0169467,-1.69235,0.143118,0.412248,0.825576,
2,1,0,1,0,60504.7,0.846726,0.846466,23.0335,91,0.359013,10,0.0194971,-1.63764,0.105998,0.556612,0.836332,
2,1,0,1,0,60508.5,0.827749,0.827511,16.7899,91,0.433889,10,0.0138938,-1.77495,0.120925,0.487907,0.820124,
2,1,0,1,0,60512.3,0.808772,0.808483,12.1663,91,0.48835,10,0.00983626,-1.91484,0.121588,0.485247,0.80313,
2,1,0,1,0,60516.1,0.789795,0.78951,8.67345,91,0.527546,10,0.00684778,-2.06181,0.118587,0.497526,0.785694,
2,1,0,1,0,60519.9,0.770818,0.770578,6.08168,91,0.555269,10,0.00468641,-2.21598,0.114252,0.516402,0.767902,
2,1,0,1,0,60523.7,0.751841,0.751502,4.16615,91,0.574513,10,0.00313087,-2.38027,0.105731,0.558021,0.749669,
2,1,0,1,0,60527.5,0.732865,0.732597,2.73648,91,0.58745,10,0.00200474,-2.56281,0.0946208,0.623542,0.731393,
2,1,0,1,0,60531.2,0.713887,0.713598,1.69786,91,0.595753,10,0.00121159,-2.7701,0.0810774,0.7277,0.712851,
2,1,0,0,0,60535,0.69491,0.694632,0.941531,91,0.600645,10,0.000654018,-3.02617,0.0657058,0.897941,0.694218,
2,1,0,1,0,60538.8,0.675933,0.675629,0.448076,91,0.603177,10,0.000302733,-3.34865,0.052291,1.1283,0.675432,
2,1,0,0,0,60542.6,0.656956,0.656673,0.166338,91,0.604259,10,0.000109229,-3.77901,0.0354737,1.6632,0.6566,
2,1,0,1,0,60546.4,0.637979,0.637727,0.0231083,91,0.604555,10,1.47368e-05,-4.63623,0.00976661,6.04099,0.637716,
2,0,0,0,0,60550.2,0.619002,0.618688,-0.0399103,91,0.604477,10,-2.4692e-05,-4.39891,-0.0469015,-1.25796,0.618706,
2,0,0,1,0,60554,0.600024,0.599682,-0.0684241,91,0.604233,10,-4.10327e-05,-4.16479,-0.140664,-0.419438,0.599712,
2,0,0,1,0,60557.8,0.581047,0.580719,-0.0834283,91,0.603911,10,-4.84484e-05,-4.07869,-0.557835,-0.105766,0.580756,
2,0,0,1,0,60561.6,0.56207,0.561707,-0.0909943,91,0.60355,10,-5.11121e-05,-4.04099,-0.609082,-0.0968671,0.561747,
2,0,0,1,0,60565.4,0.543093,0.542738,-0.0967517,91,0.603165,10,-5.25108e-05,-4.01434,-0.8216,-0.0718111,0.542781,
2,0,0,1,0,60569.2,0.524116,0.523803,-0.1014,91,0.602759,10,-5.31136e-05,-3.99396,-7.47472,-0.00789327,0.523848,
2,0,0,1,0,60573,0.505139,0.504823,-0.106572,91,0.602333,10,-5.38002e-05,-3.97236,-0.636641,-0.0926738,0.50487,
2,0,0,1,0,60576.8,0.486162,0.485859,-0.112597,91,0.601886,10,-5.47063e-05,-3.94847,-0.965525,-0.0611066,0.485908,
2,0,0,1,0,60580.6,0.467185,0.466824,-0.118809,91,0.601415,10,-5.5463e-05,-3.92515,-1.27083,-0.0464263,0.466876,
2,0,0,0,0,60584.4,0.448208,0.447882,-0.12628,91,0.600917,10,-5.65584e-05,-3.89867,-0.865632,-0.0681583,0.447938,
2,0,0,1,0,60588.2,0.429231,0.428905,-0.13477,91,0.600388,10,-5.78037e-05,-3.87041,-1.99943,-0.0295084,0.428964,
2,0,0,0,0,60592,0.410254,0.409906,-0.143801,91,0.599826,10,-5.8945e-05,-3.84224,-0.676073,-0.0872686,0.409969,
2,0,0,1,0,60595.8,0.391277,0.390939,-0.152962,91,0.599227,10,-5.97989e-05,-3.81542,-0.638328,-0.0924289,0.391006,
2,0,0,0,0,60599.6,0.3723,0.371938,-0.16342,91,0.598589,10,-6.07822e-05,-3.78669,-0.610053,-0.0967129,0.37201,
2,0,0,1,0,60603.4,0.353322,0.353009,-0.172709,91,0.597913,10,-6.09678e-05,-3.76269,-0.459309,-0.128454,0.353085,
2,0,0,1,0,60607.2,0.334345,0.33405,-0.18505,91,0.597195,10,-6.18161e-05,-3.73271,-0.636696,-0.0926659,0.334132,
2,0,0,1,0,60611,0.315368,0.315012,-0.195579,91,0.596433,10,-6.16098e-05,-3.70868,-0.707437,-0.0833996,0.315098,
2,0,0,1,0,60614.7,0.296391,0.296031,-0.208354,91,0.595627,10,-6.16791e-05,-3.6812,-0.832442,-0.0708758,0.296122,
2,0,0,1,0,60618.5,0.277414,0.277053,-0.218574,91,0.594773,10,-6.05565e-05,-3.6604,-0.764041,-0.077221,0.277149,
2,0,0,1,0,60622.3,0.258437,0.258122,-0.232674,91,0.593872,10,-6.00585e-05,-3.63325,-0.908801,-0.0649207,0.258225,
2,0,0,1,0,60626.1,0.239461,0.239152,-0.245176,91,0.592924,10,-5.86345e-05,-3.61052,-0.67311,-0.0876528,0.23926,
2,0,0,1,0,60629.9,0.220483,0.220129,-0.255867,91,0.591931,10,-5.63237e-05,-3.59199,-0.640046,-0.0921809,0.220242,
2,0,0,0,0,60633.7,0.201506,0.201136,-0.268945,91,0.590891,10,-5.40945e-05,-3.57034,-0.453959,-0.129968,0.201254,
2,0,0,1,0,60637.5,0.182529,0.182224,-0.286427,91,0.589794,10,-5.21938e-05,-3.54299,-0.515183,-0.114522,0.18235,
2,0,0,0,0,60641.3,0.163552,0.163159,-0.315049,91,0.588611,10,-5.14029e-05,-3.50162,-0.345241,-0.170895,0.163297,
2,0,0,1,0,60645.1,0.144575,0.144249,-0.39214,91,0.587248,10,-5.65659e-05,-3.40656,-0.117714,-0.501216,0.144422,
2,0,0,0,0,60648.9,0.125598,0.125238,-0.583226,91,0.585358,10,-7.30423e-05,-3.23416,-0.144917,-0.40713,0.125495,
2,0,0,1,0,60652.7,0.10662,0.106282,-0.656934,91,0.582893,10,-6.98206e-05,-3.18248,-3.51877,-0.0167672,0.106571,
2,0,0,1,0,60656.5,0.0876433,0.0872682,-0.640741,91,0.58037,10,-5.59163e-05,-3.19332,0.896563,0.0658069,0.0875501,
2,0,0,1,0,60660.3,0.0686664,0.0683253,-0.604857,91,0.577955,10,-4.1327e-05,-3.21835,0.823657,0.0716318,0.0685914,
2,0,0,1,0,60664.1,0.0496895,0.0493379,-0.565266,91,0.575678,10,-2.7889e-05,-3.24775,0.615954,0.0957864,0.0495866,
2,0,0,1,0,60667.9,0.0307126,0.0303291,-0.51965,91,0.573564,10,-1.57605e-05,-3.28429,0.553335,0.106626,0.0305577,
2,0,0,1,0,60671.7,0.0117356,0.0113988,-0.49014,91,0.571599,10,-5.58701e-06,-3.30968,1.31651,0.0448156,0.0116145,
2,0,0,1,0,60674,0.000274105,-8.6732e-05,-0.490448,91,0.570443,10,4.25375e-08,-3.30941, , ,0.000129065,