Folder: Figs_alphaMnO2_OER_Tafel_sleope/Figure_codes/Fig_3-5/workspace_calculate_alpha_eff (part 17)

File: 20221101_1-115_003_TrumpetPlot_ParaChange_from10_every3_16_CV_C01_25.csv
mode,ox/red,error,control changes,counter inc.,time/s,control/V,Ewe/V,<I>/mA,cycle number,(Q-Qo)/C,I Range,P/W,log(|I|),Tafel slope mV/dec,alpha_eff,E-IR/V,
2,0,0,0,0,17361.2,2.44065e-05,-0.000401673,-0.103846,26,0.0000000E+000,10,4.17122e-08,-3.98361, , ,-0.00035598,
2,1,0,1,0,17364.9,0.0187763,0.0184242,0.225528,26,0.000749441,10,4.15519e-06,-3.6468,0.131113,0.449995,0.018325,
2,1,0,1,0,17368.7,0.0377538,0.0374644,0.294152,26,0.00180641,10,1.10202e-05,-3.53143,0.183158,0.322126,0.037335,
2,1,0,0,0,17372.5,0.0567309,0.0564139,0.358098,26,0.00312055,10,2.02017e-05,-3.446,0.323302,0.182492,0.0562563,
2,1,0,1,0,17376.3,0.075708,0.0753866,0.40757,26,0.00465168,10,3.07254e-05,-3.3898,0.586801,0.100545,0.0752073,
2,1,0,0,0,17380.1,0.0946851,0.0943806,0.466428,26,0.0063657,10,4.40218e-05,-3.33121,0.224806,0.262448,0.0941754,
2,1,0,1,0,17383.9,0.113662,0.113318,0.572192,26,0.00841026,10,6.48399e-05,-3.24246,0.32086,0.183881,0.113067,
2,1,0,0,0,17387.7,0.132639,0.132325,0.635069,26,0.0107818,10,8.40357e-05,-3.19718,-3.46855,-0.01701,0.132046,
2,1,0,1,0,17391.5,0.151617,0.151325,0.4242,26,0.0129476,10,6.4192e-05,-3.37243,-0.0740966,-0.796258,0.151138,
2,1,0,1,0,17395.3,0.170594,0.170308,0.301177,26,0.0143246,10,5.12929e-05,-3.52118,-0.235824,-0.250186,0.170176,
2,1,0,1,0,17399.1,0.189571,0.189287,0.274167,26,0.0154692,10,5.18964e-05,-3.56198,-0.606937,-0.0972094,0.189167,
2,1,0,1,0,17402.9,0.208547,0.208235,0.259983,26,0.0165405,10,5.41377e-05,-3.58505,-1.06035,-0.0556421,0.208121,
2,1,0,1,0,17406.7,0.227524,0.227233,0.251165,26,0.0175702,10,5.70731e-05,-3.60004,-0.640353,-0.0921367,0.227123,
2,1,0,1,0,17410.5,0.246501,0.2462,0.244599,26,0.0185729,10,6.02203e-05,-3.61154,-1.13018,-0.0522039,0.246092,
2,1,0,0,0,17414.3,0.265479,0.265165,0.240086,26,0.0195564,10,6.36626e-05,-3.61963,-0.829231,-0.0711502,0.26506,
2,1,0,1,0,17418,0.284456,0.284163,0.236276,26,0.0205216,10,6.71409e-05,-3.62658,-8.38422,-0.00703703,0.284059,
2,1,0,0,0,17421.8,0.303433,0.303147,0.231338,26,0.0214678,10,7.01295e-05,-3.63575,-2.47805,-0.023809,0.303045,
2,1,0,1,0,17425.6,0.32241,0.32211,0.227437,26,0.0223978,10,7.32597e-05,-3.64314,-10.2014,-0.00578354,0.32201,
2,1,0,0,0,17429.4,0.341387,0.341095,0.22547,26,0.0233167,10,7.69065e-05,-3.64691,7.8924,0.00747555,0.340996,
2,1,0,1,0,17433.2,0.360364,0.360082,0.2236,26,0.0242257,10,8.05143e-05,-3.65053,-2.37755,-0.0248155,0.359984,
2,1,0,1,0,17437,0.379342,0.379062,0.220922,26,0.0251241,10,8.37432e-05,-3.65576,-3.8249,-0.0154252,0.378965,
2,1,0,1,0,17440.8,0.398319,0.398065,0.218924,26,0.0260148,10,8.71459e-05,-3.65971,21.0186,0.00280703,0.397968,
2,1,0,1,0,17444.6,0.417295,0.417026,0.219323,26,0.0269015,10,9.14635e-05,-3.65892,-2.20208,-0.0267928,0.41693,
2,1,0,1,0,17448.4,0.436272,0.435995,0.21877,26,0.0277847,10,9.53825e-05,-3.66001,2.53924,0.0232353,0.435899,
2,1,0,1,0,17452.2,0.455249,0.454968,0.218782,26,0.0286666,10,9.95388e-05,-3.65999,2.27813,0.0258984,0.454871,
2,1,0,1,0,17456,0.474226,0.473965,0.219783,26,0.0295526,10,0.000104169,-3.65801,1.40329,0.042044,0.473868,
2,1,0,1,0,17459.8,0.493203,0.492957,0.22375,26,0.0304471,10,0.000110299,-3.65024,1.27287,0.0463519,0.492859,
2,1,0,0,0,17463.6,0.512181,0.511939,0.228355,26,0.031356,10,0.000116904,-3.64139,2.78865,0.0211572,0.511839,
2,1,0,1,0,17467.4,0.531158,0.53087,0.235665,26,0.0322855,10,0.000125108,-3.6277,1.2482,0.0472679,0.530767,
2,1,0,0,0,17471.2,0.550135,0.549814,0.245954,26,0.0332461,10,0.000135229,-3.60915,0.659142,0.0895103,0.549705,
2,1,0,1,0,17475,0.569112,0.568795,0.260624,26,0.0342548,10,0.000148241,-3.58399,0.514267,0.114726,0.56868,
2,1,0,0,0,17478.8,0.588089,0.58786,0.288089,26,0.0353402,10,0.000169356,-3.54047,0.379911,0.155299,0.587733,
2,1,0,1,0,17482.6,0.607066,0.606777,0.332629,26,0.0365558,10,0.000201832,-3.47804,0.237291,0.24864,0.60663,
2,1,0,1,0,17486.4,0.626044,0.625771,0.423077,26,0.0380173,10,0.000264749,-3.37358,0.143215,0.411967,0.625585,
2,1,0,1,0,17490.2,0.64502,0.644769,0.611929,26,0.0399869,10,0.000394553,-3.2133,0.0974553,0.605406,0.6445,
2,1,0,1,0,17494,0.663997,0.663715,1.02295,26,0.0430474,10,0.00067895,-2.99014,0.0746028,0.790855,0.663265,
2,1,0,1,0,17497.8,0.682974,0.682682,1.84692,26,0.0483791,10,0.00126086,-2.73355,0.0716881,0.82301,0.681869,
2,1,0,1,0,17501.5,0.701951,0.701697,3.28435,26,0.0579525,10,0.00230462,-2.48355,0.0765392,0.770847,0.700252,
2,1,0,1,0,17505.3,0.720928,0.720671,5.42722,26,0.0743143,10,0.00391124,-2.26542,0.0910085,0.648291,0.718283,
2,1,0,1,0,17509.1,0.739905,0.739618,8.24205,26,0.100099,10,0.00609597,-2.08396,0.105404,0.559751,0.735992,
2,1,0,0,0,17512.9,0.758883,0.758656,11.7372,26,0.137817,10,0.00890452,-1.93043,0.125009,0.471966,0.753492,
2,1,0,1,0,17516.7,0.77786,0.777636,16.1587,26,0.190361,10,0.0125656,-1.79159,0.122014,0.483551,0.770526,
2,1,0,0,0,17520.5,0.796837,0.79657,22.0592,26,0.262479,10,0.0175717,-1.65641,0.11887,0.49634,0.786864,
2,1,0,1,0,17524.3,0.815814,0.815531,29.1498,26,0.359437,10,0.0237726,-1.53536,0.136494,0.432254,0.802705,
2,1,0,0,0,17528.1,0.834791,0.834583,36.5923,26,0.484545,10,0.0305393,-1.43661,0.188166,0.313554,0.818482,
2,1,0,0,0,17531.8,0.846727,0.846497,40.4395,26,0.632139,10,0.0342319,-1.39319,0.133726,0.441201,0.828704,
2,1,0,1,0,17535.6,0.827749,0.827544,31.7224,26,0.768558,10,0.0262517,-1.49863,0.137903,0.427836,0.813586,
2,1,0,1,0,17539.4,0.808772,0.808531,24.1233,26,0.874264,10,0.0195045,-1.61756,0.126536,0.466271,0.797917,
2,1,0,1,0,17543.2,0.789795,0.789565,17.6499,26,0.953063,10,0.0139358,-1.75326,0.1161,0.508182,0.781799,
2,1,0,1,0,17547,0.770818,0.770542,12.4401,26,1.00976,10,0.00958563,-1.90518,0.106458,0.554212,0.765068,
2,1,0,1,0,17550.8,0.751841,0.751571,8.52807,26,1.0493,10,0.00640945,-2.06915,0.0968731,0.609044,0.747819,
2,1,0,1,0,17554.6,0.732865,0.732595,5.43593,26,1.07545,10,0.00398234,-2.26473,0.0845805,0.69756,0.730203,
2,1,0,0,0,17558.4,0.713887,0.713642,3.21667,26,1.09156,10,0.00229555,-2.49259,0.0733089,0.804814,0.712227,
2,1,0,1,0,17562.2,0.69491,0.694663,1.72345,26,1.10068,10,0.00119721,-2.7636,0.0615675,0.958299,0.693905,
2,1,0,0,0,17566,0.675933,0.675682,0.808085,26,1.10527,10,0.000546008,-3.09254,0.051072,1.15523,0.675326,
2,1,0,1,0,17569.8,0.656956,0.656689,0.314598,26,1.10725,10,0.000206593,-3.50224,0.0398722,1.47973,0.65655,
2,1,0,0,0,17573.6,0.637979,0.637719,0.0765277,26,1.10788,10,4.88032e-05,-4.11618,0.0205752,2.86753,0.637686,
2,0,0,1,0,17577.4,0.619002,0.618782,-0.0272795,26,1.10789,10,-1.68801e-05,-4.56416,-0.0169369,-3.48351,0.618794,
2,0,0,0,0,17581.2,0.600025,0.599755,-0.0714366,26,1.10764,10,-4.28444e-05,-4.14608,-0.126631,-0.46592,0.599786,
2,0,0,1,0,17584.9,0.581047,0.580719,-0.0930507,26,1.10727,10,-5.40363e-05,-4.03128,-0.273443,-0.215767,0.58076,
2,0,0,1,0,17588.7,0.56207,0.561768,-0.104689,26,1.10685,10,-5.88109e-05,-3.9801,-0.552279,-0.10683,0.561814,
2,0,0,1,0,17592.5,0.543093,0.542815,-0.111034,26,1.10639,10,-6.0271e-05,-3.95454,-2.19353,-0.0268972,0.542864,
2,0,0,1,0,17596.3,0.524116,0.523823,-0.115371,26,1.10591,10,-6.04339e-05,-3.9379,-1.04425,-0.0565,0.523874,
2,0,0,1,0,17600.1,0.505139,0.504845,-0.119107,26,1.10542,10,-6.01308e-05,-3.92406,-0.361155,-0.163365,0.504897,
2,0,0,1,0,17603.9,0.486162,0.485832,-0.124335,26,1.1049,10,-6.04061e-05,-3.90541,12.9425,0.00455862,0.485887,
2,0,0,1,0,17607.7,0.467185,0.466889,-0.13058,26,1.10436,10,-6.09663e-05,-3.88412,-5.70292,-0.0103456,0.466947,
2,0,0,1,0,17611.5,0.448208,0.447904,-0.138111,26,1.1038,10,-6.18605e-05,-3.85977,-2.02908,-0.0290773,0.447965,
2,0,0,0,0,17615.3,0.429231,0.428948,-0.145378,26,1.10321,10,-6.23598e-05,-3.8375,-2.91942,-0.0202095,0.429012,
2,0,0,1,0,17619.1,0.410254,0.409915,-0.154567,26,1.10259,10,-6.33593e-05,-3.81088,-1.1322,-0.0521111,0.409983,
2,0,0,0,0,17622.9,0.391277,0.390991,-0.164366,26,1.10193,10,-6.42658e-05,-3.78419,-0.593672,-0.0993815,0.391063,
2,0,0,1,0,17626.7,0.3723,0.372011,-0.173941,26,1.10123,10,-6.47078e-05,-3.7596,-1.22008,-0.0483574,0.372088,
2,0,0,1,0,17630.5,0.353322,0.353051,-0.184362,26,1.10049,10,-6.50893e-05,-3.73433,-0.813693,-0.0725089,0.353132,
2,0,0,1,0,17634.3,0.334345,0.334032,-0.194479,26,1.09971,10,-6.49623e-05,-3.71113,-0.725182,-0.0813588,0.334118,
2,0,0,1,0,17638.1,0.315368,0.315109,-0.207659,26,1.09889,10,-6.54354e-05,-3.68265,-0.617428,-0.0955577,0.315201,
2,0,0,1,0,17641.9,0.296391,0.296085,-0.218799,26,1.09802,10,-6.47832e-05,-3.65995,-0.669892,-0.0880739,0.296181,
2,0,0,1,0,17645.7,0.277414,0.277087,-0.231134,26,1.09711,10,-6.40441e-05,-3.63614,-0.679639,-0.0868108,0.277188,
2,0,0,1,0,17649.5,0.258437,0.258142,-0.243819,26,1.09615,10,-6.29398e-05,-3.61293,-0.960874,-0.0614024,0.258249,
2,0,0,1,0,17653.3,0.239461,0.239128,-0.25492,26,1.09514,10,-6.09585e-05,-3.5936,-1.52383,-0.0387183,0.23924,
2,0,0,0,0,17657.1,0.220483,0.220207,-0.267251,26,1.09409,10,-5.88506e-05,-3.57308,-0.87567,-0.067377,0.220325,
2,0,0,1,0,17660.9,0.201506,0.201189,-0.282144,26,1.09298,10,-5.67643e-05,-3.54953,-0.479518,-0.12304,0.201313,
2,0,0,0,0,17664.7,0.182529,0.182231,-0.303328,26,1.09181,10,-5.52757e-05,-3.51809,-0.346028,-0.170507,0.182365,
2,0,0,1,0,17668.4,0.163552,0.163231,-0.346363,26,1.09053,10,-5.65371e-05,-3.46047,-0.22748,-0.259363,0.163383,
2,0,0,0,0,17672.2,0.144575,0.144247,-0.479029,26,1.08895,10,-6.90986e-05,-3.31964,-0.0874195,-0.674907,0.144458,
2,0,0,1,0,17676,0.125598,0.125247,-0.72682,26,1.08656,10,-9.10319e-05,-3.13857,-0.231662,-0.254682,0.125567,
2,0,0,1,0,17679.8,0.10662,0.106321,-0.73923,26,1.08365,10,-7.8596e-05,-3.13122,0.774783,0.0761504,0.106647,
2,0,0,1,0,17683.6,0.0876433,0.0873298,-0.681128,26,1.08089,10,-5.94827e-05,-3.16677,0.482113,0.122378,0.0876295,
2,0,0,1,0,17687.4,0.0686664,0.0683221,-0.632758,26,1.07833,10,-4.32314e-05,-3.19876,0.744575,0.0792398,0.0686005,
2,0,0,1,0,17691.2,0.0496895,0.0494046,-0.585954,26,1.07594,10,-2.89488e-05,-3.23214,0.521931,0.113042,0.0496624,
2,0,0,1,0,17695,0.0307126,0.0303981,-0.536126,26,1.07374,10,-1.62972e-05,-3.27073,0.426328,0.138391,0.030634,
2,0,0,1,0,17698.8,0.0117356,0.0113884,-0.501134,26,1.07171,10,-5.7071e-06,-3.30005,2.21991,0.0265777,0.0116089,
2,0,0,0,0,17701.1,0.000274105,-8.19602e-05,-0.500763,26,1.07052,10,4.10427e-08,-3.30037, , ,0.000138376,

File: 20221101_1-115_003_TrumpetPlot_ParaChange_from10_every3_16_CV_C01_26.csv
mode,ox/red,error,control changes,counter inc.,time/s,control/V,Ewe/V,<I>/mA,cycle number,(Q-Qo)/C,I Range,P/W,log(|I|),Tafel slope mV/dec,alpha_eff,E-IR/V,
2,0,0,0,0,17731.2,2.44065e-05,-0.000325324,-0.110207,27,0.0000000E+000,10,3.58528e-08,-3.95779, , ,-0.000276833,
2,1,0,1,0,17734.9,0.0187763,0.018436,0.216398,27,0.000716153,10,3.98951e-06,-3.66475,0.142758,0.413287,0.0183408,
2,1,0,1,0,17738.7,0.0377538,0.0374485,0.285274,27,0.00173683,10,1.06831e-05,-3.54474,0.174404,0.338295,0.037323,
2,1,0,0,0,17742.5,0.0567309,0.0564149,0.348094,27,0.0030149,10,1.96377e-05,-3.4583,0.289904,0.203516,0.0562617,
2,1,0,1,0,17746.3,0.075708,0.0753686,0.399897,27,0.00451259,10,3.01397e-05,-3.39805,0.433907,0.135974,0.0751927,
2,1,0,0,0,17750.1,0.0946851,0.0943881,0.458556,27,0.00619552,10,4.32822e-05,-3.33861,0.255262,0.231135,0.0941863,
2,1,0,1,0,17753.9,0.113662,0.113354,0.565512,27,0.0082091,10,6.41034e-05,-3.24756,0.328985,0.179339,0.113106,
2,1,0,0,0,17757.7,0.132639,0.132311,0.62605,27,0.0105486,10,8.28336e-05,-3.20339,-2.07285,-0.0284632,0.132036,
2,1,0,1,0,17761.5,0.151617,0.151291,0.416135,27,0.0126839,10,6.29575e-05,-3.38077,-0.0701746,-0.84076,0.151108,
2,1,0,1,0,17765.3,0.170594,0.170271,0.293425,27,0.0140282,10,4.99619e-05,-3.5325,-0.258657,-0.228101,0.170142,
2,1,0,1,0,17769.1,0.189571,0.189271,0.263614,27,0.0151376,10,4.98945e-05,-3.57903,-0.501738,-0.117591,0.189155,
2,1,0,1,0,17772.9,0.208547,0.208257,0.250796,27,0.0161729,10,5.223e-05,-3.60068,-0.676795,-0.0871755,0.208146,
2,1,0,1,0,17776.7,0.227524,0.227206,0.243336,27,0.0171691,10,5.52875e-05,-3.61379,-0.953227,-0.061895,0.227099,
2,1,0,1,0,17780.5,0.246501,0.246219,0.236544,27,0.0181403,10,5.82416e-05,-3.62609,-2.454,-0.0240423,0.246115,
2,1,0,0,0,17784.3,0.265479,0.265197,0.233031,27,0.0190924,10,6.17993e-05,-3.63259,-1.68762,-0.0349605,0.265095,
2,1,0,1,0,17788,0.284456,0.284162,0.228323,27,0.0200282,10,6.48806e-05,-3.64145,-4.47963,-0.0131707,0.284061,
2,1,0,0,0,17791.8,0.303433,0.303133,0.225265,27,0.0209486,10,6.82853e-05,-3.64731,-52.4748,-0.00112435,0.303034,
2,1,0,1,0,17795.6,0.32241,0.322137,0.221138,27,0.0218541,10,7.12367e-05,-3.65534,-4.89465,-0.012054,0.32204,
2,1,0,0,0,17799.4,0.341387,0.341086,0.21904,27,0.0227465,10,7.47116e-05,-3.65948,3.94627,0.0149508,0.34099,
2,1,0,1,0,17803.2,0.360364,0.360087,0.217861,27,0.023629,10,7.84488e-05,-3.66182,2.8848,0.020452,0.359991,
2,1,0,1,0,17807,0.379342,0.379062,0.214848,27,0.0245032,10,8.14407e-05,-3.66787,-4.48081,-0.0131673,0.378968,
2,1,0,1,0,17810.8,0.398319,0.398013,0.213762,27,0.0253707,10,8.50798e-05,-3.67007,5.29331,0.0111462,0.397918,
2,1,0,1,0,17814.6,0.417295,0.417031,0.213471,27,0.0262339,10,8.9024e-05,-3.67066,23.5943,0.00250061,0.416937,
2,1,0,1,0,17818.4,0.436272,0.435982,0.213726,27,0.0270941,10,9.31805e-05,-3.67014,1.46378,0.0403066,0.435888,
2,1,0,1,0,17822.2,0.455249,0.454955,0.213579,27,0.0279555,10,9.71687e-05,-3.67044,2.1678,0.0272165,0.454861,
2,1,0,1,0,17826,0.474226,0.473911,0.215897,27,0.0288208,10,0.000102316,-3.66575,2.35236,0.0250812,0.473816,
2,1,0,1,0,17829.8,0.493203,0.492939,0.21847,27,0.0296938,10,0.000107692,-3.66061,1.45801,0.040466,0.492843,
2,1,0,0,0,17833.6,0.512181,0.511883,0.224392,27,0.0305814,10,0.000114862,-3.64899,3.09755,0.0190473,0.511784,
2,1,0,1,0,17837.4,0.531158,0.530877,0.230989,27,0.0314912,10,0.000122627,-3.63641,0.920145,0.0641203,0.530775,
2,1,0,0,0,17841.2,0.550135,0.549842,0.240084,27,0.0324309,10,0.000132008,-3.61964,0.62952,0.0937223,0.549737,
2,1,0,1,0,17845,0.569112,0.568827,0.255971,27,0.0334176,10,0.000145603,-3.59181,0.752966,0.0783568,0.568714,
2,1,0,0,0,17848.8,0.588089,0.587798,0.281339,27,0.0344794,10,0.00016537,-3.55077,0.376347,0.15677,0.587675,
2,1,0,1,0,17852.6,0.607066,0.606818,0.326835,27,0.0356724,10,0.000198329,-3.48567,0.236368,0.24961,0.606674,
2,1,0,1,0,17856.4,0.626044,0.625782,0.41583,27,0.0371098,10,0.000260219,-3.38108,0.147432,0.400184,0.625599,
2,1,0,1,0,17860.2,0.64502,0.644745,0.601887,27,0.0390485,10,0.000388063,-3.22049,0.0965037,0.611375,0.64448,
2,1,0,1,0,17864,0.663997,0.663725,1.00897,27,0.0420637,10,0.00066968,-2.99612,0.0755553,0.780885,0.663281,
2,1,0,1,0,17867.8,0.682974,0.682667,1.82006,27,0.0473185,10,0.0012425,-2.73991,0.0705646,0.836113,0.681866,
2,1,0,1,0,17871.5,0.701951,0.701688,3.23186,27,0.056744,10,0.00226776,-2.49055,0.0776111,0.760201,0.700266,
2,1,0,1,0,17875.3,0.720928,0.720676,5.3302,27,0.072824,10,0.00384135,-2.27326,0.0896578,0.658058,0.718331,
2,1,0,1,0,17879.1,0.739905,0.739615,8.09032,27,0.0981386,10,0.00598373,-2.09203,0.106821,0.552327,0.736056,
2,1,0,0,0,17882.9,0.758883,0.758608,11.4946,27,0.135104,10,0.00871987,-1.93951,0.120079,0.491343,0.75355,
2,1,0,1,0,17886.7,0.77786,0.777635,15.847,27,0.18669,10,0.0123232,-1.80005,0.122009,0.483569,0.770662,
2,1,0,0,0,17890.5,0.796837,0.796608,21.6601,27,0.257443,10,0.0172546,-1.66434,0.122032,0.483478,0.787078,
2,1,0,1,0,17894.3,0.815814,0.815532,28.7311,27,0.352802,10,0.0234312,-1.54165,0.140031,0.421336,0.802891,
2,1,0,0,0,17898.1,0.834791,0.834561,36.1816,27,0.475964,10,0.0301957,-1.44151,0.168392,0.350373,0.818642,
2,1,0,0,0,17901.8,0.846727,0.846511,40.0373,27,0.621943,10,0.033892,-1.39754,0.137713,0.428426,0.828895,
2,1,0,1,0,17905.6,0.827749,0.827515,31.3793,27,0.757,10,0.0259668,-1.50336,0.135136,0.436596,0.813708,
2,1,0,1,0,17909.4,0.808772,0.808493,23.729,27,0.861101,10,0.0191848,-1.62472,0.124359,0.474433,0.798053,
2,1,0,1,0,17913.2,0.789795,0.789547,17.365,27,0.938588,10,0.0137105,-1.76033,0.113273,0.520868,0.781907,
2,1,0,1,0,17917,0.770818,0.77055,12.1945,27,0.994256,10,0.00939648,-1.91384,0.104587,0.564122,0.765184,
2,1,0,1,0,17920.8,0.751841,0.751598,8.21772,27,1.03258,10,0.00617642,-2.08525,0.0965384,0.611156,0.747982,
2,1,0,1,0,17924.6,0.732865,0.732609,5.23369,27,1.05775,10,0.00383425,-2.28119,0.0857772,0.687829,0.730307,
2,1,0,0,0,17928.4,0.713887,0.713622,3.09015,27,1.07326,10,0.0022052,-2.51002,0.074072,0.796522,0.712262,
2,1,0,1,0,17932.2,0.69491,0.694634,1.65205,27,1.08202,10,0.00114757,-2.78198,0.0612141,0.96383,0.693908,
2,1,0,0,0,17936,0.675933,0.675694,0.770708,27,1.08642,10,0.000520763,-3.11311,0.0511021,1.15455,0.675355,
2,1,0,1,0,17939.8,0.656956,0.656698,0.292915,27,1.08828,10,0.000192357,-3.53326,0.0383988,1.53651,0.656569,
2,1,0,0,0,17943.6,0.637979,0.637692,0.0696859,27,1.08887,10,4.44381e-05,-4.15686,0.0192823,3.0598,0.637661,
2,0,0,1,0,17947.4,0.619002,0.618756,-0.0317038,27,1.08886,10,-1.96169e-05,-4.49889,-0.022476,-2.62503,0.61877,
2,0,0,0,0,17951.2,0.600025,0.599743,-0.0769656,27,1.08859,10,-4.61596e-05,-4.1137,-0.102385,-0.576258,0.599777,
2,0,0,1,0,17954.9,0.581047,0.58071,-0.0978901,27,1.0882,10,-5.68458e-05,-4.00926,-0.32098,-0.183812,0.580753,
2,0,0,1,0,17958.7,0.56207,0.561747,-0.108156,27,1.08776,10,-6.07561e-05,-3.96595,-0.888042,-0.0664383,0.561795,
2,0,0,1,0,17962.5,0.543093,0.542797,-0.114908,27,1.08729,10,-6.23718e-05,-3.93965,-2.69214,-0.0219156,0.542847,
2,0,0,1,0,17966.3,0.524116,0.523838,-0.1204,27,1.08679,10,-6.30698e-05,-3.91938,-1.45668,-0.040503,0.523891,
2,0,0,1,0,17970.1,0.505139,0.504848,-0.124393,27,1.08628,10,-6.27994e-05,-3.90521,-1.29923,-0.0454116,0.504903,
2,0,0,1,0,17973.9,0.486162,0.485894,-0.129537,27,1.08574,10,-6.29411e-05,-3.88761,-0.710204,-0.0830747,0.485951,
2,0,0,1,0,17977.7,0.467185,0.466892,-0.13653,27,1.08519,10,-6.37447e-05,-3.86477,-4.34381,-0.0135825,0.466952,
2,0,0,1,0,17981.5,0.448208,0.44793,-0.142473,27,1.08461,10,-6.38181e-05,-3.84627,18.7148,0.00315258,0.447992,
2,0,0,0,0,17985.3,0.429231,0.428934,-0.149828,27,1.084,10,-6.42661e-05,-3.82441,-1.70969,-0.0345091,0.429,
2,0,0,1,0,17989.1,0.410254,0.409943,-0.15723,27,1.08336,10,-6.44554e-05,-3.80346,-2.06221,-0.0286101,0.410012,
2,0,0,0,0,17992.9,0.391277,0.390948,-0.167742,27,1.08269,10,-6.55785e-05,-3.77536,-0.788409,-0.0748343,0.391022,
2,0,0,1,0,17996.7,0.3723,0.371979,-0.17829,27,1.08198,10,-6.632e-05,-3.74887,-0.852478,-0.06921,0.372058,
2,0,0,1,0,18000.5,0.353322,0.353083,-0.188315,27,1.08122,10,-6.6491e-05,-3.72511,-0.660883,-0.0892745,0.353166,
2,0,0,1,0,18004.3,0.334345,0.334044,-0.198911,27,1.08043,10,-6.64449e-05,-3.70134,-0.714156,-0.082615,0.334131,
2,0,0,1,0,18008.1,0.315368,0.315043,-0.211232,27,1.07959,10,-6.65471e-05,-3.67524,-0.943887,-0.0625075,0.315136,
2,0,0,1,0,18011.9,0.296391,0.296113,-0.223278,27,1.07871,10,-6.61157e-05,-3.65115,-0.576828,-0.102283,0.296212,
2,0,0,1,0,18015.7,0.277414,0.2771,-0.234428,27,1.07778,10,-6.496e-05,-3.62999,-0.676546,-0.0872077,0.277203,
2,0,0,1,0,18019.5,0.258437,0.258105,-0.247925,27,1.0768,10,-6.39905e-05,-3.60568,-0.741626,-0.0795549,0.258214,
2,0,0,1,0,18023.3,0.239461,0.239171,-0.259023,27,1.07578,10,-6.19507e-05,-3.58666,-1.98993,-0.0296493,0.239285,
2,0,0,0,0,18027.1,0.220483,0.220213,-0.271026,27,1.07471,10,-5.96833e-05,-3.56699,-0.636805,-0.09265,0.220332,
2,0,0,1,0,18030.9,0.201506,0.20121,-0.284267,27,1.07359,10,-5.71975e-05,-3.54627,-0.512913,-0.115029,0.201335,
2,0,0,0,0,18034.7,0.182529,0.182213,-0.30577,27,1.07241,10,-5.57153e-05,-3.5146,-0.368071,-0.160295,0.182348,
2,0,0,1,0,18038.4,0.163552,0.163252,-0.349347,27,1.07111,10,-5.70316e-05,-3.45674,-0.218071,-0.270554,0.163406,
2,0,0,0,0,18042.2,0.144575,0.144284,-0.48614,27,1.06951,10,-7.01424e-05,-3.31324,-0.0869877,-0.678257,0.144498,
2,0,0,1,0,18046,0.125598,0.125266,-0.733251,27,1.06709,10,-9.18515e-05,-3.13475,-0.238125,-0.247769,0.125589,
2,0,0,1,0,18049.8,0.10662,0.106303,-0.744032,27,1.06415,10,-7.90931e-05,-3.12841,0.687394,0.0858315,0.106631,
2,0,0,1,0,18053.6,0.0876433,0.0873657,-0.683759,27,1.06137,10,-5.97371e-05,-3.1651,0.502346,0.117449,0.0876666,
2,0,0,1,0,18057.4,0.0686664,0.0683785,-0.633613,27,1.05881,10,-4.33255e-05,-3.19818,0.700704,0.0842011,0.0686573,
2,0,0,1,0,18061.2,0.0496895,0.0493728,-0.58662,27,1.05642,10,-2.89631e-05,-3.23164,0.522563,0.112905,0.0496309,
2,0,0,1,0,18065,0.0307126,0.0304163,-0.534005,27,1.05422,10,-1.62424e-05,-3.27245,0.5052,0.116785,0.0306512,
2,0,0,1,0,18068.8,0.0117356,0.0114317,-0.4992,27,1.05219,10,-5.70668e-06,-3.30173,1.21688,0.0484846,0.0116513,
2,0,0,0,0,18071.1,0.000274105,-0.000121328,-0.49997,27,1.05101,10,6.06603e-08,-3.30106, , ,9.86589e-05,