Folder: Figs_alphaMnO2_OER_Tafel_sleope/Figure_codes/Fig_3-5/workspace_calculate_alpha_eff (part 19)

File: 20221101_1-115_003_TrumpetPlot_ParaChange_from10_every3_16_CV_C01_29.csv
mode,ox/red,error,control changes,counter inc.,time/s,control/V,Ewe/V,<I>/mA,cycle number,(Q-Qo)/C,I Range,P/W,log(|I|),Tafel slope mV/dec,alpha_eff,E-IR/V,
2,0,0,0,0,19701.3,2.44065e-05,-0.000382585,-0.098758,30,0.0000000E+000,10,3.77834e-08,-4.00543, , ,-0.000339132,
2,1,0,1,0,19705,0.0187763,0.0184614,0.218059,30,0.000717755,10,4.02567e-06,-3.66143,0.16622,0.354951,0.0183654,
2,1,0,1,0,19708.8,0.0377538,0.0374453,0.286044,30,0.00174006,10,1.0711e-05,-3.54357,0.187326,0.314959,0.0373194,
2,1,0,0,0,19712.6,0.0567309,0.0564404,0.350041,30,0.0030182,10,1.97564e-05,-3.45588,0.2606,0.2264,0.0562863,
2,1,0,1,0,19716.4,0.075708,0.0753919,0.399624,30,0.00451439,10,3.01285e-05,-3.39835,0.486825,0.121193,0.0752161,
2,1,0,0,0,19720.2,0.0946851,0.0944178,0.460193,30,0.00619519,10,4.34504e-05,-3.33706,0.208293,0.283255,0.0942153,
2,1,0,1,0,19724,0.113662,0.113365,0.564659,30,0.0082055,10,6.40126e-05,-3.24821,0.312891,0.188564,0.113117,
2,1,0,0,0,19727.8,0.132639,0.132324,0.625656,30,0.0105428,10,8.27894e-05,-3.20366,-1.33948,-0.0440471,0.132049,
2,1,0,1,0,19731.6,0.151617,0.151298,0.414465,30,0.0126712,10,6.2708e-05,-3.38251,-0.0713901,-0.826445,0.151116,
2,1,0,1,0,19735.4,0.170594,0.170296,0.29441,30,0.0140134,10,5.01369e-05,-3.53105,-0.216035,-0.273104,0.170167,
2,1,0,1,0,19739.2,0.189571,0.189249,0.265052,30,0.015125,10,5.01609e-05,-3.57667,-0.678127,-0.0870044,0.189133,
2,1,0,1,0,19743,0.208547,0.208224,0.251693,30,0.0161615,10,5.24084e-05,-3.59913,-1.46334,-0.0403189,0.208113,
2,1,0,1,0,19746.8,0.227524,0.227219,0.243372,30,0.0171578,10,5.52986e-05,-3.61373,-1.33392,-0.0442306,0.227111,
2,1,0,1,0,19750.6,0.246501,0.246171,0.238136,30,0.01813,10,5.86221e-05,-3.62318,-0.661193,-0.0892327,0.246066,
2,1,0,0,0,19754.4,0.265479,0.26521,0.234613,30,0.0190843,10,6.22216e-05,-3.62965,-1.64829,-0.0357947,0.265107,
2,1,0,1,0,19758.2,0.284456,0.284101,0.230134,30,0.0200212,10,6.53813e-05,-3.63802,-2.32508,-0.0253754,0.284,
2,1,0,0,0,19762,0.303433,0.303126,0.225724,30,0.0209419,10,6.84229e-05,-3.64642,-1.19069,-0.0495511,0.303027,
2,1,0,1,0,19765.8,0.32241,0.322094,0.222694,30,0.021848,10,7.17286e-05,-3.65229,-1.74371,-0.0338358,0.321996,
2,1,0,0,0,19769.6,0.341387,0.341102,0.220287,30,0.0227423,10,7.51404e-05,-3.65701,-4.7414,-0.0124436,0.341005,
2,1,0,1,0,19773.4,0.360364,0.360039,0.218935,30,0.0236268,10,7.88253e-05,-3.65968,-3.24339,-0.0181909,0.359943,
2,1,0,1,0,19777.2,0.379342,0.379049,0.216476,30,0.0245025,10,8.2055e-05,-3.66459,-0.958019,-0.0615854,0.378954,
2,1,0,1,0,19781,0.398319,0.398002,0.214665,30,0.0253702,10,8.54372e-05,-3.66824,1.19426,0.0494028,0.397907,
2,1,0,1,0,19784.7,0.417295,0.417001,0.214419,30,0.0262328,10,8.94128e-05,-3.66874,-25.7356,-0.00229255,0.416907,
2,1,0,1,0,19788.5,0.436272,0.435971,0.213684,30,0.0270923,10,9.31601e-05,-3.67023,9.77143,0.00603801,0.435877,
2,1,0,1,0,19792.3,0.455249,0.454899,0.21406,30,0.0279524,10,9.73759e-05,-3.66946,11.0721,0.0053287,0.454805,
2,1,0,1,0,19796.1,0.474226,0.473924,0.215564,30,0.028817,10,0.000102161,-3.66642,1.11702,0.0528189,0.473829,
2,1,0,1,0,19799.9,0.493203,0.492933,0.220533,30,0.0296909,10,0.000108708,-3.65653,1.37811,0.0428122,0.492836,
2,1,0,0,0,19803.7,0.512181,0.511899,0.224158,30,0.0305793,10,0.000114746,-3.64945,1.50759,0.0391352,0.5118,
2,1,0,1,0,19807.5,0.531158,0.530841,0.230614,30,0.0314881,10,0.000122419,-3.63711,0.957812,0.0615987,0.530739,
2,1,0,0,0,19811.3,0.550135,0.549847,0.241292,30,0.0324288,10,0.000132674,-3.61746,0.543136,0.108628,0.549741,
2,1,0,1,0,19815.1,0.569112,0.56881,0.257246,30,0.0334178,10,0.000146324,-3.58965,0.592999,0.0994943,0.568697,
2,1,0,0,0,19818.9,0.588089,0.587782,0.282334,30,0.0344817,10,0.000165951,-3.54924,0.3666,0.160938,0.587658,
2,1,0,1,0,19822.7,0.607066,0.606763,0.326476,30,0.0356718,10,0.000198093,-3.48615,0.245658,0.240171,0.606619,
2,1,0,1,0,19826.5,0.626044,0.625782,0.412534,30,0.0370994,10,0.000258156,-3.38454,0.143386,0.411478,0.6256,
2,1,0,1,0,19830.3,0.64502,0.644776,0.594151,30,0.0390132,10,0.000383094,-3.2261,0.0991071,0.595316,0.644515,
2,1,0,1,0,19834.1,0.663997,0.663699,0.984636,30,0.0419666,10,0.000653502,-3.00672,0.0794901,0.742231,0.663266,
2,1,0,1,0,19837.9,0.682974,0.682675,1.7607,30,0.0470671,10,0.00120199,-2.75431,0.071969,0.819797,0.681901,
2,1,0,1,0,19841.7,0.701951,0.701684,3.09984,30,0.0561391,10,0.00217511,-2.50866,0.0782679,0.753822,0.70032,
2,1,0,1,0,19845.5,0.720928,0.720609,5.08331,30,0.07151,10,0.00366308,-2.29385,0.0920713,0.640807,0.718372,
2,1,0,1,0,19849.3,0.739905,0.73966,7.69238,30,0.0956083,10,0.00568975,-2.11394,0.107962,0.546488,0.736275,
2,1,0,0,0,19853.1,0.758883,0.758608,10.9407,30,0.130793,10,0.00829972,-1.96095,0.12004,0.491502,0.753794,
2,1,0,1,0,19856.9,0.77786,0.777629,14.9815,30,0.179719,10,0.01165,-1.82445,0.125292,0.470899,0.771037,
2,1,0,0,0,19860.7,0.796837,0.796586,20.3854,30,0.246436,10,0.0162387,-1.69068,0.125012,0.471954,0.787617,
2,1,0,1,0,19864.5,0.815814,0.815579,26.8702,30,0.336095,10,0.0219148,-1.57073,0.153857,0.383474,0.803756,
2,1,0,0,0,19868.2,0.834791,0.83452,34.2385,30,0.4521,10,0.0285727,-1.46549,0.162509,0.363056,0.819455,
2,1,0,0,0,19871.9,0.846727,0.846519,38.0918,30,0.590867,10,0.0322454,-1.41917,0.139749,0.422185,0.829758,
2,1,0,1,0,19875.7,0.827749,0.827486,29.641,30,0.718894,10,0.0245275,-1.52811,0.136059,0.433635,0.814444,
2,1,0,1,0,19879.5,0.808772,0.808503,22.3022,30,0.817008,10,0.0180314,-1.65165,0.126429,0.466665,0.79869,
2,1,0,1,0,19883.3,0.789795,0.789535,16.3695,30,0.889966,10,0.0129243,-1.78596,0.112351,0.52514,0.782333,
2,1,0,1,0,19887.1,0.770818,0.770517,11.494,30,0.942415,10,0.00885632,-1.93953,0.10715,0.550628,0.76546,
2,1,0,1,0,19890.9,0.751841,0.75156,7.78224,30,0.978595,10,0.00584882,-2.1089,0.109828,0.537205,0.748136,
2,1,0,1,0,19894.7,0.732865,0.732573,5.01465,30,1.00267,10,0.0036736,-2.29976,0.085359,0.691198,0.730366,
2,1,0,0,0,19898.5,0.713887,0.713647,2.97532,30,1.01755,10,0.00212333,-2.52647,0.0693858,0.850319,0.712338,
2,1,0,1,0,19902.3,0.69491,0.69462,1.5888,30,1.02594,10,0.00110361,-2.79893,0.0621597,0.949168,0.69392,
2,1,0,0,0,19906.1,0.675933,0.675639,0.743729,30,1.03019,10,0.000502493,-3.12858,0.0503004,1.17295,0.675312,
2,1,0,1,0,19909.9,0.656956,0.656635,0.28691,30,1.032,10,0.000188395,-3.54225,0.0372981,1.58185,0.656508,
2,1,0,0,0,19913.7,0.637979,0.637693,0.0622037,30,1.03256,10,3.96668e-05,-4.20618,0.0172288,3.4245,0.637665,
2,0,0,1,0,19917.5,0.619002,0.618706,-0.0365137,30,1.03253,10,-2.25913e-05,-4.43754,-0.0246387,-2.3946,0.618722,
2,0,0,0,0,19921.3,0.600025,0.599753,-0.0798777,30,1.03226,10,-4.79069e-05,-4.09757,-0.135362,-0.435867,0.599789,
2,0,0,1,0,19925.1,0.581047,0.580773,-0.100379,30,1.03186,10,-5.82974e-05,-3.99836,-0.620588,-0.0950712,0.580817,
2,0,0,1,0,19928.9,0.56207,0.561726,-0.109724,30,1.03142,10,-6.16351e-05,-3.9597,-1.32193,-0.0446318,0.561774,
2,0,0,1,0,19932.7,0.543093,0.542798,-0.115905,30,1.03095,10,-6.29127e-05,-3.9359,-1.15376,-0.0511372,0.542849,
2,0,0,1,0,19936.5,0.524116,0.523819,-0.120874,30,1.03045,10,-6.33161e-05,-3.91767,-0.72065,-0.0818705,0.523872,
2,0,0,1,0,19940.3,0.505139,0.504864,-0.125863,30,1.02994,10,-6.35439e-05,-3.9001,-0.693037,-0.0851326,0.504919,
2,0,0,1,0,19944.1,0.486162,0.485854,-0.130384,30,1.02941,10,-6.33475e-05,-3.88478,-1.24418,-0.0474209,0.485912,
2,0,0,1,0,19947.9,0.467185,0.466871,-0.137071,30,1.02886,10,-6.39943e-05,-3.86306,-0.970964,-0.0607643,0.466932,
2,0,0,1,0,19951.6,0.448208,0.44793,-0.14367,30,1.02828,10,-6.43543e-05,-3.84263,-0.710744,-0.0830116,0.447993,
2,0,0,0,0,19955.4,0.429231,0.428953,-0.150696,30,1.02767,10,-6.46415e-05,-3.8219,-6.71482,-0.00878654,0.429019,
2,0,0,1,0,19959.2,0.410254,0.409913,-0.159863,30,1.02704,10,-6.55298e-05,-3.79625,-0.754061,-0.078243,0.409983,
2,0,0,0,0,19963,0.391277,0.390992,-0.168995,30,1.02636,10,-6.60759e-05,-3.77213,-1.24245,-0.0474867,0.391067,
2,0,0,1,0,19966.8,0.3723,0.371983,-0.178599,30,1.02565,10,-6.64357e-05,-3.74812,-0.921721,-0.0640107,0.372062,
2,0,0,1,0,19970.6,0.353322,0.35303,-0.188676,30,1.0249,10,-6.66084e-05,-3.72428,-0.756277,-0.0780138,0.353113,
2,0,0,1,0,19974.4,0.334345,0.334031,-0.200465,30,1.02411,10,-6.69614e-05,-3.69796,-0.618253,-0.0954302,0.334119,
2,0,0,1,0,19978.2,0.315368,0.315009,-0.212271,30,1.02328,10,-6.68674e-05,-3.67311,-1.38511,-0.0425959,0.315102,
2,0,0,1,0,19982,0.296391,0.296061,-0.224926,30,1.0224,10,-6.6592e-05,-3.64796,-0.891173,-0.0662048,0.29616,
2,0,0,1,0,19985.8,0.277414,0.277098,-0.235295,30,1.02147,10,-6.51999e-05,-3.62839,-0.693047,-0.0851313,0.277202,
2,0,0,1,0,19989.6,0.258437,0.258085,-0.247639,30,1.0205,10,-6.3912e-05,-3.60618,-0.898582,-0.065659,0.258194,
2,0,0,1,0,19993.4,0.239461,0.239163,-0.259019,30,1.01948,10,-6.19478e-05,-3.58667,-0.867175,-0.068037,0.239277,
2,0,0,0,0,19997.2,0.220483,0.220187,-0.270319,30,1.01842,10,-5.95208e-05,-3.56812,-0.617894,-0.0954856,0.220306,
2,0,0,1,0,20001,0.201506,0.201186,-0.285691,30,1.01731,10,-5.7477e-05,-3.5441,-0.430168,-0.137156,0.201312,
2,0,0,0,0,20004.8,0.182529,0.182207,-0.305991,30,1.01614,10,-5.57536e-05,-3.51429,-0.413223,-0.14278,0.182341,
2,0,0,1,0,20008.6,0.163552,0.16323,-0.347201,30,1.01485,10,-5.66734e-05,-3.45942,-0.240628,-0.245192,0.163382,
2,0,0,0,0,20012.4,0.144575,0.144242,-0.472755,30,1.01329,10,-6.81911e-05,-3.32536,-0.0912526,-0.646557,0.14445,
2,0,0,1,0,20016.2,0.125598,0.125295,-0.714764,30,1.01094,10,-8.95561e-05,-3.14584,-0.2215,-0.266365,0.125609,
2,0,0,1,0,20020,0.10662,0.106291,-0.735633,30,1.00807,10,-7.8191e-05,-3.13334,1.11258,0.0530299,0.106614,
2,0,0,1,0,20023.8,0.0876433,0.0873437,-0.68182,30,1.00531,10,-5.95526e-05,-3.16633,0.492473,0.119804,0.0876437,
2,0,0,1,0,20027.6,0.0686664,0.0683381,-0.633137,30,1.00276,10,-4.32674e-05,-3.1985,0.801263,0.0736338,0.0686166,
2,0,0,1,0,20031.4,0.0496895,0.04934,-0.588531,30,1.00038,10,-2.90381e-05,-3.23023,0.539394,0.109382,0.0495989,
2,0,0,1,0,20035.1,0.0307126,0.0303863,-0.537934,30,0.998171,10,-1.63458e-05,-3.26927,0.539979,0.109263,0.030623,
2,0,0,1,0,20038.9,0.0117356,0.0114222,-0.50343,30,0.99614,10,-5.75028e-06,-3.29806,0.922288,0.0639713,0.0116437,
2,0,0,0,0,20041.2,0.000274105,-9.03109e-05,-0.501905,30,0.994954,10,4.53275e-08,-3.29938, , ,0.000130527,

File: 20221101_1-115_003_TrumpetPlot_ParaChange_from10_every3_16_CV_C01_30.csv
mode,ox/red,error,control changes,counter inc.,time/s,control/V,Ewe/V,<I>/mA,cycle number,(Q-Qo)/C,I Range,P/W,log(|I|),Tafel slope mV/dec,alpha_eff,E-IR/V,
2,0,0,1,0,20931.4,2.44065e-05,-0.000306236,-0.0472394,31,0.0000000E+000,10,1.44664e-08,-4.3257, , ,-0.000285451,
2,1,0,1,0,20935.2,0.0187763,0.0184668,0.272608,31,0.000919595,10,5.0342e-06,-3.56446,0.161861,0.36451,0.0183469,
2,1,0,0,0,20939,0.0377538,0.0374358,0.339762,31,0.00214785,10,1.27193e-05,-3.46882,0.237533,0.248387,0.0372863,
2,1,0,1,0,20942.8,0.0567309,0.0563884,0.400006,31,0.00362574,10,2.25557e-05,-3.39793,0.442911,0.13321,0.0562124,
2,1,0,0,0,20946.6,0.075708,0.0753304,0.446106,31,0.00530749,10,3.36054e-05,-3.35056,0.560319,0.105297,0.0751342,
2,1,0,1,0,20950.4,0.0946851,0.0944421,0.502943,31,0.0071541,10,4.7499e-05,-3.29848,0.2506,0.235435,0.0942208,
2,1,0,0,0,20954.1,0.113662,0.113336,0.60122,31,0.00931608,10,6.81402e-05,-3.22097,0.368066,0.160297,0.113072,
2,1,0,1,0,20957.9,0.132639,0.132303,0.656932,31,0.0117814,10,8.6914e-05,-3.18248,-1.28864,-0.0457847,0.132014,
2,1,0,1,0,20961.7,0.151617,0.151309,0.445079,31,0.0140168,10,6.73443e-05,-3.35156,-0.0870638,-0.677664,0.151113,
2,1,0,1,0,20965.5,0.170594,0.17029,0.334864,31,0.0154998,10,5.7024e-05,-3.47513,-0.293178,-0.201243,0.170143,
2,1,0,1,0,20969.3,0.189571,0.189221,0.309258,31,0.0167716,10,5.85182e-05,-3.50968,-1.04315,-0.0565596,0.189085,
2,1,0,1,0,20973.1,0.208547,0.208219,0.297403,31,0.0179773,10,6.19251e-05,-3.52665,-1.14097,-0.0517105,0.208089,
2,1,0,1,0,20976.9,0.227524,0.227217,0.288347,31,0.0191443,10,6.55175e-05,-3.54008,-1.48067,-0.0398467,0.227091,
2,1,0,1,0,20980.7,0.246501,0.246206,0.283352,31,0.0202843,10,6.97629e-05,-3.54767,-1.2376,-0.047673,0.246081,
2,1,0,1,0,20984.5,0.265479,0.265187,0.278541,31,0.0214043,10,7.38655e-05,-3.55511,-1.22243,-0.0482647,0.265064,
2,1,0,0,0,20988.3,0.284456,0.284159,0.274812,31,0.0225079,10,7.80905e-05,-3.56096,-1.13275,-0.0520857,0.284039,
2,1,0,1,0,20992.1,0.303433,0.303153,0.269429,31,0.0235935,10,8.16785e-05,-3.56956,-3.58855,-0.0164412,0.303035,
2,1,0,0,0,20995.9,0.32241,0.322107,0.265426,31,0.0246616,10,8.54957e-05,-3.57606,-11.1736,-0.0052803,0.32199,
2,1,0,1,0,20999.7,0.341387,0.341099,0.261722,31,0.0257151,10,8.92731e-05,-3.58216,-2.54403,-0.0231915,0.340984,
2,1,0,0,0,21003.5,0.360364,0.36007,0.260597,31,0.0267565,10,9.38331e-05,-3.58403,-1.27481,-0.0462815,0.359955,
2,1,0,1,0,21007.3,0.379342,0.379048,0.256264,31,0.0277866,10,9.71366e-05,-3.59131,-3.18117,-0.0185467,0.378936,
2,1,0,1,0,21011.1,0.398319,0.398032,0.254478,31,0.0288075,10,0.00010129,-3.59435,-3.86225,-0.0152761,0.39792,
2,1,0,1,0,21014.9,0.417295,0.41702,0.253464,31,0.0298212,10,0.0001057,-3.59608,3.6233,0.0162835,0.416908,
2,1,0,1,0,21018.7,0.436272,0.435969,0.252449,31,0.0308307,10,0.00011006,-3.59783,-2.78851,-0.0211583,0.435858,
2,1,0,1,0,21022.5,0.455249,0.454999,0.252422,31,0.0318366,10,0.000114852,-3.59787,8.65758,0.00681484,0.454888,
2,1,0,1,0,21026.3,0.474226,0.473937,0.25469,31,0.0328451,10,0.000120707,-3.59399,-0.463283,-0.127352,0.473825,
2,1,0,1,0,21030.1,0.493203,0.492939,0.256336,31,0.0338592,10,0.000126358,-3.59119,1.17358,0.0502736,0.492827,
2,1,0,1,0,21033.9,0.512181,0.511906,0.259678,31,0.0348844,10,0.000132931,-3.58556,1.51574,0.0389248,0.511792,
2,1,0,0,0,21037.6,0.531158,0.530881,0.265884,31,0.0359286,10,0.000141153,-3.57531,0.826842,0.0713559,0.530764,
2,1,0,1,0,21041.4,0.550135,0.549862,0.275511,31,0.0370008,10,0.000151493,-3.55986,0.835585,0.0706092,0.549741,
2,1,0,0,0,21045.2,0.569112,0.568839,0.291247,31,0.0381176,10,0.000165673,-3.53574,0.583564,0.101103,0.568711,
2,1,0,1,0,21049,0.588089,0.587779,0.316053,31,0.0393068,10,0.000185769,-3.50024,0.403754,0.146129,0.58764,
2,1,0,0,0,21052.8,0.607066,0.606804,0.358121,31,0.0406183,10,0.000217309,-3.44597,0.266108,0.221714,0.606646,
2,1,0,1,0,21056.6,0.626044,0.625755,0.444319,31,0.042167,10,0.000278035,-3.35231,0.161514,0.365293,0.62556,
2,1,0,1,0,21060.4,0.64502,0.644769,0.62374,31,0.0441943,10,0.000402169,-3.205,0.102187,0.577372,0.644495,
2,1,0,1,0,21064.2,0.663997,0.663708,1.00507,31,0.0472422,10,0.000667071,-2.99781,0.082088,0.718741,0.663266,
2,1,0,1,0,21068,0.682974,0.682689,1.76289,31,0.0523883,10,0.00120351,-2.75377,0.0747618,0.789173,0.681913,
2,1,0,1,0,21071.8,0.701951,0.701673,3.0733,31,0.0614167,10,0.00215645,-2.51239,0.0787209,0.749484,0.700321,
2,1,0,1,0,21075.6,0.720928,0.720653,5.02062,31,0.0766229,10,0.00361813,-2.29924,0.0930887,0.633804,0.718444,
2,1,0,1,0,21079.4,0.739905,0.739636,7.58705,31,0.100407,10,0.00561165,-2.11993,0.107877,0.546921,0.736297,
2,1,0,1,0,21083.2,0.758883,0.75863,10.7614,31,0.135071,10,0.0081639,-1.96813,0.122678,0.480934,0.753895,
2,1,0,0,0,21087,0.77786,0.777578,14.8015,31,0.183266,10,0.0115094,-1.82969,0.125615,0.469689,0.771066,
2,1,0,1,0,21090.8,0.796837,0.796583,20.0185,31,0.24903,10,0.0159464,-1.69857,0.128004,0.460925,0.787775,
2,1,0,0,0,21094.6,0.815814,0.815558,26.1965,31,0.336617,10,0.0213648,-1.58176,0.147133,0.400996,0.804031,
2,1,0,1,0,21098.4,0.834791,0.83456,33.04,31,0.44885,10,0.0275739,-1.48096,0.167923,0.351352,0.820023,
2,1,0,1,0,21102.1,0.846727,0.846456,36.6407,31,0.582744,10,0.0310148,-1.43604,0.13703,0.430564,0.830334,
2,1,0,1,0,21105.9,0.827749,0.827451,28.7027,31,0.706245,10,0.0237501,-1.54208,0.142341,0.414498,0.814822,
2,1,0,1,0,21109.7,0.808772,0.808495,21.7476,31,0.801602,10,0.0175828,-1.66259,0.13047,0.45221,0.798926,
2,1,0,1,0,21113.5,0.789795,0.789497,15.9098,31,0.872735,10,0.0125607,-1.79834,0.115397,0.511279,0.782497,
2,1,0,1,0,21117.3,0.770818,0.770539,11.1019,31,0.923657,10,0.00855447,-1.9546,0.108662,0.54297,0.765655,
2,1,0,1,0,21121,0.751841,0.751551,7.51193,31,0.958621,10,0.00564559,-2.12425,0.0984786,0.599115,0.748245,
2,1,0,1,0,21124.8,0.732865,0.73258,4.86757,31,0.98181,10,0.00356588,-2.31269,0.0876282,0.673299,0.730439,
2,1,0,1,0,21128.6,0.713887,0.713632,2.90105,31,0.996282,10,0.00207028,-2.53744,0.0753458,0.783056,0.712355,
2,1,0,0,0,21132.4,0.69491,0.694674,1.56598,31,1.00453,10,0.00108784,-2.80521,0.063261,0.932644,0.693985,
2,1,0,1,0,21136.2,0.675933,0.675637,0.744217,31,1.00874,10,0.000502821,-3.1283,0.0522371,1.12946,0.67531,
2,1,0,0,0,21140,0.656956,0.656675,0.295753,31,1.01057,10,0.000194213,-3.52907,0.0412382,1.43071,0.656545,
2,1,0,1,0,21143.8,0.637979,0.637718,0.0790747,31,1.01118,10,5.04274e-05,-4.10196,0.0245045,2.40772,0.637683,
2,0,0,0,0,21147.6,0.619002,0.618698,-0.0165921,31,1.01122,10,-1.02655e-05,-4.7801,-0.0114682,-5.14466,0.618705,
2,0,0,1,0,21151.4,0.600025,0.599752,-0.0574034,31,1.01103,10,-3.44278e-05,-4.24106,-0.095064,-0.620634,0.599778,
2,0,0,1,0,21155.2,0.581047,0.580755,-0.0767114,31,1.01072,10,-4.45505e-05,-4.11514,-0.190385,-0.309899,0.580789,
2,0,0,1,0,21159,0.56207,0.561749,-0.0871427,31,1.01037,10,-4.89523e-05,-4.05977,-0.592874,-0.0995152,0.561788,
2,0,0,1,0,21162.8,0.543093,0.542801,-0.093372,31,1.00998,10,-5.06824e-05,-4.02978,-0.691619,-0.085307,0.542842,
2,0,0,1,0,21166.6,0.524116,0.523822,-0.0991981,31,1.00957,10,-5.19621e-05,-4.0035,4.37266,0.0134929,0.523866,
2,0,0,1,0,21170.4,0.505139,0.504819,-0.104245,31,1.00914,10,-5.2625e-05,-3.98194,-1.03158,-0.0571937,0.504865,
2,0,0,1,0,21174.2,0.486162,0.48587,-0.10918,31,1.00869,10,-5.30473e-05,-3.96186,-0.729951,-0.0808274,0.485919,
2,0,0,1,0,21178,0.467185,0.46687,-0.116401,31,1.00821,10,-5.43439e-05,-3.93405,-1.03673,-0.0569098,0.466921,
2,0,0,0,0,21181.8,0.448208,0.447903,-0.122824,31,1.00771,10,-5.50133e-05,-3.91072,-1.07864,-0.0546986,0.447957,
2,0,0,1,0,21185.6,0.429231,0.428934,-0.131018,31,1.00718,10,-5.61978e-05,-3.88267,-21.046,-0.00280339,0.428991,
2,0,0,0,0,21189.4,0.410254,0.409941,-0.140748,31,1.00661,10,-5.76983e-05,-3.85156,-0.871682,-0.0676852,0.410003,
2,0,0,1,0,21193.2,0.391277,0.390953,-0.149805,31,1.00601,10,-5.85669e-05,-3.82447,-0.723588,-0.0815381,0.391019,
2,0,0,0,0,21197,0.3723,0.371984,-0.160029,31,1.00537,10,-5.95283e-05,-3.7958,-0.543587,-0.108538,0.372055,
2,0,0,1,0,21200.8,0.353322,0.352997,-0.171029,31,1.00469,10,-6.03728e-05,-3.76693,-0.573364,-0.102902,0.353073,
2,0,0,1,0,21204.5,0.334345,0.334042,-0.182125,31,1.00396,10,-6.08373e-05,-3.73963,-1.02638,-0.0574835,0.334122,
2,0,0,1,0,21208.3,0.315368,0.315012,-0.193902,31,1.00319,10,-6.10814e-05,-3.71242,-0.926507,-0.06368,0.315097,
2,0,0,1,0,21212.1,0.296391,0.296058,-0.206456,31,1.00238,10,-6.1123e-05,-3.68517,-0.572732,-0.103015,0.296149,
2,0,0,1,0,21215.9,0.277414,0.277046,-0.218886,31,1.00152,10,-6.06416e-05,-3.65978,-0.627242,-0.0940625,0.277143,
2,0,0,1,0,21219.7,0.258437,0.258142,-0.2318,31,1.00061,10,-5.98373e-05,-3.63489,-0.933634,-0.0631939,0.258244,
2,0,0,1,0,21223.5,0.239461,0.239153,-0.242642,31,0.999647,10,-5.80285e-05,-3.61503,-0.754529,-0.0781945,0.23926,
2,0,0,1,0,21227.3,0.220483,0.220162,-0.255781,31,0.998642,10,-5.63133e-05,-3.59213,-0.564912,-0.104441,0.220274,
2,0,0,0,0,21231.1,0.201506,0.201199,-0.269558,31,0.997586,10,-5.42346e-05,-3.56935,-0.533602,-0.110569,0.201317,
2,0,0,1,0,21234.9,0.182529,0.182258,-0.291265,31,0.996464,10,-5.30853e-05,-3.53571,-0.42788,-0.137889,0.182386,
2,0,0,0,0,21238.7,0.163552,0.16322,-0.33178,31,0.995233,10,-5.41531e-05,-3.47915,-0.227367,-0.259493,0.163366,
2,0,0,1,0,21242.5,0.144575,0.144246,-0.456444,31,0.993728,10,-6.58403e-05,-3.34061,-0.0851912,-0.69256,0.144447,
2,0,0,0,0,21246.3,0.125598,0.125247,-0.696318,31,0.991452,10,-8.72117e-05,-3.15719,-0.212902,-0.277122,0.125553,
2,0,0,1,0,21250.1,0.10662,0.106314,-0.719383,31,0.988645,10,-7.64805e-05,-3.14304,1.03819,0.0568299,0.106631,
2,0,0,1,0,21253.9,0.0876433,0.0872914,-0.666739,31,0.985946,10,-5.82006e-05,-3.17604,0.542963,0.108663,0.0875848,
2,0,0,1,0,21257.7,0.0686664,0.0683626,-0.621177,31,0.983441,10,-4.24653e-05,-3.20678,0.829451,0.0711314,0.0686359,
2,0,0,1,0,21261.5,0.0496895,0.0493441,-0.578719,31,0.981094,10,-2.85564e-05,-3.23753,0.531557,0.110995,0.0495987,
2,0,0,1,0,21265.3,0.0307126,0.0303577,-0.531053,31,0.978921,10,-1.61216e-05,-3.27486,0.450172,0.131061,0.0305914,
2,0,0,1,0,21269.1,0.0117356,0.0114043,-0.495845,31,0.976916,10,-5.65474e-06,-3.30465,1.794,0.0328874,0.0116224,
2,0,0,1,0,21271.4,0.000274105,-0.000138029,-0.493196,31,0.975744,10,6.80754e-08,-3.30698, , ,7.89768e-05,