Folder: Figs_alphaMnO2_OER_Tafel_sleope/Figure_codes/Fig_3-5/workspace_calculate_alpha_eff (part 21)

File: 20221101_1-115_003_TrumpetPlot_ParaChange_from10_every3_16_CV_C01_33.csv
mode,ox/red,error,control changes,counter inc.,time/s,control/V,Ewe/V,<I>/mA,cycle number,(Q-Qo)/C,I Range,P/W,log(|I|),Tafel slope mV/dec,alpha_eff,E-IR/V,
2,0,0,1,0,22901.6,2.44065e-05,-0.000478022,-0.0567799,34,0.0000000E+000,10,2.7142e-08,-4.24581, , ,-0.000453039,
2,1,0,1,0,22905.3,0.0187763,0.0184476,0.27512,34,0.000940532,10,5.07531e-06,-3.56048,0.180869,0.326202,0.0183266,
2,1,0,0,0,22909.1,0.0377538,0.0374548,0.342112,34,0.00218478,10,1.28138e-05,-3.46583,0.210844,0.279828,0.0373043,
2,1,0,1,0,22912.9,0.0567309,0.0564446,0.403622,34,0.00367808,10,2.27823e-05,-3.39403,0.361578,0.163174,0.056267,
2,1,0,0,0,22916.7,0.075708,0.0754142,0.450339,34,0.00537545,10,3.3962e-05,-3.34646,0.628849,0.0938222,0.0752161,
2,1,0,1,0,22920.5,0.0946851,0.0943541,0.505151,34,0.00723774,10,4.76631e-05,-3.29658,0.255082,0.231299,0.0941319,
2,1,0,0,0,22924.3,0.113662,0.113348,0.605531,34,0.00941759,10,6.86358e-05,-3.21786,0.356075,0.165695,0.113082,
2,1,0,1,0,22928.1,0.132639,0.132368,0.660767,34,0.0119073,10,8.74641e-05,-3.17995,-1.12668,-0.0523661,0.132077,
2,1,0,1,0,22931.9,0.151617,0.151297,0.444149,34,0.0141567,10,6.71985e-05,-3.35247,-0.0806769,-0.731313,0.151102,
2,1,0,1,0,22935.7,0.170594,0.170305,0.328887,34,0.0156277,10,5.60111e-05,-3.48295,-0.287291,-0.205366,0.17016,
2,1,0,1,0,22939.5,0.189571,0.189238,0.303393,34,0.0168837,10,5.74137e-05,-3.51799,-1.02356,-0.0576421,0.189105,
2,1,0,1,0,22943.3,0.208547,0.208217,0.29321,34,0.0180773,10,6.10514e-05,-3.53282,-1.24793,-0.0472784,0.208088,
2,1,0,1,0,22947.1,0.227524,0.227235,0.28412,34,0.0192359,10,6.45622e-05,-3.5465,-1.21483,-0.0485666,0.22711,
2,1,0,1,0,22950.8,0.246501,0.246185,0.27956,34,0.0203708,10,6.88236e-05,-3.55352,-1.83255,-0.0321956,0.246062,
2,1,0,1,0,22954.6,0.265479,0.265193,0.27589,34,0.0214877,10,7.31641e-05,-3.55926,-1.2527,-0.0470984,0.265072,
2,1,0,0,0,22958.4,0.284456,0.284191,0.27359,34,0.0225889,10,7.77519e-05,-3.5629,-2.9434,-0.0200449,0.284071,
2,1,0,1,0,22962.2,0.303433,0.303143,0.268097,34,0.0236735,10,8.12717e-05,-3.57171,-2.39429,-0.0246419,0.303025,
2,1,0,0,0,22966,0.32241,0.32213,0.26484,34,0.0247438,10,8.53131e-05,-3.57702,-2.99653,-0.0196895,0.322014,
2,1,0,1,0,22969.8,0.341387,0.341064,0.262199,34,0.0258013,10,8.94266e-05,-3.58137,16.8484,0.00350182,0.340949,
2,1,0,0,0,22973.6,0.360364,0.360121,0.260204,34,0.0268472,10,9.37048e-05,-3.58469,-4.59959,-0.0128272,0.360006,
2,1,0,1,0,22977.4,0.379342,0.379044,0.256424,34,0.0278826,10,9.7196e-05,-3.59104,-4.04526,-0.014585,0.378931,
2,1,0,1,0,22981.2,0.398319,0.398005,0.255098,34,0.0289087,10,0.00010153,-3.59329,-5.2507,-0.0112366,0.397893,
2,1,0,1,0,22985,0.417295,0.416975,0.253306,34,0.0299273,10,0.000105622,-3.59636,1.90349,0.0309957,0.416864,
2,1,0,1,0,22988.8,0.436272,0.435956,0.253579,34,0.0309403,10,0.000110549,-3.59589,-16.0823,-0.00366862,0.435844,
2,1,0,1,0,22992.6,0.455249,0.454959,0.253002,34,0.031952,10,0.000115105,-3.59688,1.2912,0.0456938,0.454848,
2,1,0,1,0,22996.4,0.474226,0.473938,0.253714,34,0.0329635,10,0.000120245,-3.59566,1.02562,0.0575262,0.473826,
2,1,0,1,0,23000.2,0.493203,0.492894,0.255238,34,0.0339806,10,0.000125805,-3.59305,1.55628,0.037911,0.492781,
2,1,0,1,0,23004,0.512181,0.511906,0.260286,34,0.0350083,10,0.000133242,-3.58455,1.50537,0.039193,0.511792,
2,1,0,0,0,23007.8,0.531158,0.530851,0.26694,34,0.0360563,10,0.000141705,-3.57359,1.07342,0.0549644,0.530734,
2,1,0,1,0,23011.6,0.550135,0.549889,0.276825,34,0.0371334,10,0.000152223,-3.5578,0.669316,0.0881498,0.549767,
2,1,0,0,0,23015.4,0.569112,0.568831,0.290792,34,0.0382551,10,0.000165412,-3.53642,0.573298,0.102913,0.568703,
2,1,0,1,0,23019.2,0.588089,0.587801,0.315453,34,0.0394481,10,0.000185424,-3.50106,0.423801,0.139216,0.587662,
2,1,0,0,0,23023,0.607066,0.606794,0.35864,34,0.0407636,10,0.000217621,-3.44534,0.261852,0.225318,0.606636,
2,1,0,1,0,23026.8,0.626044,0.625733,0.444227,34,0.0423154,10,0.000277968,-3.35239,0.161262,0.365864,0.625537,
2,1,0,1,0,23030.6,0.64502,0.644737,0.62101,34,0.0443443,10,0.000400388,-3.2069,0.103695,0.568978,0.644464,
2,1,0,1,0,23034.3,0.663997,0.663729,1.00259,34,0.0473885,10,0.00066545,-2.99888,0.0802495,0.735207,0.663288,
2,1,0,1,0,23038.1,0.682974,0.682709,1.75836,34,0.0525242,10,0.00120045,-2.75489,0.0733773,0.804064,0.681935,
2,1,0,1,0,23041.9,0.701951,0.701668,3.07291,34,0.0615424,10,0.00215616,-2.51245,0.0794306,0.742786,0.700316,
2,1,0,1,0,23045.7,0.720928,0.720687,5.03834,34,0.0767745,10,0.00363107,-2.29771,0.0911077,0.647585,0.71847,
2,1,0,1,0,23049.5,0.739905,0.739645,7.65596,34,0.10071,10,0.00566269,-2.116,0.105345,0.560066,0.736276,
2,1,0,1,0,23053.3,0.758883,0.75859,10.9305,34,0.135809,10,0.00829174,-1.96136,0.119932,0.491944,0.75378,
2,1,0,0,0,23057.1,0.77786,0.777635,15.1104,34,0.1849,10,0.0117504,-1.82072,0.122081,0.483285,0.770986,
2,1,0,1,0,23060.9,0.796837,0.79657,20.6421,34,0.252343,10,0.0164429,-1.68525,0.128624,0.458702,0.787488,
2,1,0,0,0,23064.7,0.815814,0.815562,27.2961,34,0.343062,10,0.0222616,-1.5639,0.141256,0.417681,0.803552,
2,1,0,1,0,23068.5,0.834791,0.834563,34.2994,34,0.459885,10,0.0286251,-1.46471,0.177635,0.332143,0.819472,
2,1,0,1,0,23072.2,0.846727,0.846467,38.0459,34,0.598526,10,0.0322046,-1.41969,0.124475,0.473989,0.829726,
2,1,0,1,0,23076,0.827749,0.82749,30.6545,34,0.727152,10,0.0253663,-1.51351,0.125923,0.46854,0.814002,
2,1,0,1,0,23079.8,0.808772,0.808543,22.9558,34,0.82828,10,0.0185607,-1.63911,0.113601,0.519363,0.798442,
2,1,0,1,0,23083.6,0.789795,0.789551,16.6271,34,0.902821,10,0.013128,-1.77918,0.112174,0.52597,0.782235,
2,1,0,1,0,23087.4,0.770818,0.770552,11.6356,34,0.956022,10,0.00896586,-1.93421,0.103632,0.569322,0.765432,
2,1,0,1,0,23091.2,0.751841,0.751572,7.82766,34,0.992556,10,0.00588305,-2.10637,0.0967324,0.60993,0.748128,
2,1,0,1,0,23095,0.732865,0.732609,5.00602,34,1.01658,10,0.00366746,-2.30051,0.085765,0.687926,0.730406,
2,1,0,1,0,23098.8,0.713887,0.713633,2.98134,34,1.03146,10,0.00212758,-2.52559,0.0747845,0.788933,0.712321,
2,1,0,0,0,23102.6,0.69491,0.694678,1.6094,34,1.03993,10,0.00111802,-2.79333,0.0643668,0.916621,0.69397,
2,1,0,1,0,23106.4,0.675933,0.675689,0.766767,34,1.04425,10,0.000518096,-3.11534,0.0521499,1.13135,0.675352,
2,1,0,0,0,23110.2,0.656956,0.656676,0.305848,34,1.04614,10,0.000200843,-3.51449,0.0414285,1.42414,0.656542,
2,1,0,1,0,23114,0.637979,0.637687,0.0836801,34,1.04677,10,5.33617e-05,-4.07738,0.024032,2.45506,0.637651,
2,0,0,0,0,23117.7,0.619002,0.618729,-0.0150167,34,1.04683,10,-9.29131e-06,-4.82342,-0.0103411,-5.70541,0.618736,
2,0,0,1,0,23121.5,0.600025,0.599732,-0.0562027,34,1.04663,10,-3.37066e-05,-4.25024,-0.0899407,-0.655988,0.599757,
2,0,0,1,0,23125.3,0.581047,0.580767,-0.0763083,34,1.04633,10,-4.43173e-05,-4.11743,-0.229229,-0.257384,0.5808,
2,0,0,1,0,23129.1,0.56207,0.56178,-0.0871261,34,1.04597,10,-4.89457e-05,-4.05985,-0.789573,-0.0747239,0.561818,
2,0,0,1,0,23132.9,0.543093,0.542737,-0.0939067,34,1.04558,10,-5.09667e-05,-4.0273,-0.619077,-0.0953032,0.542779,
2,0,0,1,0,23136.7,0.524116,0.52383,-0.0990309,34,1.04516,10,-5.18754e-05,-4.00423,-2.37008,-0.0248937,0.523874,
2,0,0,1,0,23140.5,0.505139,0.504834,-0.103977,34,1.04473,10,-5.24912e-05,-3.98306,-4.25228,-0.0138749,0.50488,
2,0,0,1,0,23144.3,0.486162,0.485855,-0.110178,34,1.04427,10,-5.35305e-05,-3.95791,-0.743678,-0.0793354,0.485904,
2,0,0,1,0,23148.1,0.467185,0.466901,-0.116252,34,1.04379,10,-5.42782e-05,-3.9346,-1.81308,-0.0325414,0.466952,
2,0,0,0,0,23151.9,0.448208,0.44789,-0.123762,34,1.04328,10,-5.54318e-05,-3.90741,-0.698816,-0.0844286,0.447945,
2,0,0,1,0,23155.7,0.429231,0.428918,-0.130641,34,1.04275,10,-5.60341e-05,-3.88392,-1.47363,-0.0400371,0.428975,
2,0,0,0,0,23159.5,0.410254,0.409936,-0.140449,34,1.04218,10,-5.75752e-05,-3.85248,-0.655532,-0.0900032,0.409998,
2,0,0,1,0,23163.3,0.391277,0.390989,-0.150787,34,1.04157,10,-5.89563e-05,-3.82163,-0.509833,-0.115724,0.391055,
2,0,0,0,0,23167.1,0.3723,0.371993,-0.160465,34,1.04093,10,-5.96917e-05,-3.79462,-0.528348,-0.111669,0.372064,
2,0,0,1,0,23170.9,0.353322,0.353045,-0.171234,34,1.04024,10,-6.04534e-05,-3.76641,-0.602885,-0.0978628,0.353121,
2,0,0,1,0,23174.7,0.334345,0.334018,-0.18152,34,1.03952,10,-6.06311e-05,-3.74107,-0.611117,-0.0965445,0.334098,
2,0,0,1,0,23178.5,0.315368,0.31505,-0.194245,34,1.03874,10,-6.11969e-05,-3.71165,-0.639735,-0.0922256,0.315135,
2,0,0,1,0,23182.3,0.296391,0.296135,-0.205854,34,1.03792,10,-6.09607e-05,-3.68644,-0.514145,-0.114754,0.296225,
2,0,0,1,0,23186.1,0.277414,0.277149,-0.21781,34,1.03706,10,-6.03659e-05,-3.66192,-1.31316,-0.0449298,0.277245,
2,0,0,1,0,23189.9,0.258437,0.258165,-0.231606,34,1.03614,10,-5.97924e-05,-3.63525,-0.961815,-0.0613423,0.258267,
2,0,0,1,0,23193.7,0.239461,0.239166,-0.243439,34,1.03518,10,-5.82224e-05,-3.61361,-0.616109,-0.0957623,0.239273,
2,0,0,1,0,23197.5,0.220483,0.220169,-0.255725,34,1.03417,10,-5.63029e-05,-3.59223,-1.06053,-0.0556328,0.220282,
2,0,0,0,0,23201.2,0.201506,0.20123,-0.270384,34,1.03311,10,-5.44094e-05,-3.56802,-0.395026,-0.149357,0.201349,
2,0,0,1,0,23205,0.182529,0.182181,-0.290304,34,1.03198,10,-5.28879e-05,-3.53715,-0.362104,-0.162937,0.182309,
2,0,0,0,0,23208.8,0.163552,0.163242,-0.331191,34,1.03075,10,-5.40644e-05,-3.47992,-0.212303,-0.277905,0.163388,
2,0,0,1,0,23212.6,0.144575,0.144241,-0.455135,34,1.02924,10,-6.56491e-05,-3.34186,-0.0884163,-0.667298,0.144441,
2,0,0,0,0,23216.4,0.125598,0.125255,-0.695709,34,1.02696,10,-8.71413e-05,-3.15757,-0.217871,-0.270802,0.125562,
2,0,0,1,0,23220.2,0.10662,0.106307,-0.718889,34,1.02415,10,-7.64226e-05,-3.14334,0.841236,0.0701349,0.106623,
2,0,0,1,0,23224,0.0876433,0.0873372,-0.667261,34,1.02144,10,-5.82767e-05,-3.1757,0.509008,0.115912,0.0876308,
2,0,0,1,0,23227.8,0.0686664,0.0683698,-0.621876,34,1.01894,10,-4.25175e-05,-3.2063,0.736446,0.0801145,0.0686434,
2,0,0,1,0,23231.6,0.0496895,0.0493983,-0.578928,34,1.01659,10,-2.8598e-05,-3.23738,0.550548,0.107166,0.049653,
2,0,0,1,0,23235.4,0.0307126,0.0304321,-0.527425,34,1.01441,10,-1.60506e-05,-3.27784,0.465353,0.126786,0.0306641,
2,0,0,1,0,23239.2,0.0117356,0.0114232,-0.494745,34,1.01241,10,-5.65155e-06,-3.30562,1.06253,0.0555279,0.0116408,
2,0,0,1,0,23241.5,0.000274105,-6.64518e-05,-0.494529,34,1.01123,10,3.28623e-08,-3.30581, , ,0.000151141,

File: 20221101_1-115_003_TrumpetPlot_ParaChange_from10_every3_16_CV_C01_34.csv
mode,ox/red,error,control changes,counter inc.,time/s,control/V,Ewe/V,<I>/mA,cycle number,(Q-Qo)/C,I Range,P/W,log(|I|),Tafel slope mV/dec,alpha_eff,E-IR/V,
2,0,0,0,0,23271.6,2.44065e-05,-0.000325324,-0.0930337,35,0.0000000E+000,10,3.02661e-08,-4.03136, , ,-0.000284389,
2,1,0,1,0,23275.3,0.0187763,0.018438,0.224384,35,0.000747012,10,4.13719e-06,-3.64901,0.150094,0.393086,0.0183393,
2,1,0,1,0,23279.1,0.0377538,0.0374039,0.292114,35,0.00179819,10,1.09262e-05,-3.53445,0.176111,0.335016,0.0372754,
2,1,0,0,0,23282.9,0.0567309,0.0564234,0.355719,35,0.00310314,10,2.00709e-05,-3.44889,0.297485,0.198329,0.0562669,
2,1,0,1,0,23286.7,0.075708,0.0753994,0.404267,35,0.0046229,10,3.04814e-05,-3.39333,0.503394,0.117204,0.0752215,
2,1,0,0,0,23290.5,0.0946851,0.0943743,0.462951,35,0.00632195,10,4.36907e-05,-3.33447,0.223418,0.264079,0.0941706,
2,1,0,1,0,23294.3,0.113662,0.113341,0.566227,35,0.00834376,10,6.41765e-05,-3.24701,0.331156,0.178164,0.113092,
2,1,0,0,0,23298.1,0.132639,0.13236,0.62092,35,0.0106806,10,8.21851e-05,-3.20696,-1.23393,-0.0478148,0.132087,
2,1,0,1,0,23301.9,0.151617,0.151337,0.413558,35,0.0128019,10,6.25868e-05,-3.38346,-0.0722105,-0.817055,0.151155,
2,1,0,1,0,23305.7,0.170594,0.170238,0.298278,35,0.0141542,10,5.07783e-05,-3.52538,-0.240194,-0.245634,0.170107,
2,1,0,1,0,23309.5,0.189571,0.189212,0.271434,35,0.0152872,10,5.13586e-05,-3.56634,-0.736454,-0.0801137,0.189092,
2,1,0,1,0,23313.3,0.208547,0.208254,0.259339,35,0.0163519,10,5.40084e-05,-3.58613,-0.951665,-0.0619966,0.20814,
2,1,0,1,0,23317.1,0.227524,0.227236,0.250884,35,0.0173794,10,5.70099e-05,-3.60053,-1.0558,-0.055882,0.227125,
2,1,0,1,0,23320.8,0.246501,0.246215,0.245302,35,0.0183834,10,6.03969e-05,-3.6103,-1.03796,-0.0568424,0.246107,
2,1,0,0,0,23324.6,0.265479,0.265134,0.24106,35,0.0193696,10,6.3913e-05,-3.61788,-2.19429,-0.0268879,0.265028,
2,1,0,1,0,23328.4,0.284456,0.284157,0.237481,35,0.0203388,10,6.74818e-05,-3.62437,-1.31012,-0.045034,0.284053,
2,1,0,0,0,23332.2,0.303433,0.303135,0.232302,35,0.0212909,10,7.04191e-05,-3.63395,-2.77079,-0.0212936,0.303033,
2,1,0,1,0,23336,0.32241,0.322092,0.229732,35,0.0222289,10,7.39949e-05,-3.63878,-2.92732,-0.0201549,0.321991,
2,1,0,0,0,23339.8,0.341387,0.341091,0.226747,35,0.0231547,10,7.73414e-05,-3.64446,-3.72855,-0.0158238,0.340991,
2,1,0,1,0,23343.6,0.360364,0.360063,0.225851,35,0.0240692,10,8.13206e-05,-3.64618,-8.5583,-0.00689389,0.359964,
2,1,0,1,0,23347.4,0.379342,0.379059,0.223596,35,0.0249741,10,8.47561e-05,-3.65054,11.9739,0.00492738,0.378961,
2,1,0,1,0,23351.2,0.398319,0.398001,0.221679,35,0.0258706,10,8.82283e-05,-3.65428,-2.95563,-0.0199619,0.397903,
2,1,0,1,0,23355,0.417295,0.417013,0.220302,35,0.0267628,10,9.18686e-05,-3.65698,9.66342,0.0061055,0.416916,
2,1,0,1,0,23358.8,0.436272,0.435956,0.220409,35,0.0276519,10,9.60884e-05,-3.65677,8.78051,0.00671943,0.435859,
2,1,0,1,0,23362.6,0.455249,0.454931,0.220851,35,0.0285397,10,0.000100472,-3.6559,1.10807,0.0532457,0.454834,
2,1,0,1,0,23366.4,0.474226,0.473915,0.223542,35,0.0294316,10,0.00010594,-3.65064,2.41336,0.0244473,0.473816,
2,1,0,1,0,23370.2,0.493203,0.492882,0.226973,35,0.0303312,10,0.000111871,-3.64403,1.60054,0.0368625,0.492782,
2,1,0,0,0,23374,0.512181,0.511861,0.229663,35,0.031243,10,0.000117555,-3.63891,1.19739,0.0492739,0.511759,
2,1,0,1,0,23377.8,0.531158,0.530855,0.236973,35,0.0321744,10,0.000125798,-3.6253,1.21741,0.0484635,0.53075,
2,1,0,0,0,23381.6,0.550135,0.549851,0.245453,35,0.0331364,10,0.000134963,-3.61003,0.893978,0.0659972,0.549743,
2,1,0,1,0,23385.4,0.569112,0.568822,0.2619,35,0.0341444,10,0.000148975,-3.58186,0.682865,0.0864006,0.568707,
2,1,0,0,0,23389.2,0.588089,0.587755,0.285962,35,0.0352232,10,0.000168075,-3.54369,0.35419,0.166577,0.587629,
2,1,0,1,0,23393,0.607066,0.606786,0.32649,35,0.0364238,10,0.000198109,-3.48613,0.240114,0.245716,0.606642,
2,1,0,1,0,23396.8,0.626044,0.625775,0.408873,35,0.0378501,10,0.000255862,-3.38841,0.155248,0.380037,0.625595,
2,1,0,1,0,23400.6,0.64502,0.644724,0.579954,35,0.0397356,10,0.00037391,-3.23661,0.102377,0.5763,0.644468,
2,1,0,1,0,23404.3,0.663997,0.66372,0.946903,35,0.042597,10,0.000628479,-3.02369,0.0791886,0.745057,0.663304,
2,1,0,1,0,23408.1,0.682974,0.682699,1.67969,35,0.0474836,10,0.00114672,-2.77477,0.0726433,0.812188,0.68196,
2,1,0,1,0,23411.9,0.701951,0.701684,2.96194,35,0.0561472,10,0.00207835,-2.52842,0.0793241,0.743784,0.700381,
2,1,0,1,0,23415.7,0.720928,0.720626,4.88464,35,0.0708785,10,0.00352,-2.31117,0.0897353,0.657489,0.718477,
2,1,0,1,0,23419.5,0.739905,0.739607,7.45209,35,0.0941373,10,0.00551162,-2.12772,0.102869,0.573544,0.736328,
2,1,0,0,0,23423.3,0.758883,0.758625,10.6895,35,0.128386,10,0.00810929,-1.97104,0.119509,0.493688,0.753921,
2,1,0,1,0,23427.1,0.77786,0.777621,14.8469,35,0.176519,10,0.0115452,-1.82836,0.11902,0.495713,0.771088,
2,1,0,0,0,23430.9,0.796837,0.796583,20.4917,35,0.243147,10,0.0163233,-1.68842,0.124313,0.474609,0.787566,
2,1,0,1,0,23434.7,0.815814,0.81555,27.5062,35,0.333905,10,0.0224327,-1.56057,0.129081,0.457078,0.803448,
2,1,0,0,0,23438.5,0.834791,0.834552,35.3496,35,0.453137,10,0.029501,-1.45162,0.160065,0.368599,0.818998,
2,1,0,0,0,23442.2,0.846727,0.84652,39.4957,35,0.596996,10,0.0334338,-1.40345,0.121277,0.48649,0.829142,
2,1,0,1,0,23446,0.827749,0.827481,30.6456,35,0.729627,10,0.0253586,-1.51363,0.132161,0.446427,0.813996,
2,1,0,1,0,23449.8,0.808772,0.808487,22.9275,35,0.830931,10,0.0185366,-1.63964,0.114139,0.516914,0.798399,
2,1,0,1,0,23453.6,0.789795,0.789475,16.4734,35,0.904988,10,0.0130054,-1.78322,0.113108,0.521623,0.782227,
2,1,0,1,0,23457.4,0.770818,0.770534,11.4892,35,0.957602,10,0.00885285,-1.93971,0.101062,0.583798,0.765479,
2,1,0,1,0,23461.2,0.751841,0.751588,7.71177,35,0.993634,10,0.00579607,-2.11285,0.0945854,0.623775,0.748195,
2,1,0,1,0,23465,0.732865,0.732608,4.90736,35,1.01725,10,0.00359517,-2.30915,0.0836319,0.705473,0.730449,
2,1,0,0,0,23468.8,0.713887,0.713586,2.91474,35,1.0318,10,0.00207992,-2.5354,0.074433,0.792659,0.712303,
2,1,0,1,0,23472.6,0.69491,0.69466,1.56755,35,1.04008,10,0.00108891,-2.80478,0.0621012,0.950062,0.69397,
2,1,0,0,0,23476.4,0.675933,0.675654,0.736018,35,1.04427,10,0.000497293,-3.13311,0.0509168,1.15875,0.67533,
2,1,0,1,0,23480.2,0.656956,0.656708,0.280816,35,1.04605,10,0.000184414,-3.55158,0.0384167,1.53579,0.656584,
2,1,0,0,0,23484,0.637979,0.637696,0.0617591,35,1.0466,10,3.93835e-05,-4.2093,0.0198108,2.97817,0.637669,
2,0,0,1,0,23487.7,0.619002,0.618732,-0.0337826,35,1.04658,10,-2.09024e-05,-4.47131,-0.023862,-2.47255,0.618746,
2,0,0,0,0,23491.5,0.600025,0.599752,-0.0761428,35,1.04631,10,-4.56668e-05,-4.11837,-0.118067,-0.499716,0.599786,
2,0,0,1,0,23495.3,0.581047,0.580743,-0.095842,35,1.04593,10,-5.56596e-05,-4.01844,-0.481865,-0.122441,0.580785,
2,0,0,1,0,23499.1,0.56207,0.561739,-0.106243,35,1.04551,10,-5.96806e-05,-3.9737,-0.456149,-0.129344,0.561786,
2,0,0,1,0,23502.9,0.543093,0.54278,-0.111624,35,1.04505,10,-6.05871e-05,-3.95224,-0.77238,-0.0763873,0.542829,
2,0,0,1,0,23506.7,0.524116,0.523826,-0.116615,35,1.04457,10,-6.1086e-05,-3.93325,-0.78891,-0.0747868,0.523878,
2,0,0,1,0,23510.5,0.505139,0.504872,-0.121236,35,1.04408,10,-6.12086e-05,-3.91637,-0.904049,-0.0652619,0.504925,
2,0,0,1,0,23514.3,0.486162,0.485856,-0.126075,35,1.04356,10,-6.12545e-05,-3.89937,-1.59407,-0.0370123,0.485911,
2,0,0,1,0,23518.1,0.467185,0.46689,-0.133138,35,1.04302,10,-6.2161e-05,-3.8757,-2.81317,-0.0209728,0.466949,
2,0,0,1,0,23521.9,0.448208,0.447895,-0.13937,35,1.04245,10,-6.2423e-05,-3.85583,-0.599687,-0.0983846,0.447956,
2,0,0,0,0,23525.7,0.429231,0.428953,-0.146578,35,1.04186,10,-6.28751e-05,-3.83393,-1.10251,-0.0535145,0.429017,
2,0,0,1,0,23529.5,0.410254,0.409903,-0.15582,35,1.04124,10,-6.38711e-05,-3.80738,-1.38339,-0.0426489,0.409972,
2,0,0,0,0,23533.3,0.391277,0.39095,-0.165425,35,1.04058,10,-6.46729e-05,-3.7814,-0.637382,-0.0925662,0.391023,
2,0,0,1,0,23537.1,0.3723,0.371975,-0.174723,35,1.03988,10,-6.49927e-05,-3.75765,-0.592612,-0.0995593,0.372052,
2,0,0,1,0,23540.9,0.353322,0.353017,-0.184312,35,1.03914,10,-6.50652e-05,-3.73445,-0.532435,-0.110812,0.353098,
2,0,0,1,0,23544.7,0.334345,0.334045,-0.197021,35,1.03836,10,-6.58137e-05,-3.70549,-0.65943,-0.0894712,0.334132,
2,0,0,1,0,23548.5,0.315368,0.31504,-0.207867,35,1.03754,10,-6.54866e-05,-3.68221,-0.593668,-0.0993821,0.315132,
2,0,0,1,0,23552.3,0.296391,0.296103,-0.219952,35,1.03667,10,-6.51283e-05,-3.65767,-0.849176,-0.0694791,0.2962,
2,0,0,1,0,23556.1,0.277414,0.277102,-0.231403,35,1.03575,10,-6.4122e-05,-3.63563,-0.654726,-0.090114,0.277203,
2,0,0,1,0,23559.9,0.258437,0.258157,-0.244997,35,1.03479,10,-6.32475e-05,-3.61084,-0.862842,-0.0683787,0.258264,
2,0,0,1,0,23563.7,0.239461,0.239169,-0.257909,35,1.03378,10,-6.16839e-05,-3.58853,-0.92011,-0.0641228,0.239283,
2,0,0,0,0,23567.5,0.220483,0.220161,-0.26776,35,1.03272,10,-5.89502e-05,-3.57225,-0.770172,-0.0766063,0.220279,
2,0,0,1,0,23571.2,0.201506,0.201228,-0.283104,35,1.03162,10,-5.69686e-05,-3.54805,-0.41986,-0.140523,0.201353,
2,0,0,0,0,23575,0.182529,0.182193,-0.302708,35,1.03045,10,-5.51512e-05,-3.51898,-0.33729,-0.174924,0.182326,
2,0,0,1,0,23578.8,0.163552,0.163228,-0.342754,35,1.02917,10,-5.59469e-05,-3.46502,-0.248391,-0.237529,0.163378,
2,0,0,0,0,23582.6,0.144575,0.144271,-0.465916,35,1.02762,10,-6.7218e-05,-3.33169,-0.0918595,-0.642285,0.144476,
2,0,0,1,0,23586.4,0.125598,0.125281,-0.705223,35,1.0253,10,-8.83509e-05,-3.15167,-0.214696,-0.274807,0.125591,
2,0,0,1,0,23590.2,0.10662,0.106299,-0.730807,35,1.02245,10,-7.76841e-05,-3.1362,0.820354,0.0719201,0.106621,
2,0,0,1,0,23594,0.0876433,0.0873487,-0.678259,35,1.01971,10,-5.92451e-05,-3.1686,0.577409,0.102181,0.0876471,
2,0,0,1,0,23597.8,0.0686664,0.0683795,-0.629874,35,1.01717,10,-4.30705e-05,-3.20075,0.64757,0.0911098,0.0686566,
2,0,0,1,0,23601.6,0.0496895,0.0493738,-0.583229,35,1.01479,10,-2.87962e-05,-3.23416,0.618287,0.0954249,0.0496304,
2,0,0,1,0,23605.4,0.0307126,0.0303969,-0.534191,35,1.01259,10,-1.62377e-05,-3.2723,0.546341,0.107991,0.0306319,
2,0,0,1,0,23609.2,0.0117356,0.0114148,-0.500478,35,1.01057,10,-5.71283e-06,-3.30062,1.06463,0.0554185,0.011635,
2,0,0,0,0,23611.5,0.000274105,-7.36095e-05,-0.501729,35,1.00938,10,3.6932e-08,-3.29953, , ,0.000147151,