Folder: Figs_alphaMnO2_OER_Tafel_sleope/Figure_codes/Fig_3-5/workspace_calculate_alpha_eff (part 56)

File: 20221101_1-115_003_TrumpetPlot_ParaChange_from10_every3_16_CV_C01_103.csv
mode,ox/red,error,control changes,counter inc.,time/s,control/V,Ewe/V,<I>/mA,cycle number,(Q-Qo)/C,I Range,P/W,log(|I|),Tafel slope mV/dec,alpha_eff,E-IR/V,
2,0,0,0,0,68584.6,2.44065e-05,-0.000287149,-0.0943058,104,0.0000000E+000,10,2.70798e-08,-4.02546, , ,-0.000245654,
2,1,0,1,0,68588.3,0.0187763,0.0184284,0.209505,104,0.000676977,10,3.86085e-06,-3.67881,0.161544,0.365226,0.0183363,
2,1,0,1,0,68592.1,0.0377538,0.0374082,0.270426,104,0.00163941,10,1.01161e-05,-3.56795,0.189598,0.311184,0.0372892,
2,1,0,0,0,68595.9,0.0567309,0.0564054,0.328783,104,0.00283745,10,1.85451e-05,-3.48309,0.339386,0.173843,0.0562607,
2,1,0,1,0,68599.7,0.075708,0.0754269,0.373998,104,0.00423293,10,2.82095e-05,-3.42713,0.48637,0.121307,0.0752624,
2,1,0,0,0,68603.5,0.094685,0.0943753,0.424605,104,0.00578981,10,4.00722e-05,-3.37202,0.248227,0.237685,0.0941885,
2,1,0,1,0,68607.3,0.113662,0.113313,0.513848,104,0.00762313,10,5.82257e-05,-3.28917,0.317739,0.185687,0.113087,
2,1,0,0,0,68611.1,0.132639,0.132321,0.543841,104,0.00971063,10,7.19616e-05,-3.26453,-0.46114,-0.127944,0.132082,
2,1,0,1,0,68614.9,0.151617,0.151276,0.360842,104,0.0115329,10,5.45868e-05,-3.44268,-0.0855114,-0.689966,0.151117,
2,1,0,1,0,68618.7,0.170594,0.170277,0.280459,104,0.0127466,10,4.77558e-05,-3.55213,-0.30607,-0.192766,0.170154,
2,1,0,1,0,68622.5,0.189571,0.189239,0.264897,104,0.013821,10,5.0129e-05,-3.57692,-2.53627,-0.0232625,0.189123,
2,1,0,1,0,68626.3,0.208547,0.208222,0.258578,104,0.0148587,10,5.38416e-05,-3.58741,-1.03952,-0.0567567,0.208108,
2,1,0,1,0,68630.1,0.227524,0.227236,0.253801,104,0.0158746,10,5.76729e-05,-3.59551,-0.822522,-0.0717306,0.227125,
2,1,0,1,0,68633.8,0.246501,0.246174,0.249523,104,0.0168751,10,6.14261e-05,-3.60289,-0.964521,-0.0611703,0.246065,
2,1,0,0,0,68637.6,0.265479,0.265161,0.24521,104,0.017861,10,6.50202e-05,-3.61046,-0.917666,-0.0642935,0.265053,
2,1,0,1,0,68641.4,0.284456,0.284189,0.242142,104,0.0188301,10,6.88141e-05,-3.61593,-1.33096,-0.0443288,0.284083,
2,1,0,0,0,68645.2,0.303433,0.303118,0.238464,104,0.0197832,10,7.22828e-05,-3.62258,-1.11152,-0.0530806,0.303014,
2,1,0,1,0,68649,0.32241,0.322081,0.235773,104,0.0207218,10,7.59378e-05,-3.62751,-2.71828,-0.0217049,0.321977,
2,1,0,0,0,68652.8,0.341387,0.341064,0.233533,104,0.021648,10,7.96498e-05,-3.63165,44.3623,0.00132996,0.340961,
2,1,0,1,0,68656.6,0.360364,0.36009,0.230282,104,0.0225628,10,8.29224e-05,-3.63774,-5.07996,-0.0116143,0.359989,
2,1,0,1,0,68660.4,0.379342,0.379057,0.228929,104,0.0234689,10,8.67771e-05,-3.6403,3.41455,0.017279,0.378956,
2,1,0,1,0,68664.2,0.398319,0.398011,0.226989,104,0.0243681,10,9.03443e-05,-3.64399,-2.39797,-0.0246042,0.397911,
2,1,0,1,0,68668,0.417295,0.416996,0.225935,104,0.0252619,10,9.42139e-05,-3.64602,2.45661,0.0240168,0.416896,
2,1,0,1,0,68671.8,0.436272,0.435958,0.224987,104,0.0261512,10,9.80847e-05,-3.64784,2.10245,0.0280624,0.435859,
2,1,0,1,0,68675.6,0.455249,0.454915,0.225828,104,0.0270386,10,0.000102733,-3.64622,2.26781,0.0260162,0.454816,
2,1,0,1,0,68679.4,0.474226,0.47391,0.226662,104,0.0279277,10,0.000107418,-3.64462,1.50013,0.03933,0.473811,
2,1,0,1,0,68683.2,0.493203,0.492951,0.229454,104,0.028824,10,0.000113109,-3.6393,1.39674,0.0422413,0.49285,
2,1,0,0,0,68687,0.512181,0.511875,0.23319,104,0.0297301,10,0.000119364,-3.63229,1.78537,0.0330464,0.511773,
2,1,0,1,0,68690.8,0.531158,0.530894,0.238289,104,0.0306523,10,0.000126506,-3.6229,1.42374,0.0414401,0.530789,
2,1,0,0,0,68694.6,0.550135,0.549852,0.246304,104,0.0316002,10,0.000135431,-3.60853,0.837995,0.0704062,0.549743,
2,1,0,1,0,68698.4,0.569112,0.568851,0.258793,104,0.0325842,10,0.000147215,-3.58705,0.766147,0.0770088,0.568737,
2,1,0,0,0,68702.2,0.588089,0.58777,0.277104,104,0.033623,10,0.000162874,-3.55736,0.558068,0.105722,0.587648,
2,1,0,1,0,68706,0.607066,0.606792,0.306179,104,0.0347513,10,0.000185787,-3.51403,0.345024,0.171002,0.606658,
2,1,0,1,0,68709.8,0.626043,0.625769,0.360795,104,0.0360347,10,0.000225774,-3.44274,0.220403,0.267692,0.62561,
2,1,0,1,0,68713.6,0.64502,0.64476,0.470102,104,0.0376159,10,0.000303103,-3.32781,0.136624,0.431841,0.644553,
2,1,0,1,0,68717.3,0.663997,0.663706,0.687879,104,0.0397925,10,0.000456549,-3.16249,0.0978531,0.602945,0.663403,
2,1,0,1,0,68721.1,0.682974,0.682705,1.10534,104,0.0431457,10,0.00075462,-2.9565,0.086327,0.683448,0.682218,
2,1,0,1,0,68724.9,0.701951,0.701698,1.81158,104,0.0486061,10,0.00127118,-2.74194,0.0887239,0.664985,0.700901,
2,1,0,1,0,68728.7,0.720928,0.720616,2.85449,104,0.057376,10,0.00205699,-2.54447,0.0984075,0.599548,0.71936,
2,1,0,1,0,68732.5,0.739905,0.739641,4.25874,104,0.0707777,10,0.00314994,-2.37072,0.111422,0.529519,0.737767,
2,1,0,0,0,68736.3,0.758883,0.758618,6.08871,104,0.0902923,10,0.004619,-2.21547,0.121648,0.485005,0.755939,
2,1,0,1,0,68740.1,0.77786,0.777598,8.46185,104,0.11774,10,0.00657992,-2.07253,0.128549,0.458968,0.773875,
2,1,0,0,0,68743.9,0.796837,0.79657,11.5969,104,0.155555,10,0.00923776,-1.93566,0.128711,0.458391,0.791467,
2,1,0,1,0,68747.7,0.815814,0.815547,15.8028,104,0.207223,10,0.0128879,-1.80127,0.129277,0.456383,0.808594,
2,1,0,0,0,68751.5,0.834791,0.834567,21.1564,104,0.277079,10,0.0176564,-1.67456,0.142277,0.414683,0.825258,
2,1,0,0,0,68755.2,0.846726,0.846512,24.2869,104,0.365051,10,0.0205591,-1.61463,0.102069,0.578038,0.835826,
2,1,0,1,0,68759,0.827749,0.827496,17.6882,104,0.443973,10,0.0146369,-1.75232,0.118973,0.495913,0.819713,
2,1,0,1,0,68762.8,0.808772,0.808506,12.8086,104,0.501391,10,0.0103559,-1.8925,0.120123,0.491165,0.80287,
2,1,0,1,0,68766.6,0.789795,0.789496,9.14096,104,0.542682,10,0.00721675,-2.03901,0.117094,0.503867,0.785474,
2,1,0,1,0,68770.4,0.770818,0.770547,6.41239,104,0.571901,10,0.00494104,-2.19298,0.11372,0.51882,0.767725,
2,1,0,1,0,68774.2,0.751841,0.751566,4.37986,104,0.592174,10,0.00329175,-2.35854,0.106755,0.552666,0.749639,
2,1,0,1,0,68778,0.732865,0.73259,2.89613,104,0.605816,10,0.00212167,-2.53818,0.0953329,0.618884,0.731316,
2,1,0,0,0,68781.8,0.713887,0.713625,1.79063,104,0.614574,10,0.00127784,-2.74699,0.0805387,0.732567,0.712837,
2,1,0,1,0,68785.6,0.69491,0.694609,0.996096,104,0.619743,10,0.000691897,-3.0017,0.0660115,0.893784,0.694171,
2,1,0,0,0,68789.4,0.675933,0.675621,0.472499,104,0.622424,10,0.00031923,-3.3256,0.0504976,1.16837,0.675413,
2,1,0,1,0,68793.2,0.656956,0.656716,0.16849,104,0.623554,10,0.00011065,-3.77343,0.0327492,1.80157,0.656642,
2,1,0,0,0,68797,0.637979,0.637757,0.0143556,104,0.623836,10,9.15536e-06,-4.84298,0.00458796,12.8598,0.637751,
2,0,0,1,0,68800.7,0.619002,0.61869,-0.0552414,104,0.623713,10,-3.41773e-05,-4.25774,-0.0496804,-1.18759,0.618714,
2,0,0,0,0,68804.5,0.600025,0.599704,-0.0861852,104,0.623408,10,-5.16856e-05,-4.06457,-0.194924,-0.302682,0.599741,
2,0,0,1,0,68808.3,0.581047,0.58074,-0.102161,104,0.62302,10,-5.93291e-05,-3.99071,-0.382049,-0.15443,0.580785,
2,0,0,1,0,68812.1,0.56207,0.561739,-0.109494,104,0.62259,10,-6.1507e-05,-3.96061,-0.478046,-0.123419,0.561787,
2,0,0,1,0,68815.9,0.543093,0.542809,-0.114845,104,0.622136,10,-6.23392e-05,-3.93989,-1.10491,-0.0533979,0.54286,
2,0,0,1,0,68819.7,0.524116,0.523805,-0.120268,104,0.621663,10,-6.29972e-05,-3.91985,1.69473,0.0348137,0.523858,
2,0,0,1,0,68823.5,0.505139,0.504858,-0.123232,104,0.621172,10,-6.22149e-05,-3.90927,-0.831428,-0.0709623,0.504912,
2,0,0,1,0,68827.3,0.486162,0.485837,-0.129494,104,0.620662,10,-6.29131e-05,-3.88775,-1.24096,-0.0475439,0.485894,
2,0,0,1,0,68831.1,0.467185,0.466828,-0.135965,104,0.620129,10,-6.3472e-05,-3.86657,-1.22014,-0.0483549,0.466887,
2,0,0,1,0,68834.9,0.448208,0.447948,-0.143706,104,0.61957,10,-6.43727e-05,-3.84253,-1.05022,-0.056179,0.448011,
2,0,0,0,0,68838.7,0.429231,0.428879,-0.150536,104,0.618982,10,-6.45617e-05,-3.82236,-2.10884,-0.0279775,0.428946,
2,0,0,1,0,68842.5,0.410254,0.409912,-0.15842,104,0.618362,10,-6.49382e-05,-3.80019,-0.755415,-0.0781028,0.409982,
2,0,0,0,0,68846.3,0.391277,0.390983,-0.168346,104,0.617709,10,-6.58204e-05,-3.7738,-0.880033,-0.0670429,0.391057,
2,0,0,1,0,68850.1,0.3723,0.371956,-0.177938,104,0.617017,10,-6.61852e-05,-3.74973,-0.78426,-0.0752302,0.372034,
2,0,0,1,0,68853.9,0.353322,0.352974,-0.187452,104,0.616287,10,-6.61656e-05,-3.72711,-0.967102,-0.061007,0.353056,
2,0,0,1,0,68857.7,0.334345,0.334074,-0.196994,104,0.615515,10,-6.58107e-05,-3.70555,-0.589327,-0.100114,0.334161,
2,0,0,1,0,68861.5,0.315368,0.31504,-0.209535,104,0.6147,10,-6.60119e-05,-3.67874,-0.603576,-0.0977508,0.315132,
2,0,0,1,0,68865.3,0.296391,0.296058,-0.22288,104,0.61384,10,-6.59853e-05,-3.65193,-0.635407,-0.0928539,0.296156,
2,0,0,1,0,68869.1,0.277414,0.277092,-0.234042,104,0.612933,10,-6.48511e-05,-3.63071,-0.437329,-0.13491,0.277195,
2,0,0,1,0,68872.9,0.258437,0.25816,-0.24524,104,0.61198,10,-6.33111e-05,-3.61041,-0.822944,-0.0716938,0.258268,
2,0,0,1,0,68876.7,0.239461,0.239188,-0.258467,104,0.610981,10,-6.18223e-05,-3.58759,-1.37348,-0.0429567,0.239302,
2,0,0,0,0,68880.4,0.220483,0.220186,-0.268858,104,0.609937,10,-5.91989e-05,-3.57048,-1.00969,-0.0584336,0.220304,
2,0,0,1,0,68884.2,0.201506,0.201169,-0.281617,104,0.608847,10,-5.66526e-05,-3.55034,-0.57548,-0.102523,0.201293,
2,0,0,0,0,68888,0.182529,0.182232,-0.298161,104,0.6077,10,-5.43346e-05,-3.52555,-0.548754,-0.107516,0.182363,
2,0,0,1,0,68891.8,0.163552,0.163198,-0.326493,104,0.606471,10,-5.32829e-05,-3.48613,-0.323288,-0.1825,0.163341,
2,0,0,0,0,68895.6,0.144575,0.144266,-0.401299,104,0.605067,10,-5.78939e-05,-3.39653,-0.129068,-0.457125,0.144443,
2,0,0,1,0,68899.4,0.125598,0.125241,-0.584041,104,0.603161,10,-7.31456e-05,-3.23356,-0.1413,-0.417553,0.125498,
2,0,0,1,0,68903.2,0.10662,0.106272,-0.657189,104,0.600696,10,-6.98405e-05,-3.18231,-2.09022,-0.0282267,0.106561,
2,0,0,1,0,68907,0.0876433,0.0872875,-0.645163,104,0.59816,10,-5.63147e-05,-3.19033,0.960494,0.0614267,0.0875713,
2,0,0,1,0,68910.8,0.0686664,0.0683782,-0.611462,104,0.595721,10,-4.18107e-05,-3.21363,0.791453,0.0745464,0.0686473,
2,0,0,1,0,68914.6,0.0496895,0.049339,-0.571235,104,0.593422,10,-2.81842e-05,-3.24318,0.498073,0.118457,0.0495904,
2,0,0,1,0,68918.4,0.0307126,0.0303874,-0.525736,104,0.591289,10,-1.59758e-05,-3.27923,0.607095,0.0971842,0.0306188,
2,0,0,1,0,68922.2,0.0117356,0.0114254,-0.497095,104,0.589302,10,-5.67952e-06,-3.30356,1.78666,0.0330225,0.0116442,
2,0,0,0,0,68924.5,0.000274105,-7.36095e-05,-0.499796,104,0.588129,10,3.67897e-08,-3.30121, , ,0.000146301,

File: 20221101_1-115_003_TrumpetPlot_ParaChange_from10_every3_16_CV_C01_104.csv
mode,ox/red,error,control changes,counter inc.,time/s,control/V,Ewe/V,<I>/mA,cycle number,(Q-Qo)/C,I Range,P/W,log(|I|),Tafel slope mV/dec,alpha_eff,E-IR/V,
2,0,0,0,0,68954.6,2.44065e-05,-0.000306236,-0.10003,105,0.0000000E+000,10,3.06328e-08,-3.99987, , ,-0.000262223,
2,1,0,1,0,68958.3,0.0187763,0.0184306,0.199363,105,0.000639885,10,3.67438e-06,-3.70036,0.147939,0.398813,0.0183429,
2,1,0,1,0,68962.1,0.0377538,0.0374315,0.260307,105,0.00156235,10,9.74368e-06,-3.58451,0.128497,0.459155,0.037317,
2,1,0,0,0,68965.9,0.0567309,0.0563926,0.321019,105,0.00272143,10,1.81031e-05,-3.49347,0.284731,0.207213,0.0562514,
2,1,0,1,0,68969.7,0.075708,0.0753835,0.364712,105,0.00407881,10,2.74932e-05,-3.43805,0.393215,0.150045,0.075223,
2,1,0,0,0,68973.5,0.094685,0.0943828,0.415812,105,0.0055974,10,3.92455e-05,-3.3811,0.263451,0.223951,0.0941998,
2,1,0,1,0,68977.3,0.113662,0.113354,0.505081,105,0.0073903,10,5.72532e-05,-3.29664,0.315642,0.18692,0.113132,
2,1,0,0,0,68981.1,0.132639,0.132309,0.535467,105,0.0094392,10,7.08472e-05,-3.27127,-0.569963,-0.103515,0.132074,
2,1,0,1,0,68984.9,0.151617,0.15132,0.354088,105,0.0112308,10,5.35807e-05,-3.45089,-0.0846194,-0.697239,0.151165,
2,1,0,1,0,68988.7,0.170594,0.170292,0.272357,105,0.012415,10,4.63802e-05,-3.56486,-0.341631,-0.172701,0.170172,
2,1,0,1,0,68992.5,0.189571,0.189246,0.257084,105,0.0134544,10,4.8652e-05,-3.58993,-1.11657,-0.0528404,0.189133,
2,1,0,1,0,68996.3,0.208547,0.208272,0.249875,105,0.0144562,10,5.2042e-05,-3.60228,-1.17647,-0.0501499,0.208163,
2,1,0,1,0,69000.1,0.227524,0.227231,0.245732,105,0.015438,10,5.5838e-05,-3.60954,-1.51391,-0.0389718,0.227123,
2,1,0,1,0,69003.8,0.246501,0.246184,0.24244,105,0.0164044,10,5.96848e-05,-3.6154,-1.26916,-0.0464874,0.246077,
2,1,0,0,0,69007.6,0.265479,0.265163,0.238869,105,0.0173574,10,6.33393e-05,-3.62184,-3.28474,-0.0179619,0.265058,
2,1,0,1,0,69011.4,0.284456,0.284118,0.234745,105,0.0182951,10,6.66953e-05,-3.6294,-2.75746,-0.0213965,0.284015,
2,1,0,0,0,69015.2,0.303433,0.303186,0.230964,105,0.0192175,10,7.00252e-05,-3.63646,-17.2671,-0.00341691,0.303085,
2,1,0,1,0,69019,0.32241,0.322062,0.228324,105,0.0201252,10,7.35345e-05,-3.64145,-21.1507,-0.00278951,0.321961,
2,1,0,0,0,69022.8,0.341387,0.341085,0.225474,105,0.0210209,10,7.69058e-05,-3.6469,-40.694,-0.00144985,0.340986,
2,1,0,1,0,69026.6,0.360364,0.360076,0.224094,105,0.0219059,10,8.0691e-05,-3.64957,37.0703,0.00159157,0.359977,
2,1,0,1,0,69030.4,0.379342,0.379076,0.221978,105,0.0227834,10,8.41465e-05,-3.65369,-4.75077,-0.012419,0.378978,
2,1,0,1,0,69034.2,0.398319,0.398034,0.220042,105,0.0236544,10,8.7584e-05,-3.65749,16.0128,0.00368455,0.397937,
2,1,0,1,0,69038,0.417295,0.417003,0.219305,105,0.0245199,10,9.14507e-05,-3.65895,-6.44846,-0.00914948,0.416907,
2,1,0,1,0,69041.8,0.436272,0.436,0.219798,105,0.0253831,10,9.5832e-05,-3.65798,2.09178,0.0282057,0.435904,
2,1,0,1,0,69045.6,0.455249,0.454957,0.219699,105,0.026245,10,9.99535e-05,-3.65817,1.73538,0.0339984,0.45486,
2,1,0,1,0,69049.4,0.474226,0.473941,0.219953,105,0.0271078,10,0.000104245,-3.65767,2.62803,0.0224503,0.473844,
2,1,0,1,0,69053.2,0.493203,0.492927,0.223022,105,0.0279769,10,0.000109934,-3.65165,1.91716,0.0307746,0.492829,
2,1,0,0,0,69057,0.512181,0.511841,0.227124,105,0.0288569,10,0.000116252,-3.64374,1.10541,0.0533741,0.511741,
2,1,0,1,0,69060.8,0.531158,0.530905,0.232956,105,0.029755,10,0.000123678,-3.63273,0.822971,0.0716915,0.530803,
2,1,0,0,0,69064.6,0.550135,0.549838,0.241116,105,0.0306769,10,0.000132575,-3.61777,1.14156,0.0516836,0.549732,
2,1,0,1,0,69068.4,0.569112,0.568832,0.252324,105,0.0316348,10,0.00014353,-3.59804,0.610436,0.0966522,0.568721,
2,1,0,0,0,69072.2,0.588089,0.587807,0.270754,105,0.0326496,10,0.000159151,-3.56742,0.534067,0.110473,0.587688,
2,1,0,1,0,69076,0.607066,0.606768,0.300585,105,0.0337544,10,0.000182385,-3.52203,0.332305,0.177548,0.606636,
2,1,0,1,0,69079.8,0.626043,0.625715,0.354917,105,0.035013,10,0.000222077,-3.44987,0.20972,0.281327,0.625559,
2,1,0,1,0,69083.6,0.64502,0.644733,0.463185,105,0.036567,10,0.00029863,-3.33425,0.136831,0.431187,0.644529,
2,1,0,1,0,69087.3,0.663997,0.663731,0.679913,105,0.0387133,10,0.000451279,-3.16755,0.0996469,0.592091,0.663432,
2,1,0,1,0,69091.1,0.682974,0.682678,1.0928,105,0.0420262,10,0.000746032,-2.96146,0.0864243,0.682679,0.682197,
2,1,0,1,0,69094.9,0.701951,0.701692,1.78517,105,0.0474143,10,0.00125264,-2.74832,0.0887635,0.664687,0.700907,
2,1,0,1,0,69098.7,0.720928,0.720642,2.80051,105,0.0560367,10,0.00201816,-2.55276,0.100065,0.589619,0.719409,
2,1,0,1,0,69102.5,0.739905,0.739578,4.15564,105,0.0691467,10,0.00307342,-2.38136,0.111916,0.527181,0.73775,
2,1,0,0,0,69106.3,0.758883,0.758608,5.90223,105,0.0881198,10,0.00447748,-2.22898,0.126266,0.467267,0.756011,
2,1,0,1,0,69110.1,0.77786,0.777608,8.1443,105,0.114622,10,0.00633307,-2.08915,0.129479,0.455674,0.774024,
2,1,0,0,0,69113.9,0.796837,0.796558,11.0775,105,0.150874,10,0.00882384,-1.95556,0.132861,0.444074,0.791684,
2,1,0,1,0,69117.7,0.815814,0.815525,14.9573,105,0.199971,10,0.012198,-1.82515,0.130346,0.452643,0.808944,
2,1,0,0,0,69121.5,0.834791,0.834541,19.8586,105,0.26578,10,0.0165728,-1.70205,0.150493,0.392044,0.825803,
2,1,0,0,0,69125.2,0.846726,0.84651,22.786,105,0.348147,10,0.0192886,-1.64233,0.106003,0.556588,0.836484,
2,1,0,1,0,69129,0.827749,0.827513,16.7516,105,0.422515,10,0.0138622,-1.77594,0.123327,0.478401,0.820143,
2,1,0,1,0,69132.8,0.808772,0.808529,12.2207,105,0.477069,10,0.00988079,-1.9129,0.121139,0.487043,0.803152,
2,1,0,1,0,69136.6,0.789795,0.789535,8.78726,105,0.516588,10,0.00693785,-2.05615,0.120029,0.49155,0.785669,
2,1,0,1,0,69140.4,0.770818,0.770549,6.21536,105,0.544802,10,0.00478924,-2.20653,0.116204,0.507729,0.767814,
2,1,0,1,0,69144.2,0.751841,0.751568,4.28757,105,0.564546,10,0.0032224,-2.36779,0.106432,0.554345,0.749681,
2,1,0,1,0,69148,0.732865,0.732552,2.83707,105,0.577907,10,0.0020783,-2.54713,0.095786,0.615956,0.731303,
2,1,0,0,0,69151.8,0.713887,0.713608,1.75926,105,0.586505,10,0.00125542,-2.75467,0.0803708,0.734097,0.712834,
2,1,0,1,0,69155.6,0.69491,0.694604,0.980595,105,0.591593,10,0.000681125,-3.00851,0.0661999,0.89124,0.694172,
2,1,0,0,0,69159.4,0.675933,0.675701,0.463465,105,0.594231,10,0.000313163,-3.33398,0.0493355,1.19589,0.675497,
2,1,0,1,0,69163.2,0.656956,0.65667,0.162081,105,0.595334,10,0.000106434,-3.79027,0.0322869,1.82737,0.656598,
2,1,0,0,0,69167,0.637979,0.637668,0.00829411,105,0.595594,10,5.28889e-06,-5.08123,0.0047715,12.3651,0.637665,
2,0,0,1,0,69170.7,0.619002,0.618705,-0.0591194,105,0.595454,10,-3.65775e-05,-4.22827,-0.0566356,-1.04175,0.618731,
2,0,0,0,0,69174.5,0.600025,0.599782,-0.0916324,105,0.595134,10,-5.49595e-05,-4.03795,-0.220661,-0.267379,0.599822,
2,0,0,1,0,69178.3,0.581047,0.58075,-0.106051,105,0.594731,10,-6.15888e-05,-3.97449,-0.478452,-0.123314,0.580796,
2,0,0,1,0,69182.1,0.56207,0.561759,-0.115084,105,0.594285,10,-6.46496e-05,-3.93898,-0.806581,-0.0731482,0.561809,
2,0,0,1,0,69185.9,0.543093,0.542745,-0.119598,105,0.593814,10,-6.49112e-05,-3.92228,-1.13923,-0.0517895,0.542797,
2,0,0,1,0,69189.7,0.524116,0.523793,-0.12476,105,0.593325,10,-6.53484e-05,-3.90393,6.43996,0.00916154,0.523848,
2,0,0,1,0,69193.5,0.505139,0.504835,-0.127883,105,0.592818,10,-6.45595e-05,-3.89319,-0.471461,-0.125143,0.504891,
2,0,0,1,0,69197.3,0.486162,0.485867,-0.133688,105,0.592291,10,-6.49544e-05,-3.87391,-1.08114,-0.0545719,0.485926,
2,0,0,1,0,69201.1,0.467185,0.466865,-0.139053,105,0.591744,10,-6.49187e-05,-3.85682,-1.7595,-0.0335322,0.466926,
2,0,0,1,0,69204.9,0.448208,0.447895,-0.146845,105,0.591172,10,-6.57709e-05,-3.83314,-2.85955,-0.0206326,0.447959,
2,0,0,0,0,69208.7,0.429231,0.428929,-0.154406,105,0.59057,10,-6.62294e-05,-3.81133,-2.31271,-0.0255112,0.428997,
2,0,0,1,0,69212.5,0.410254,0.409932,-0.163405,105,0.589936,10,-6.6985e-05,-3.78673,-1.03765,-0.0568595,0.410004,
2,0,0,0,0,69216.3,0.391277,0.390931,-0.173082,105,0.589266,10,-6.76632e-05,-3.76175,-0.722938,-0.0816114,0.391007,
2,0,0,1,0,69220.1,0.3723,0.371954,-0.182996,105,0.588558,10,-6.80661e-05,-3.73756,-0.678571,-0.0869474,0.372034,
2,0,0,1,0,69223.9,0.353322,0.353009,-0.192396,105,0.587811,10,-6.79174e-05,-3.7158,-0.900718,-0.0655033,0.353094,
2,0,0,1,0,69227.7,0.334345,0.334013,-0.203866,105,0.587023,10,-6.80939e-05,-3.69066,-0.90664,-0.0650754,0.334103,
2,0,0,1,0,69231.5,0.315368,0.315096,-0.215178,105,0.586191,10,-6.78018e-05,-3.6672,-1.27196,-0.046385,0.31519,
2,0,0,1,0,69235.3,0.296391,0.296079,-0.227668,105,0.585316,10,-6.74078e-05,-3.6427,-0.652346,-0.0904428,0.29618,
2,0,0,1,0,69239.1,0.277414,0.277085,-0.237955,105,0.584394,10,-6.59337e-05,-3.6235,-0.799464,-0.0737995,0.277189,
2,0,0,1,0,69242.9,0.258437,0.258171,-0.249869,105,0.583428,10,-6.4509e-05,-3.60229,-1.21816,-0.0484336,0.258281,
2,0,0,1,0,69246.7,0.239461,0.239123,-0.260731,105,0.582417,10,-6.23469e-05,-3.58381,-0.851863,-0.0692599,0.239238,
2,0,0,0,0,69250.5,0.220483,0.220163,-0.27258,105,0.581363,10,-6.0012e-05,-3.56451,-0.832781,-0.070847,0.220283,
2,0,0,1,0,69254.2,0.201506,0.201179,-0.285089,105,0.580263,10,-5.7354e-05,-3.54502,-0.649269,-0.0908714,0.201305,
2,0,0,0,0,69258,0.182529,0.182196,-0.302169,105,0.579107,10,-5.5054e-05,-3.51975,-0.485848,-0.121437,0.182329,
2,0,0,1,0,69261.8,0.163552,0.163217,-0.330788,105,0.57787,10,-5.39901e-05,-3.48045,-0.371903,-0.158643,0.163362,
2,0,0,0,0,69265.6,0.144575,0.144258,-0.405091,105,0.576458,10,-5.84376e-05,-3.39245,-0.131975,-0.447055,0.144436,
2,0,0,1,0,69269.4,0.125598,0.12529,-0.58751,105,0.574543,10,-7.36094e-05,-3.23098,-0.147031,-0.401275,0.125549,
2,0,0,1,0,69273.2,0.10662,0.106266,-0.660059,105,0.572072,10,-7.01421e-05,-3.18042,-2.80941,-0.0210008,0.106557,
2,0,0,1,0,69277,0.0876433,0.0873498,-0.648393,105,0.56953,10,-5.6637e-05,-3.18816,0.853438,0.0691321,0.0876351,
2,0,0,1,0,69280.8,0.0686664,0.0683582,-0.612549,105,0.567088,10,-4.18727e-05,-3.21286,0.773905,0.0762368,0.0686277,
2,0,0,1,0,69284.6,0.0496895,0.0493822,-0.570556,105,0.564788,10,-2.81753e-05,-3.2437,0.528893,0.111554,0.0496332,
2,0,0,1,0,69288.4,0.0307126,0.0304065,-0.527342,105,0.562655,10,-1.60346e-05,-3.27791,0.529914,0.111339,0.0306386,
2,0,0,1,0,69292.2,0.0117356,0.0114477,-0.498794,105,0.560668,10,-5.71004e-06,-3.30208,1.5504,0.0380547,0.0116672,
2,0,0,0,0,69294.5,0.000274105,-0.000128486,-0.500639,105,0.559496,10,6.43249e-08,-3.30048, , ,9.17957e-05,