Folder: Figs_alphaMnO2_OER_Tafel_sleope/Figure_codes/Fig_3-5/workspace_calculate_alpha_eff (part 13)

File: 20221101_1-115_003_TrumpetPlot_ParaChange_from10_every3_16_CV_C01_17.csv
mode,ox/red,error,control changes,counter inc.,time/s,control/V,Ewe/V,<I>/mA,cycle number,(Q-Qo)/C,I Range,P/W,log(|I|),Tafel slope mV/dec,alpha_eff,E-IR/V,
2,0,0,0,0,11820.8,2.44065e-05,-0.000306236,-0.118475,18,0.0000000E+000,10,3.62813e-08,-3.92637, , ,-0.000254107,
2,1,0,1,0,11824.5,0.0187763,0.0184688,0.21844,18,0.000728061,10,4.03432e-06,-3.66067,0.153722,0.383811,0.0183727,
2,1,0,1,0,11828.3,0.0377538,0.0373849,0.286324,18,0.00175799,10,1.07042e-05,-3.54314,0.17973,0.328271,0.0372589,
2,1,0,0,0,11832.1,0.0567309,0.0563884,0.352735,18,0.00304821,10,1.98902e-05,-3.45255,0.265452,0.222262,0.0562332,
2,1,0,1,0,11835.9,0.075708,0.0753845,0.405157,18,0.00456524,10,3.05426e-05,-3.39238,0.419542,0.140629,0.0752063,
2,1,0,0,0,11839.7,0.0946851,0.0944029,0.468431,18,0.00627891,10,4.42212e-05,-3.32935,0.230036,0.256481,0.0941968,
2,1,0,1,0,11843.5,0.113662,0.113346,0.578049,18,0.00833702,10,6.55195e-05,-3.23804,0.322344,0.183034,0.113092,
2,1,0,0,0,11847.3,0.132639,0.132392,0.65278,18,0.0107504,10,8.64229e-05,-3.18523,-20.4579,-0.00288397,0.132105,
2,1,0,1,0,11851.1,0.151617,0.151284,0.441334,18,0.0129921,10,6.67669e-05,-3.35523,-0.0716558,-0.823381,0.15109,
2,1,0,1,0,11854.9,0.170594,0.170289,0.301784,18,0.0143999,10,5.13905e-05,-3.5203,-0.198057,-0.297894,0.170156,
2,1,0,1,0,11858.7,0.189571,0.189215,0.266991,18,0.0155325,10,5.05188e-05,-3.5735,-0.538764,-0.10951,0.189098,
2,1,0,1,0,11862.5,0.208547,0.208228,0.251826,18,0.0165798,10,5.24371e-05,-3.5989,-0.992166,-0.0594658,0.208117,
2,1,0,1,0,11866.3,0.227524,0.227238,0.242291,18,0.017582,10,5.50576e-05,-3.61566,-0.93602,-0.0630328,0.227131,
2,1,0,1,0,11870.1,0.246501,0.24621,0.237142,18,0.0185564,10,5.83869e-05,-3.62499,-0.863779,-0.0683045,0.246106,
2,1,0,0,0,11873.9,0.265479,0.265142,0.232993,18,0.0195107,10,6.17763e-05,-3.63266,-1.32244,-0.0446145,0.26504,
2,1,0,1,0,11877.7,0.284456,0.284139,0.22908,18,0.0204491,10,6.50905e-05,-3.64001,-0.91306,-0.0646179,0.284039,
2,1,0,0,0,11881.5,0.303433,0.30311,0.22466,18,0.021371,10,6.80966e-05,-3.64847,-1.22303,-0.0482407,0.303011,
2,1,0,1,0,11885.2,0.32241,0.322057,0.221031,18,0.0222764,10,7.11845e-05,-3.65555,-5.05857,-0.0116634,0.32196,
2,1,0,0,0,11889,0.341387,0.341115,0.218423,18,0.0231695,10,7.45074e-05,-3.6607,-3.68581,-0.0160073,0.341019,
2,1,0,1,0,11892.8,0.360364,0.360071,0.215966,18,0.0240512,10,7.7763e-05,-3.66561,17.2161,0.00342702,0.359976,
2,1,0,1,0,11896.6,0.379342,0.379037,0.214006,18,0.0249244,10,8.11162e-05,-3.66957,-4.33452,-0.0136117,0.378942,
2,1,0,1,0,11900.4,0.398319,0.397994,0.212105,18,0.0257895,10,8.44164e-05,-3.67345,-32.4134,-0.00182023,0.397901,
2,1,0,1,0,11904.2,0.417295,0.416996,0.211577,18,0.0266497,10,8.82268e-05,-3.67453,-3.1861,-0.0185179,0.416902,
2,1,0,1,0,11908,0.436272,0.435981,0.211623,18,0.0275084,10,9.22637e-05,-3.67444,-17.0918,-0.00345195,0.435888,
2,1,0,1,0,11911.8,0.455249,0.454942,0.212922,18,0.0283677,10,9.6867e-05,-3.67178,1.48817,0.039646,0.454848,
2,1,0,1,0,11915.6,0.474226,0.47391,0.214146,18,0.0292318,10,0.000101486,-3.66929,1.28326,0.0459765,0.473816,
2,1,0,1,0,11919.4,0.493203,0.492937,0.218201,18,0.0301059,10,0.000107559,-3.66114,0.854962,0.0690089,0.492841,
2,1,0,0,0,11923.2,0.512181,0.511869,0.223171,18,0.0309958,10,0.000114234,-3.65136,1.48511,0.0397277,0.511771,
2,1,0,1,0,11927,0.531158,0.530875,0.230801,18,0.0319092,10,0.000122526,-3.63676,1.02597,0.0575067,0.530773,
2,1,0,0,0,11930.8,0.550135,0.549827,0.241276,18,0.0328552,10,0.00013266,-3.61749,0.718124,0.0821585,0.549721,
2,1,0,1,0,11934.6,0.569112,0.56884,0.257813,18,0.0338517,10,0.000146654,-3.5887,0.64029,0.0921458,0.568727,
2,1,0,0,0,11938.4,0.588089,0.587762,0.28507,18,0.0349315,10,0.000167553,-3.54505,0.318252,0.185388,0.587637,
2,1,0,1,0,11942.2,0.607066,0.606825,0.337798,18,0.0361561,10,0.000204984,-3.47134,0.213254,0.276666,0.606677,
2,1,0,1,0,11946,0.626044,0.625763,0.437871,18,0.0376572,10,0.000274004,-3.35865,0.133621,0.441547,0.625571,
2,1,0,1,0,11949.8,0.64502,0.644731,0.657191,18,0.0397366,10,0.000423711,-3.18231,0.0905718,0.651417,0.644442,
2,1,0,1,0,11953.6,0.663997,0.663762,1.13194,18,0.0430762,10,0.000751339,-2.94618,0.0733419,0.804451,0.663264,
2,1,0,1,0,11957.4,0.682974,0.682668,2.08953,18,0.0490531,10,0.00142645,-2.67995,0.0694328,0.849743,0.681749,
2,1,0,1,0,11961.2,0.701951,0.701697,3.75823,18,0.0599573,10,0.00263714,-2.42502,0.0746549,0.790303,0.700043,
2,1,0,1,0,11965,0.720928,0.720643,6.21956,18,0.0787026,10,0.00448208,-2.20624,0.08931,0.66062,0.717906,
2,1,0,1,0,11968.7,0.739905,0.739635,9.41372,18,0.108211,10,0.00696272,-2.02624,0.106472,0.554137,0.735493,
2,1,0,0,0,11972.5,0.758883,0.758619,13.3546,18,0.151195,10,0.010131,-1.87437,0.117036,0.504119,0.752743,
2,1,0,1,0,11976.3,0.77786,0.777571,18.4516,18,0.211146,10,0.0143475,-1.73397,0.116709,0.505533,0.769452,
2,1,0,0,0,11980.1,0.796837,0.796579,24.9229,18,0.293038,10,0.019853,-1.6034,0.124675,0.47323,0.785613,
2,1,0,1,0,11983.9,0.815814,0.815543,32.6924,18,0.402912,10,0.026662,-1.48555,0.163568,0.360706,0.801158,
2,1,0,0,0,11987.7,0.834791,0.834556,40.0729,18,0.540636,10,0.0334431,-1.39715,0.185127,0.3187,0.816924,
2,1,0,0,0,11991.4,0.846727,0.846436,43.8894,18,0.701137,10,0.0371496,-1.35764,0.145364,0.405879,0.827124,
2,1,0,1,0,11995.2,0.827749,0.827475,34.9631,18,0.850521,10,0.0289311,-1.45639,0.139708,0.422311,0.812091,
2,1,0,1,0,11999,0.808772,0.808511,27.0148,18,0.967869,10,0.0218417,-1.5684,0.125235,0.471113,0.796625,
2,1,0,1,0,12002.8,0.789795,0.789497,20.0715,18,1.05672,10,0.0158464,-1.69742,0.114275,0.516298,0.780666,
2,1,0,1,0,12006.6,0.770818,0.770581,14.2237,18,1.12131,10,0.0109605,-1.84699,0.104175,0.566353,0.764323,
2,1,0,1,0,12010.4,0.751841,0.751599,9.60726,18,1.16606,10,0.0072208,-2.0174,0.0951618,0.619996,0.747372,
2,1,0,1,0,12014.2,0.732865,0.732573,6.1186,18,1.1955,10,0.00448232,-2.21335,0.0829069,0.711642,0.729881,
2,1,0,0,0,12018,0.713887,0.713641,3.60683,18,1.21362,10,0.00257398,-2.44287,0.0726688,0.811903,0.712054,
2,1,0,1,0,12021.8,0.69491,0.694634,1.93041,18,1.22383,10,0.00134093,-2.71435,0.0610241,0.966831,0.693785,
2,1,0,0,0,12025.6,0.675933,0.675637,0.906707,18,1.22898,10,0.000612605,-3.04253,0.0506861,1.16403,0.675238,
2,1,0,1,0,12029.4,0.656956,0.656673,0.354284,18,1.2312,10,0.000232649,-3.45065,0.0403185,1.46335,0.656517,
2,1,0,0,0,12033.2,0.637979,0.637695,0.0915657,18,1.23192,10,5.8391e-05,-4.03827,0.0229931,2.56598,0.637655,
2,0,0,1,0,12037,0.619002,0.61871,-0.0245116,18,1.23197,10,-1.51656e-05,-4.61063,-0.0150083,-3.93115,0.618721,
2,0,0,0,0,12040.8,0.600025,0.599713,-0.0717783,18,1.23172,10,-4.30464e-05,-4.14401,-0.0897212,-0.657593,0.599745,
2,0,0,1,0,12044.6,0.581047,0.580751,-0.0961447,18,1.23134,10,-5.58361e-05,-4.01707,-0.224165,-0.263199,0.580793,
2,0,0,1,0,12048.4,0.56207,0.561782,-0.106158,18,1.2309,10,-5.96375e-05,-3.97405,-1.4079,-0.0419064,0.561829,
2,0,0,1,0,12052.1,0.543093,0.542771,-0.113888,18,1.23043,10,-6.18152e-05,-3.94352,-1.17967,-0.050014,0.542821,
2,0,0,1,0,12055.9,0.524116,0.523783,-0.11934,18,1.22994,10,-6.25085e-05,-3.92321,-1.25677,-0.0469459,0.523835,
2,0,0,1,0,12059.7,0.505139,0.504862,-0.123789,18,1.22942,10,-6.24964e-05,-3.90732,2.00018,0.0294974,0.504917,
2,0,0,1,0,12063.5,0.486162,0.485888,-0.12742,18,1.22889,10,-6.1912e-05,-3.89476,-0.811424,-0.0727116,0.485944,
2,0,0,1,0,12067.3,0.467185,0.466859,-0.134341,18,1.22834,10,-6.27183e-05,-3.87179,16.2773,0.00362469,0.466918,
2,0,0,1,0,12071.1,0.448208,0.44794,-0.141581,18,1.22776,10,-6.34199e-05,-3.84899,-2.21931,-0.0265848,0.448003,
2,0,0,0,0,12074.9,0.429231,0.428923,-0.150458,18,1.22715,10,-6.45348e-05,-3.82259,-2.06721,-0.0285409,0.428989,
2,0,0,1,0,12078.7,0.410254,0.409977,-0.158117,18,1.22651,10,-6.48241e-05,-3.80102,-2.27952,-0.0258826,0.410046,
2,0,0,0,0,12082.5,0.391277,0.390958,-0.167124,18,1.22584,10,-6.53385e-05,-3.77696,-1.74704,-0.0337715,0.391032,
2,0,0,1,0,12086.3,0.3723,0.372034,-0.176893,18,1.22513,10,-6.58104e-05,-3.75229,-0.656266,-0.0899025,0.372112,
2,0,0,1,0,12090.1,0.353322,0.353027,-0.187647,18,1.22438,10,-6.62444e-05,-3.72666,-0.631698,-0.0933991,0.35311,
2,0,0,1,0,12093.9,0.334345,0.334066,-0.198314,18,1.22358,10,-6.62501e-05,-3.70265,-0.500511,-0.11788,0.334153,
2,0,0,1,0,12097.7,0.315368,0.315059,-0.210547,18,1.22274,10,-6.63348e-05,-3.67665,-1.17652,-0.0501477,0.315151,
2,0,0,1,0,12101.5,0.296391,0.296082,-0.223716,18,1.22186,10,-6.62383e-05,-3.6503,-0.647046,-0.0911836,0.29618,
2,0,0,1,0,12105.3,0.277414,0.277102,-0.233213,18,1.22093,10,-6.46238e-05,-3.63225,-0.85872,-0.0687069,0.277204,
2,0,0,1,0,12109.1,0.258437,0.258168,-0.24693,18,1.21996,10,-6.37494e-05,-3.60743,-1.04244,-0.0565977,0.258277,
2,0,0,1,0,12112.9,0.239461,0.239157,-0.258036,18,1.21893,10,-6.17111e-05,-3.58832,-0.884543,-0.0667011,0.239271,
2,0,0,0,0,12116.7,0.220483,0.220231,-0.269677,18,1.21787,10,-5.93911e-05,-3.56916,-0.628238,-0.0939134,0.220349,
2,0,0,1,0,12120.5,0.201506,0.201199,-0.285662,18,1.21675,10,-5.74747e-05,-3.54415,-0.5197,-0.113527,0.201324,
2,0,0,0,0,12124.3,0.182529,0.182219,-0.307653,18,1.21556,10,-5.60604e-05,-3.51194,-0.358702,-0.164482,0.182355,
2,0,0,1,0,12128.1,0.163552,0.163253,-0.357055,18,1.21425,10,-5.82902e-05,-3.44727,-0.208507,-0.282964,0.16341,
2,0,0,0,0,12131.9,0.144575,0.144254,-0.508516,18,1.2126,10,-7.33553e-05,-3.2937,-0.0845184,-0.698073,0.144477,
2,0,0,1,0,12135.6,0.125598,0.125249,-0.761297,18,1.21006,10,-9.53518e-05,-3.11845,-0.30217,-0.195254,0.125584,
2,0,0,1,0,12139.4,0.10662,0.1063,-0.756737,18,1.20706,10,-8.04413e-05,-3.12106,0.722664,0.0816424,0.106633,
2,0,0,1,0,12143.2,0.0876433,0.087333,-0.68657,18,1.20425,10,-5.99602e-05,-3.16332,0.471468,0.125141,0.0876351,
2,0,0,1,0,12147,0.0686664,0.0683657,-0.635881,18,1.20168,10,-4.34724e-05,-3.19662,0.639928,0.0921979,0.0686454,
2,0,0,1,0,12150.8,0.0496895,0.0493633,-0.588565,18,1.19928,10,-2.90535e-05,-3.23021,0.510486,0.115576,0.0496222,
2,0,0,1,0,12154.6,0.0307126,0.0304023,-0.534423,18,1.19707,10,-1.62477e-05,-3.27211,0.432086,0.136547,0.0306374,
2,0,0,1,0,12158.4,0.0117356,0.0114042,-0.499222,18,1.19504,10,-5.69324e-06,-3.30171,1.09128,0.0540648,0.0116239,
2,0,0,0,0,12160.7,0.000274105,-7.95743e-05,-0.50004,18,1.19386,10,3.97903e-08,-3.301, , ,0.000140443,

File: 20221101_1-115_003_TrumpetPlot_ParaChange_from10_every3_16_CV_C01_18.csv
mode,ox/red,error,control changes,counter inc.,time/s,control/V,Ewe/V,<I>/mA,cycle number,(Q-Qo)/C,I Range,P/W,log(|I|),Tafel slope mV/dec,alpha_eff,E-IR/V,
2,0,0,1,0,13050.9,2.44065e-05,-0.00042076,-0.0478754,19,0.0000000E+000,10,2.01441e-08,-4.31989, , ,-0.000399695,
2,1,0,1,0,13054.7,0.0187763,0.0184359,0.277206,19,0.000940722,10,5.11054e-06,-3.5572,0.176579,0.334128,0.0183139,
2,1,0,0,0,13058.4,0.0377538,0.037405,0.344441,19,0.00218849,10,1.28838e-05,-3.46288,0.225618,0.261504,0.0372534,
2,1,0,1,0,13062.2,0.0567309,0.0563926,0.406273,19,0.00368821,10,2.29108e-05,-3.39118,0.307771,0.191701,0.0562139,
2,1,0,0,0,13066,0.075708,0.0753697,0.455645,19,0.00539991,10,3.43418e-05,-3.34137,0.493316,0.119599,0.0751692,
2,1,0,1,0,13069.8,0.0946851,0.0943435,0.51493,19,0.00729164,10,4.85803e-05,-3.28825,0.280452,0.210374,0.094117,
2,1,0,0,0,13073.6,0.113662,0.113417,0.619232,19,0.00951373,10,7.02315e-05,-3.20815,0.352997,0.16714,0.113145,
2,1,0,1,0,13077.4,0.132639,0.132336,0.687639,19,0.0120715,10,9.09992e-05,-3.16264,-3.08283,-0.0191383,0.132033,
2,1,0,1,0,13081.2,0.151617,0.151288,0.473819,19,0.0144377,10,7.1683e-05,-3.32439,-0.0815189,-0.723759,0.151079,
2,1,0,1,0,13085,0.170594,0.170227,0.342764,19,0.0159854,10,5.83479e-05,-3.465,-0.262279,-0.224951,0.170077,
2,1,0,1,0,13088.8,0.189571,0.189238,0.310627,19,0.0172746,10,5.87825e-05,-3.50776,-0.734261,-0.0803529,0.189102,
2,1,0,1,0,13092.6,0.208547,0.208255,0.296979,19,0.0184834,10,6.18475e-05,-3.52727,-1.5907,-0.0370906,0.208125,
2,1,0,1,0,13096.4,0.227524,0.227205,0.287518,19,0.0196505,10,6.53254e-05,-3.54134,-1.07828,-0.0547166,0.227078,
2,1,0,1,0,13100.2,0.246501,0.246197,0.281915,19,0.0207899,10,6.94064e-05,-3.54988,-0.912893,-0.0646297,0.246073,
2,1,0,1,0,13104,0.265479,0.265151,0.27771,19,0.0219091,10,7.36349e-05,-3.55641,-1.76887,-0.0333546,0.265028,
2,1,0,0,0,13107.8,0.284456,0.28417,0.273301,19,0.0230089,10,7.76641e-05,-3.56336,-11.5959,-0.00508802,0.28405,
2,1,0,1,0,13111.6,0.303433,0.303133,0.267726,19,0.024091,10,8.11566e-05,-3.57231,-3.46822,-0.0170116,0.303016,
2,1,0,0,0,13115.4,0.32241,0.322114,0.264468,19,0.0251576,10,8.51886e-05,-3.57763,-2.37573,-0.0248345,0.321997,
2,1,0,1,0,13119.2,0.341387,0.341058,0.261346,19,0.0262108,10,8.91342e-05,-3.58278,5.25093,0.0112361,0.340943,
2,1,0,0,0,13123,0.360364,0.360053,0.258998,19,0.0272518,10,9.3253e-05,-3.5867,-173.78,-0.00033951,0.359939,
2,1,0,1,0,13126.8,0.379342,0.379072,0.256105,19,0.0282823,10,9.70822e-05,-3.59158,-4.04101,-0.0146003,0.378959,
2,1,0,1,0,13130.6,0.398319,0.397992,0.253476,19,0.0293034,10,0.000100882,-3.59606,7.74778,0.00761508,0.397881,
2,1,0,1,0,13134.4,0.417295,0.417017,0.253416,19,0.0303176,10,0.000105679,-3.59617,-17.2796,-0.00341443,0.416905,
2,1,0,1,0,13138.2,0.436272,0.435987,0.252258,19,0.0313259,10,0.000109981,-3.59816,3.42177,0.0172425,0.435876,
2,1,0,1,0,13141.9,0.455249,0.454912,0.252003,19,0.0323325,10,0.000114639,-3.59859,1.81841,0.032446,0.454801,
2,1,0,1,0,13145.7,0.474226,0.47395,0.251869,19,0.0333415,10,0.000119373,-3.59883,1.67464,0.0352315,0.473839,
2,1,0,1,0,13149.5,0.493203,0.492903,0.254818,19,0.0343568,10,0.000125601,-3.59377,3.60187,0.0163804,0.492791,
2,1,0,1,0,13153.3,0.512181,0.511887,0.259513,19,0.0353833,10,0.000132842,-3.58584,1.81411,0.0325228,0.511773,
2,1,0,0,0,13157.1,0.531158,0.530856,0.266042,19,0.03643,10,0.00014123,-3.57505,1.77469,0.0332452,0.530739,
2,1,0,1,0,13160.9,0.550135,0.549855,0.275692,19,0.0375068,10,0.000151591,-3.55958,0.76936,0.0766871,0.549734,
2,1,0,0,0,13164.7,0.569112,0.568837,0.292293,19,0.0386331,10,0.000166267,-3.53418,0.58962,0.100065,0.568709,
2,1,0,1,0,13168.5,0.588089,0.587809,0.320228,19,0.0398396,10,0.000188233,-3.49454,0.419811,0.140539,0.587668,
2,1,0,0,0,13172.3,0.607066,0.606773,0.370434,19,0.041188,10,0.000224769,-3.43129,0.227209,0.259673,0.60661,
2,1,0,1,0,13176.1,0.626044,0.625758,0.471731,19,0.0428149,10,0.000295189,-3.32631,0.146406,0.40299,0.625551,
2,1,0,1,0,13179.9,0.64502,0.644733,0.687149,19,0.0450138,10,0.000443028,-3.16295,0.0992241,0.594614,0.644431,
2,1,0,1,0,13183.7,0.663997,0.663697,1.15095,19,0.0484446,10,0.000763885,-2.93894,0.0743064,0.794009,0.663191,
2,1,0,1,0,13187.5,0.682974,0.682688,2.07843,19,0.0544405,10,0.00141892,-2.68226,0.0707589,0.833818,0.681773,
2,1,0,1,0,13191.3,0.701951,0.701668,3.69163,19,0.0652049,10,0.0025903,-2.43278,0.0764079,0.772172,0.700043,
2,1,0,1,0,13195.1,0.720928,0.72066,6.07418,19,0.0835531,10,0.00437741,-2.21651,0.0898931,0.656335,0.717987,
2,1,0,1,0,13198.9,0.739905,0.739645,9.16441,19,0.112317,10,0.00677841,-2.0379,0.106312,0.554971,0.735613,
2,1,0,1,0,13202.7,0.758883,0.758609,12.9202,19,0.154043,10,0.00980136,-1.88873,0.120686,0.488873,0.752924,
2,1,0,0,0,13206.5,0.77786,0.777593,17.7365,19,0.211866,10,0.0137917,-1.75113,0.124481,0.473967,0.769789,
2,1,0,1,0,13210.3,0.796837,0.796582,23.7477,19,0.290312,10,0.018917,-1.62438,0.133848,0.440797,0.786133,
2,1,0,0,0,13214.1,0.815814,0.815547,30.7115,19,0.393459,10,0.0250467,-1.5127,0.153971,0.383189,0.802034,
2,1,0,1,0,13217.9,0.834791,0.834592,38.0992,19,0.524001,10,0.0317973,-1.41908,0.185806,0.317535,0.817828,
2,1,0,1,0,13221.5,0.846727,0.846443,41.7929,19,0.676784,10,0.0353753,-1.3789,0.151306,0.389938,0.828054,
2,1,0,1,0,13225.3,0.827749,0.827532,33.4803,19,0.819316,10,0.027706,-1.47521,0.149081,0.395758,0.8128,
2,1,0,1,0,13229.1,0.808772,0.808523,25.8524,19,0.931695,10,0.0209023,-1.5875,0.12949,0.455635,0.797148,
2,1,0,1,0,13232.9,0.789795,0.789497,19.2223,19,1.01687,10,0.0151759,-1.7162,0.118258,0.498908,0.78104,
2,1,0,1,0,13236.7,0.770818,0.770535,13.6608,19,1.07884,10,0.0105262,-1.86452,0.105896,0.557153,0.764524,
2,1,0,1,0,13240.5,0.751841,0.751621,8.92987,19,1.12151,10,0.00671188,-2.04915,0.0977144,0.6038,0.747692,
2,1,0,1,0,13244.3,0.732865,0.732612,5.84429,19,1.1493,10,0.0042816,-2.23327,0.0865727,0.681508,0.730041,
2,1,0,1,0,13248.1,0.713887,0.713628,3.48048,19,1.16668,10,0.00248377,-2.45836,0.0823645,0.716328,0.712097,
2,1,0,0,0,13251.9,0.69491,0.694659,1.92989,19,1.17679,10,0.00134062,-2.71447,0.0632585,0.93268,0.69381,
2,1,0,1,0,13255.7,0.675933,0.675636,0.922746,19,1.18197,10,0.000623441,-3.03492,0.0531015,1.11108,0.67523,
2,1,0,0,0,13259.5,0.656956,0.656675,0.376571,19,1.18427,10,0.000247285,-3.42415,0.0431664,1.3668,0.656509,
2,1,0,1,0,13263.3,0.637979,0.637718,0.114341,19,1.18509,10,7.29171e-05,-3.9418,0.0294578,2.00286,0.637668,
2,1,0,0,0,13267.1,0.619002,0.618709,-0.00123017,19,1.18522,10,-7.61119e-07,-5.91003,-0.0358654,-1.64504,0.61871,
2,0,0,1,0,13270.9,0.600025,0.599682,-0.0496671,19,1.18506,10,-2.97845e-05,-4.30393,-0.0691403,-0.853338,0.599704,
2,0,0,1,0,13274.7,0.581047,0.580762,-0.0724069,19,1.18477,10,-4.20512e-05,-4.14022,-0.199362,-0.295944,0.580794,
2,0,0,1,0,13278.5,0.56207,0.561744,-0.0852803,19,1.18442,10,-4.79057e-05,-4.06915,-0.395509,-0.149175,0.561782,
2,0,0,1,0,13282.3,0.543093,0.542787,-0.092019,19,1.18403,10,-4.99468e-05,-4.03612,-1.17112,-0.0503792,0.542828,
2,0,0,1,0,13286.1,0.524116,0.523877,-0.0977611,19,1.18362,10,-5.12148e-05,-4.00983,-0.705919,-0.083579,0.52392,
2,0,0,1,0,13289.9,0.505139,0.504856,-0.102803,19,1.18319,10,-5.19005e-05,-3.988,-0.632171,-0.0933291,0.504901,
2,0,0,1,0,13293.7,0.486162,0.485863,-0.107801,19,1.18274,10,-5.23764e-05,-3.96738,-0.55255,-0.106778,0.48591,
2,0,0,1,0,13297.5,0.467185,0.466859,-0.114798,19,1.18226,10,-5.35946e-05,-3.94007,-0.95425,-0.0618287,0.46691,
2,0,0,0,0,13301.3,0.448208,0.44793,-0.122254,19,1.18176,10,-5.47614e-05,-3.91274,-0.900652,-0.0655081,0.447984,
2,0,0,1,0,13305,0.429231,0.428951,-0.130626,19,1.18123,10,-5.6032e-05,-3.88397,-2.9035,-0.0203203,0.429008,
2,0,0,0,0,13308.8,0.410254,0.409948,-0.138986,19,1.18066,10,-5.69769e-05,-3.85703,-2.03675,-0.0289678,0.410009,
2,0,0,1,0,13312.6,0.391277,0.390994,-0.14913,19,1.18005,10,-5.83089e-05,-3.82644,-0.569601,-0.103581,0.39106,
2,0,0,0,0,13316.4,0.3723,0.371979,-0.159275,19,1.17941,10,-5.92471e-05,-3.79785,-0.617618,-0.0955282,0.372049,
2,0,0,1,0,13320.2,0.353322,0.353027,-0.16991,19,1.17873,10,-5.99828e-05,-3.76978,-2.23086,-0.0264472,0.353102,
2,0,0,1,0,13324,0.334345,0.33404,-0.182177,19,1.178,10,-6.08545e-05,-3.73951,-0.711311,-0.0829454,0.33412,
2,0,0,1,0,13327.8,0.315368,0.315088,-0.193772,19,1.17722,10,-6.10552e-05,-3.71271,-0.977226,-0.060375,0.315173,
2,0,0,1,0,13331.6,0.296391,0.296058,-0.206546,19,1.1764,10,-6.11498e-05,-3.68498,-0.67014,-0.0880413,0.296149,
2,0,0,1,0,13335.4,0.277414,0.277055,-0.218342,19,1.17554,10,-6.04927e-05,-3.66086,-0.855643,-0.068954,0.277151,
2,0,0,1,0,13339.2,0.258437,0.258129,-0.231797,19,1.17462,10,-5.98334e-05,-3.63489,-1.24576,-0.0473606,0.258231,
2,0,0,1,0,13343,0.239461,0.23914,-0.243835,19,1.17366,10,-5.83108e-05,-3.6129,-0.819745,-0.0719736,0.239248,
2,0,0,1,0,13346.8,0.220483,0.220162,-0.256852,19,1.17265,10,-5.65489e-05,-3.59032,-0.936791,-0.0629809,0.220275,
2,0,0,0,0,13350.6,0.201506,0.201182,-0.271868,19,1.17158,10,-5.46948e-05,-3.56564,-0.395587,-0.149145,0.201301,
2,0,0,1,0,13354.4,0.182529,0.182241,-0.295159,19,1.17044,10,-5.379e-05,-3.52994,-0.349568,-0.16878,0.18237,
2,0,0,0,0,13358.2,0.163552,0.163217,-0.344066,19,1.16918,10,-5.61574e-05,-3.46336,-0.212752,-0.277318,0.163368,
2,0,0,1,0,13362,0.144575,0.144247,-0.495917,19,1.16758,10,-7.15347e-05,-3.30459,-0.0802145,-0.735528,0.144466,
2,0,0,0,0,13365.8,0.125598,0.125282,-0.748598,19,1.1651,10,-9.37858e-05,-3.12575,-0.285762,-0.206465,0.125611,
2,0,0,1,0,13369.6,0.10662,0.106334,-0.74425,19,1.16215,10,-7.91393e-05,-3.12828,0.585814,0.100715,0.106662,
2,0,0,1,0,13373.4,0.0876433,0.0872842,-0.676733,19,1.15938,10,-5.90681e-05,-3.16958,0.462506,0.127566,0.087582,
2,0,0,1,0,13377.2,0.0686664,0.0683857,-0.626056,19,1.15684,10,-4.28132e-05,-3.20339,0.622316,0.0948072,0.0686611,
2,0,0,1,0,13381,0.0496895,0.0493156,-0.580176,19,1.15448,10,-2.86117e-05,-3.23644,0.48339,0.122055,0.0495709,
2,0,0,1,0,13384.8,0.0307126,0.0303969,-0.529064,19,1.1523,10,-1.60819e-05,-3.27649,0.567801,0.10391,0.0306297,
2,0,0,1,0,13388.5,0.0117356,0.0113873,-0.494843,19,1.15029,10,-5.6349e-06,-3.30553,1.40962,0.0418552,0.011605,
2,0,0,1,0,13390.8,0.000274105,-0.000110591,-0.493991,19,1.14912,10,5.4631e-08,-3.30628, , ,0.000106765,