Folder: Figs_alphaMnO2_OER_Tafel_sleope/Figure_codes/Fig_3-5/workspace_calculate_alpha_eff (part 55)

File: 20221101_1-115_003_TrumpetPlot_ParaChange_from10_every3_16_CV_C01_101.csv
mode,ox/red,error,control changes,counter inc.,time/s,control/V,Ewe/V,<I>/mA,cycle number,(Q-Qo)/C,I Range,P/W,log(|I|),Tafel slope mV/dec,alpha_eff,E-IR/V,
2,0,0,0,0,66984.4,2.44065e-05,-0.000268062,-0.102574,102,0.0000000E+000,10,2.74962e-08,-3.98896, , ,-0.000222929,
2,1,0,1,0,66988.2,0.0187763,0.0184458,0.200346,102,0.000643279,10,3.69554e-06,-3.69822,0.157523,0.374549,0.0183577,
2,1,0,1,0,66992,0.0377538,0.0374008,0.262888,102,0.00157159,10,9.83221e-06,-3.58023,0.197411,0.298869,0.0372851,
2,1,0,0,0,66995.8,0.0567309,0.0563714,0.321194,102,0.00273686,10,1.81062e-05,-3.49323,0.30954,0.190605,0.0562301,
2,1,0,1,0,66999.6,0.075708,0.0753729,0.366568,102,0.00410049,10,2.76293e-05,-3.43584,0.414322,0.142401,0.0752116,
2,1,0,0,0,67003.4,0.094685,0.094387,0.416858,102,0.00562577,10,3.93459e-05,-3.38001,0.256443,0.230071,0.0942036,
2,1,0,1,0,67007.2,0.113662,0.113334,0.507077,102,0.0074282,10,5.74692e-05,-3.29493,0.32413,0.182026,0.113111,
2,1,0,0,0,67010.9,0.132639,0.132335,0.53957,102,0.00949091,10,7.14038e-05,-3.26795,-0.446387,-0.132172,0.132097,
2,1,0,1,0,67014.7,0.151617,0.151321,0.353095,102,0.0112912,10,5.34306e-05,-3.45211,-0.080982,-0.728557,0.151165,
2,1,0,1,0,67018.5,0.170594,0.170291,0.270927,102,0.0124767,10,4.61364e-05,-3.56715,-0.324877,-0.181607,0.170172,
2,1,0,1,0,67022.3,0.189571,0.189241,0.256108,102,0.0135178,10,4.84663e-05,-3.59158,-0.850554,-0.0693666,0.189129,
2,1,0,1,0,67026.1,0.208547,0.208237,0.249837,102,0.0145207,10,5.20254e-05,-3.60234,-1.59934,-0.0368903,0.208127,
2,1,0,1,0,67029.9,0.227524,0.227211,0.245869,102,0.0155036,10,5.58642e-05,-3.6093,-1.05419,-0.0559671,0.227103,
2,1,0,1,0,67033.7,0.246501,0.246205,0.241605,102,0.016472,10,5.94844e-05,-3.61689,-4.32078,-0.013655,0.246099,
2,1,0,0,0,67037.5,0.265479,0.265157,0.238781,102,0.0174261,10,6.33143e-05,-3.622,-0.901002,-0.0654826,0.265052,
2,1,0,1,0,67041.3,0.284456,0.284123,0.23471,102,0.018365,10,6.66865e-05,-3.62947,-3.61689,-0.0163124,0.28402,
2,1,0,0,0,67045.1,0.303433,0.303122,0.231836,102,0.0192888,10,7.02744e-05,-3.63482,-1.55454,-0.0379533,0.30302,
2,1,0,1,0,67048.9,0.32241,0.322103,0.227239,102,0.0201983,10,7.31944e-05,-3.64352,14.1842,0.00415955,0.322003,
2,1,0,0,0,67052.7,0.341387,0.341074,0.224998,102,0.0210949,10,7.6741e-05,-3.64782,-2.08135,-0.028347,0.340975,
2,1,0,1,0,67056.5,0.360364,0.360046,0.223937,102,0.0219816,10,8.06277e-05,-3.64987,-10.0595,-0.00586512,0.359948,
2,1,0,1,0,67060.3,0.379342,0.379059,0.222589,102,0.0228604,10,8.43744e-05,-3.6525,-14.831,-0.00397814,0.378961,
2,1,0,1,0,67064.1,0.398319,0.397989,0.220136,102,0.0237322,10,8.76116e-05,-3.65731,-3.66065,-0.0161173,0.397892,
2,1,0,1,0,67067.9,0.417295,0.416997,0.21926,102,0.0245987,10,9.14308e-05,-3.65904,16.0602,0.00367368,0.4169,
2,1,0,1,0,67071.7,0.436272,0.435966,0.2187,102,0.0254619,10,9.53458e-05,-3.66015,1.75497,0.0336188,0.43587,
2,1,0,1,0,67075.5,0.455249,0.45494,0.218932,102,0.0263235,10,9.96008e-05,-3.65969,1.66623,0.0354094,0.454844,
2,1,0,1,0,67079.3,0.474226,0.473937,0.21926,102,0.0271865,10,0.000103915,-3.65904,2.15902,0.0273273,0.47384,
2,1,0,1,0,67083.1,0.493203,0.492887,0.222692,102,0.0280548,10,0.000109762,-3.6523,1.79348,0.032897,0.492789,
2,1,0,0,0,67086.9,0.512181,0.511914,0.226917,102,0.0289341,10,0.000116162,-3.64413,1.73621,0.033982,0.511814,
2,1,0,1,0,67090.6,0.531158,0.53086,0.232123,102,0.0298317,10,0.000123225,-3.63428,1.34156,0.0439788,0.530758,
2,1,0,0,0,67094.4,0.550135,0.549827,0.240095,102,0.0307538,10,0.000132011,-3.61962,1.26347,0.046697,0.549722,
2,1,0,1,0,67098.2,0.569112,0.568837,0.251987,102,0.0317126,10,0.00014334,-3.59862,0.515609,0.114428,0.568726,
2,1,0,0,0,67102,0.588089,0.587802,0.270087,102,0.0327272,10,0.000158758,-3.5685,0.49616,0.118913,0.587683,
2,1,0,1,0,67105.8,0.607066,0.606747,0.300637,102,0.0338306,10,0.00018241,-3.52196,0.308155,0.191462,0.606615,
2,1,0,1,0,67109.6,0.626043,0.625735,0.354273,102,0.0350883,10,0.000221681,-3.45066,0.208764,0.282616,0.625579,
2,1,0,1,0,67113.4,0.64502,0.644764,0.461805,102,0.0366402,10,0.000297755,-3.33554,0.13837,0.426392,0.644561,
2,1,0,1,0,67117.2,0.663997,0.663761,0.677417,102,0.0387803,10,0.000449643,-3.16914,0.101505,0.581255,0.663463,
2,1,0,1,0,67121,0.682974,0.682671,1.08689,102,0.0420791,10,0.00074199,-2.96381,0.0866324,0.681039,0.682193,
2,1,0,1,0,67124.8,0.701951,0.701667,1.7786,102,0.0474457,10,0.00124798,-2.74992,0.089431,0.659727,0.700884,
2,1,0,1,0,67128.6,0.720928,0.720675,2.79543,102,0.056044,10,0.0020146,-2.55355,0.09892,0.596441,0.719445,
2,1,0,1,0,67132.4,0.739905,0.739602,4.15508,102,0.0691405,10,0.00307311,-2.38142,0.111172,0.530707,0.737774,
2,1,0,0,0,67136.2,0.758883,0.758634,5.91461,102,0.0881396,10,0.00448703,-2.22807,0.123729,0.476847,0.756032,
2,1,0,1,0,67140,0.77786,0.777575,8.15703,102,0.114678,10,0.00634271,-2.08847,0.128221,0.460144,0.773986,
2,1,0,0,0,67143.8,0.796837,0.796597,11.1185,102,0.151017,10,0.00885694,-1.95395,0.131531,0.448562,0.791705,
2,1,0,1,0,67147.6,0.815814,0.815544,15.082,102,0.200415,10,0.0123,-1.82154,0.132839,0.444148,0.808908,
2,1,0,0,0,67151.4,0.834791,0.834534,19.7864,102,0.26656,10,0.0165124,-1.70363,0.144333,0.408778,0.825828,
2,1,0,0,0,67155.1,0.846726,0.84648,22.6754,102,0.348652,10,0.0191943,-1.64444,0.109197,0.54031,0.836503,
2,1,0,1,0,67158.9,0.827749,0.827507,16.6119,102,0.422583,10,0.0137465,-1.77958,0.122371,0.482141,0.820198,
2,1,0,1,0,67162.7,0.808772,0.808483,12.5809,102,0.476639,10,0.0101714,-1.90029,0.488156,0.120863,0.802947,
2,1,0,1,0,67166.5,0.789795,0.789499,9.0633,102,0.517579,10,0.00715547,-2.04271,0.115255,0.51191,0.785512,
2,1,0,1,0,67170.3,0.770818,0.770525,6.34453,102,0.546519,10,0.00488861,-2.1976,0.113983,0.517622,0.767733,
2,1,0,1,0,67174,0.751841,0.75157,4.36497,102,0.566616,10,0.00328058,-2.36002,0.107785,0.547385,0.749649,
2,1,0,1,0,67177.8,0.732865,0.732569,2.88378,102,0.580206,10,0.00211257,-2.54004,0.095692,0.616562,0.7313,
2,1,0,0,0,67181.6,0.713887,0.713614,1.78028,102,0.588924,10,0.00127043,-2.74951,0.0802137,0.735535,0.71283,
2,1,0,1,0,67185.4,0.69491,0.694636,0.987732,102,0.594056,10,0.000686114,-3.00536,0.0661173,0.892353,0.694202,
2,1,0,0,0,67189.2,0.675933,0.675667,0.465769,102,0.596709,10,0.000314705,-3.33183,0.0500143,1.17966,0.675462,
2,1,0,1,0,67193,0.656956,0.656705,0.163044,102,0.597814,10,0.000107072,-3.78769,0.0322783,1.82786,0.656633,
2,1,0,0,0,67196.8,0.637979,0.637713,0.00831325,102,0.598075,10,5.30146e-06,-5.08023,0.00437642,13.4813,0.637709,
2,0,0,1,0,67200.6,0.619002,0.618733,-0.0599085,102,0.597933,10,-3.70674e-05,-4.22251,-0.0551826,-1.06918,0.618759,
2,0,0,0,0,67204.4,0.600025,0.599728,-0.0910701,102,0.59761,10,-5.46173e-05,-4.04062,-0.220522,-0.267547,0.599768,
2,0,0,1,0,67208.2,0.581047,0.580756,-0.106376,102,0.597205,10,-6.17786e-05,-3.97316,-0.369745,-0.15957,0.580803,
2,0,0,1,0,67212,0.56207,0.56175,-0.114186,102,0.596758,10,-6.41442e-05,-3.94239,-0.425363,-0.138705,0.5618,
2,0,0,1,0,67215.8,0.543093,0.542791,-0.120314,102,0.596286,10,-6.53053e-05,-3.91968,-1.61181,-0.0366049,0.542844,
2,0,0,1,0,67219.6,0.524116,0.52382,-0.12439,102,0.595794,10,-6.51581e-05,-3.90521,-2.79422,-0.021115,0.523875,
2,0,0,1,0,67223.4,0.505139,0.504835,-0.129097,102,0.595284,10,-6.51725e-05,-3.88908,-0.799266,-0.0738177,0.504891,
2,0,0,1,0,67227.2,0.486162,0.485881,-0.134237,102,0.594756,10,-6.52233e-05,-3.87213,-1.51783,-0.0388714,0.48594,
2,0,0,1,0,67231,0.467185,0.466885,-0.139695,102,0.594206,10,-6.52213e-05,-3.85482,-1.07171,-0.0550522,0.466946,
2,0,0,1,0,67234.8,0.448208,0.447929,-0.146787,102,0.593631,10,-6.57502e-05,-3.83331,-0.777746,-0.0758602,0.447993,
2,0,0,0,0,67238.6,0.429231,0.428921,-0.154066,102,0.593028,10,-6.60822e-05,-3.81229,-1.77512,-0.0332371,0.428989,
2,0,0,1,0,67242.4,0.410254,0.409916,-0.164207,102,0.592393,10,-6.73113e-05,-3.78461,-3.23025,-0.0182649,0.409988,
2,0,0,0,0,67246.2,0.391277,0.390984,-0.172722,102,0.591722,10,-6.75314e-05,-3.76265,-0.706589,-0.0834998,0.39106,
2,0,0,1,0,67250,0.3723,0.372016,-0.182339,102,0.591013,10,-6.78331e-05,-3.73912,-0.654618,-0.090129,0.372097,
2,0,0,1,0,67253.8,0.353322,0.353051,-0.191696,102,0.590267,10,-6.76785e-05,-3.71739,-0.889159,-0.0663549,0.353136,
2,0,0,1,0,67257.5,0.334345,0.334072,-0.2027,102,0.589478,10,-6.77164e-05,-3.69315,-0.794255,-0.0742834,0.334162,
2,0,0,1,0,67261.3,0.315368,0.315009,-0.214294,102,0.588646,10,-6.75046e-05,-3.66899,-0.753389,-0.0783128,0.315103,
2,0,0,1,0,67265.1,0.296391,0.296048,-0.225602,102,0.587772,10,-6.67889e-05,-3.64666,-0.823688,-0.071629,0.296147,
2,0,0,1,0,67268.9,0.277414,0.277121,-0.237307,102,0.586851,10,-6.57626e-05,-3.62469,-0.817661,-0.0721571,0.277225,
2,0,0,1,0,67272.7,0.258437,0.258118,-0.24957,102,0.585884,10,-6.44186e-05,-3.60281,-0.85096,-0.0693335,0.258228,
2,0,0,1,0,67276.5,0.239461,0.239125,-0.260309,102,0.584873,10,-6.22463e-05,-3.58451,-0.819697,-0.0719778,0.239239,
2,0,0,0,0,67280.3,0.220483,0.220197,-0.271422,102,0.58382,10,-5.97662e-05,-3.56636,-0.657306,-0.0897604,0.220316,
2,0,0,1,0,67284.1,0.201506,0.201204,-0.283709,102,0.58272,10,-5.70834e-05,-3.54713,-0.398547,-0.148038,0.201329,
2,0,0,0,0,67287.9,0.182529,0.182213,-0.30217,102,0.581563,10,-5.50594e-05,-3.51975,-0.571069,-0.103315,0.182346,
2,0,0,1,0,67291.7,0.163552,0.163219,-0.329873,102,0.580323,10,-5.38416e-05,-3.48165,-0.355332,-0.166042,0.163364,
2,0,0,0,0,67295.5,0.144575,0.144224,-0.404636,102,0.578908,10,-5.83583e-05,-3.39294,-0.139227,-0.423769,0.144402,
2,0,0,1,0,67299.3,0.125598,0.125261,-0.590884,102,0.576983,10,-7.40146e-05,-3.2285,-0.154381,-0.382171,0.125521,
2,0,0,1,0,67303.1,0.10662,0.106284,-0.660921,102,0.5745,10,-7.02457e-05,-3.17985,-2.60766,-0.0226257,0.106575,
2,0,0,1,0,67306.9,0.0876433,0.0872948,-0.648083,102,0.571951,10,-5.65742e-05,-3.18837,0.950908,0.062046,0.0875799,
2,0,0,1,0,67310.7,0.0686664,0.0683485,-0.61259,102,0.569502,10,-4.18696e-05,-3.21283,0.706291,0.083535,0.068618,
2,0,0,1,0,67314.5,0.0496895,0.0493348,-0.572084,102,0.567195,10,-2.82237e-05,-3.24254,0.584154,0.101001,0.0495865,
2,0,0,1,0,67318.3,0.0307126,0.030433,-0.526666,102,0.565054,10,-1.60281e-05,-3.27846,0.558177,0.105701,0.0306648,
2,0,0,1,0,67322.1,0.0117356,0.0114413,-0.498325,102,0.563063,10,-5.70147e-06,-3.30249,1.3344,0.0442146,0.0116605,
2,0,0,0,0,67324.4,0.000274105,-9.38898e-05,-0.501245,102,0.561889,10,4.70618e-08,-3.29995, , ,0.000126658,

File: 20221101_1-115_003_TrumpetPlot_ParaChange_from10_every3_16_CV_C01_102.csv
mode,ox/red,error,control changes,counter inc.,time/s,control/V,Ewe/V,<I>/mA,cycle number,(Q-Qo)/C,I Range,P/W,log(|I|),Tafel slope mV/dec,alpha_eff,E-IR/V,
2,0,0,1,0,68214.6,2.44065e-05,-0.000344411,-0.0466034,103,0.0000000E+000,10,1.60507e-08,-4.33158, , ,-0.000323905,
2,1,0,1,0,68218.3,0.0187763,0.0184932,0.258159,103,0.000865442,10,4.77419e-06,-3.58811,0.187135,0.31528,0.0183796,
2,1,0,0,0,68222.1,0.0377538,0.0374644,0.319776,103,0.00201705,10,1.19802e-05,-3.49515,0.229183,0.257436,0.0373237,
2,1,0,1,0,68225.9,0.0567309,0.0564138,0.375108,103,0.00339848,10,2.11613e-05,-3.42584,0.339012,0.174035,0.0562488,
2,1,0,0,0,68229.7,0.075708,0.0753782,0.416291,103,0.00496692,10,3.13792e-05,-3.3806,0.505335,0.116754,0.075195,
2,1,0,1,0,68233.5,0.094685,0.0943499,0.465011,103,0.00668003,10,4.38737e-05,-3.33254,0.276213,0.213603,0.0941453,
2,1,0,0,0,68237.3,0.113662,0.113313,0.552823,103,0.00866906,10,6.26421e-05,-3.25741,0.356869,0.165327,0.11307,
2,1,0,1,0,68241.1,0.132639,0.132317,0.578703,103,0.0108989,10,7.65721e-05,-3.23754,-0.447323,-0.131896,0.132062,
2,1,0,1,0,68244.9,0.151617,0.151311,0.388176,103,0.0128398,10,5.87352e-05,-3.41097,-0.0886491,-0.665545,0.15114,
2,1,0,1,0,68248.7,0.170594,0.170284,0.311364,103,0.0141716,10,5.30202e-05,-3.50673,-0.461708,-0.127786,0.170147,
2,1,0,1,0,68252.5,0.189571,0.189239,0.296377,103,0.0153688,10,5.60862e-05,-3.52816,-1.00059,-0.0589655,0.189109,
2,1,0,1,0,68256.3,0.208547,0.208234,0.291298,103,0.0165324,10,6.06582e-05,-3.53566,-1.99388,-0.0295905,0.208106,
2,1,0,1,0,68260.1,0.227524,0.227152,0.287244,103,0.0176774,10,6.52479e-05,-3.54175,-1.71786,-0.034345,0.227025,
2,1,0,1,0,68263.8,0.246501,0.246171,0.284188,103,0.0188073,10,6.99589e-05,-3.54639,-1.19257,-0.0494731,0.246046,
2,1,0,1,0,68267.6,0.265479,0.265159,0.279406,103,0.0199236,10,7.40869e-05,-3.55376,-2.31166,-0.0255228,0.265036,
2,1,0,0,0,68271.4,0.284456,0.28414,0.27639,103,0.0210259,10,7.85336e-05,-3.55848,-1.75607,-0.0335978,0.284019,
2,1,0,1,0,68275.2,0.303433,0.303125,0.27355,103,0.0221128,10,8.29199e-05,-3.56296,-1.13327,-0.0520619,0.303004,
2,1,0,0,0,68279,0.32241,0.322094,0.270383,103,0.0231857,10,8.7089e-05,-3.56802,-10.0482,-0.00587173,0.321975,
2,1,0,1,0,68282.8,0.341387,0.341047,0.266816,103,0.0242461,10,9.09968e-05,-3.57379,-4.39267,-0.0134315,0.34093,
2,1,0,0,0,68286.6,0.360364,0.360057,0.265913,103,0.0252964,10,9.5744e-05,-3.57526,-6.46359,-0.00912806,0.35994,
2,1,0,1,0,68290.4,0.379342,0.379029,0.262599,103,0.0263362,10,9.95328e-05,-3.58071,-3.2314,-0.0182583,0.378914,
2,1,0,1,0,68294.2,0.398319,0.398004,0.261238,103,0.0273661,10,0.000103974,-3.58296,116.497,0.000506452,0.397889,
2,1,0,1,0,68298,0.417295,0.416988,0.259184,103,0.0283888,10,0.000108077,-3.58639,-8.43899,-0.00699136,0.416874,
2,1,0,1,0,68301.8,0.436272,0.43599,0.25908,103,0.0294054,10,0.000112956,-3.58657,-4.23318,-0.0139375,0.435876,
2,1,0,1,0,68305.6,0.455249,0.454906,0.257853,103,0.0304178,10,0.000117299,-3.58863,5.53742,0.0106548,0.454793,
2,1,0,1,0,68309.4,0.474226,0.473913,0.257846,103,0.0314292,10,0.000122196,-3.58864,4.74634,0.0124306,0.473799,
2,1,0,1,0,68313.2,0.493203,0.492871,0.26068,103,0.0324435,10,0.000128482,-3.58389,3.58988,0.0164351,0.492757,
2,1,0,1,0,68317,0.512181,0.511891,0.263149,103,0.0334671,10,0.000134703,-3.5798,2.19544,0.0268739,0.511775,
2,1,0,0,0,68320.8,0.531158,0.53083,0.267917,103,0.034506,10,0.000142219,-3.572,2.35672,0.0250348,0.530712,
2,1,0,1,0,68324.6,0.550135,0.549854,0.275114,103,0.0355661,10,0.000151272,-3.56049,1.23711,0.0476916,0.549733,
2,1,0,0,0,68328.4,0.569112,0.568826,0.286601,103,0.0366609,10,0.000163026,-3.54272,1.08483,0.0543862,0.568699,
2,1,0,1,0,68332.2,0.588089,0.587844,0.305933,103,0.0378108,10,0.000179841,-3.51437,0.54978,0.107316,0.587709,
2,1,0,0,0,68336,0.607066,0.606809,0.335357,103,0.0390487,10,0.000203498,-3.47449,0.367856,0.160389,0.606662,
2,1,0,1,0,68339.8,0.626043,0.625769,0.391984,103,0.0404435,10,0.000245291,-3.40673,0.217003,0.271885,0.625596,
2,1,0,1,0,68343.6,0.64502,0.644734,0.502435,103,0.0421433,10,0.000323937,-3.29892,0.140801,0.419031,0.644513,
2,1,0,1,0,68347.3,0.663997,0.663718,0.724305,103,0.0444515,10,0.000480735,-3.14008,0.10145,0.58157,0.6634,
2,1,0,1,0,68351.1,0.682974,0.682693,1.14946,103,0.047958,10,0.000784725,-2.93951,0.0889695,0.663149,0.682187,
2,1,0,1,0,68354.9,0.701951,0.701698,1.86796,103,0.0536053,10,0.00131074,-2.72863,0.0903086,0.653315,0.700876,
2,1,0,1,0,68358.7,0.720928,0.720654,2.92889,103,0.0626208,10,0.00211072,-2.5333,0.0993947,0.593593,0.719366,
2,1,0,1,0,68362.5,0.739905,0.739668,4.36246,103,0.0763593,10,0.00322678,-2.36027,0.112908,0.52255,0.737749,
2,1,0,1,0,68366.3,0.758883,0.758597,6.2293,103,0.0963316,10,0.00472553,-2.20556,0.122954,0.479854,0.755856,
2,1,0,0,0,68370.1,0.77786,0.777609,8.64423,103,0.124385,10,0.00672184,-2.06327,0.127788,0.461701,0.773806,
2,1,0,1,0,68373.9,0.796837,0.796525,11.8148,103,0.16296,10,0.00941079,-1.92757,0.130075,0.453586,0.791326,
2,1,0,0,0,68377.7,0.815814,0.815523,16.0514,103,0.215549,10,0.0130903,-1.79449,0.130599,0.451763,0.80846,
2,1,0,1,0,68381.5,0.834791,0.834554,21.3352,103,0.286246,10,0.0178053,-1.6709,0.145723,0.404878,0.825166,
2,1,0,1,0,68385.2,0.846726,0.846494,24.382,103,0.374679,10,0.0206393,-1.61293,0.0995999,0.59237,0.835766,
2,1,0,1,0,68389,0.827749,0.827483,17.6927,103,0.453732,10,0.0146404,-1.75221,0.116839,0.504967,0.819698,
2,1,0,1,0,68392.8,0.808772,0.808469,12.8149,103,0.511171,10,0.0103605,-1.89228,0.11964,0.493145,0.80283,
2,1,0,1,0,68396.6,0.789795,0.789543,9.16155,103,0.552544,10,0.00723344,-2.03803,0.116205,0.507722,0.785512,
2,1,0,1,0,68400.4,0.770818,0.770546,6.42606,103,0.58181,10,0.00495158,-2.19206,0.110618,0.533367,0.767719,
2,1,0,1,0,68404.2,0.751841,0.751572,4.41334,103,0.602141,10,0.00331694,-2.35523,0.108135,0.545616,0.74963,
2,1,0,1,0,68408,0.732864,0.732627,2.92375,103,0.615904,10,0.00214202,-2.53406,0.096013,0.6145,0.731341,
2,1,0,1,0,68411.8,0.713887,0.713637,1.81352,103,0.624759,10,0.00129419,-2.74148,0.0814314,0.724536,0.712839,
2,1,0,0,0,68415.6,0.69491,0.694636,1.01813,103,0.630013,10,0.00070723,-2.9922,0.0675333,0.873644,0.694188,
2,1,0,1,0,68419.4,0.675933,0.675657,0.492388,103,0.632775,10,0.000332686,-3.30769,0.0526454,1.12071,0.675441,
2,1,0,0,0,68423.2,0.656956,0.656676,0.189145,103,0.633982,10,0.000124207,-3.72321,0.0381411,1.54689,0.656593,
2,1,0,1,0,68426.9,0.637979,0.637692,0.0344347,103,0.634341,10,2.19587e-05,-4.463,0.0141321,4.17489,0.637676,
2,0,0,0,0,68430.7,0.619002,0.618709,-0.0347205,103,0.634292,10,-2.14819e-05,-4.45941,-0.0355992,-1.65734,0.618724,
2,0,0,1,0,68434.5,0.600025,0.599711,-0.0666278,103,0.634061,10,-3.99574e-05,-4.17634,-0.106297,-0.555051,0.59974,
2,0,0,1,0,68438.3,0.581047,0.580737,-0.0825899,103,0.633747,10,-4.7963e-05,-4.08307,-0.289959,-0.203477,0.580773,
2,0,0,1,0,68442.1,0.56207,0.561764,-0.0919478,103,0.633388,10,-5.1653e-05,-4.03646,-0.66419,-0.08883,0.561805,
2,0,0,1,0,68445.9,0.543093,0.542809,-0.0978753,103,0.633002,10,-5.31276e-05,-4.00933,-3.40355,-0.0173348,0.542852,
2,0,0,1,0,68449.7,0.524116,0.523783,-0.101995,103,0.632593,10,-5.34232e-05,-3.99142,-1.058,-0.0557656,0.523828,
2,0,0,1,0,68453.5,0.505139,0.504815,-0.106659,103,0.632165,10,-5.38431e-05,-3.972,-0.717977,-0.0821753,0.504862,
2,0,0,1,0,68457.3,0.486162,0.485859,-0.113128,103,0.631714,10,-5.49641e-05,-3.94643,-1.68406,-0.0350345,0.485908,
2,0,0,1,0,68461.1,0.467185,0.466849,-0.119729,103,0.63124,10,-5.58952e-05,-3.9218,-0.614145,-0.0960684,0.466901,
2,0,0,0,0,68464.9,0.448208,0.44788,-0.128333,103,0.630738,10,-5.7478e-05,-3.89166,-1.43383,-0.0411487,0.447936,
2,0,0,1,0,68468.7,0.429231,0.428941,-0.134314,103,0.630206,10,-5.76128e-05,-3.87188,-1.87529,-0.0314618,0.429,
2,0,0,0,0,68472.5,0.410254,0.409961,-0.144089,103,0.629638,10,-5.90706e-05,-3.84137,-1.54383,-0.0382166,0.410024,
2,0,0,1,0,68476.3,0.391277,0.390963,-0.154292,103,0.629033,10,-6.03222e-05,-3.81166,-0.44098,-0.133793,0.39103,
2,0,0,0,0,68480.1,0.3723,0.372016,-0.164559,103,0.628391,10,-6.12186e-05,-3.78368,-0.628685,-0.0938467,0.372089,
2,0,0,1,0,68483.9,0.353322,0.35304,-0.174442,103,0.627709,10,-6.1585e-05,-3.75835,-0.519466,-0.113578,0.353117,
2,0,0,1,0,68487.7,0.334345,0.334042,-0.186011,103,0.626984,10,-6.21356e-05,-3.73046,-0.553071,-0.106677,0.334124,
2,0,0,1,0,68491.5,0.315368,0.315049,-0.198135,103,0.626214,10,-6.24222e-05,-3.70304,-0.583342,-0.101141,0.315136,
2,0,0,1,0,68495.3,0.296391,0.296069,-0.210115,103,0.625399,10,-6.22087e-05,-3.67754,-0.629782,-0.0936832,0.296161,
2,0,0,1,0,68499.1,0.277414,0.277077,-0.220863,103,0.624537,10,-6.1196e-05,-3.65588,-0.738203,-0.0799238,0.277174,
2,0,0,1,0,68502.9,0.258437,0.258133,-0.233489,103,0.623627,10,-6.02712e-05,-3.63173,-1.58676,-0.0371828,0.258236,
2,0,0,1,0,68506.7,0.239461,0.239147,-0.245295,103,0.622671,10,-5.86615e-05,-3.61031,-0.887218,-0.0665,0.239255,
2,0,0,1,0,68510.4,0.220483,0.220198,-0.257449,103,0.62167,10,-5.66898e-05,-3.58931,-0.794877,-0.0742253,0.220311,
2,0,0,0,0,68514.2,0.201506,0.201212,-0.27049,103,0.62062,10,-5.44258e-05,-3.56785,-0.514943,-0.114576,0.201331,
2,0,0,1,0,68518,0.182529,0.18223,-0.28826,103,0.619512,10,-5.25297e-05,-3.54022,-0.42463,-0.138945,0.182357,
2,0,0,0,0,68521.8,0.163552,0.16325,-0.317114,103,0.618321,10,-5.17688e-05,-3.49878,-0.390538,-0.151074,0.163389,
2,0,0,1,0,68525.6,0.144575,0.144264,-0.391219,103,0.616955,10,-5.6439e-05,-3.40758,-0.128904,-0.457704,0.144436,
2,0,0,0,0,68529.4,0.125598,0.125283,-0.577787,103,0.615078,10,-7.23868e-05,-3.23823,-0.146986,-0.401398,0.125537,
2,0,0,1,0,68533.2,0.10662,0.106324,-0.649462,103,0.612639,10,-6.90531e-05,-3.18745,-2.09774,-0.0281255,0.106609,
2,0,0,1,0,68537,0.0876433,0.0873117,-0.637171,103,0.61013,10,-5.56324e-05,-3.19574,0.966614,0.0610378,0.0875921,
2,0,0,1,0,68540.8,0.0686664,0.0683115,-0.604408,103,0.607718,10,-4.1288e-05,-3.21867,0.744419,0.0792565,0.0685775,
2,0,0,1,0,68544.6,0.0496895,0.0493696,-0.564265,103,0.605441,10,-2.78575e-05,-3.24852,0.643974,0.0916186,0.0496178,
2,0,0,1,0,68548.4,0.0307126,0.030398,-0.519671,103,0.603324,10,-1.5797e-05,-3.28427,0.544258,0.108405,0.0306267,
2,0,0,1,0,68552.2,0.0117356,0.0114264,-0.492026,103,0.601353,10,-5.6221e-06,-3.30801,1.45346,0.0405928,0.0116429,
2,0,0,1,0,68554.5,0.000274105,-0.000101048,-0.495062,103,0.600189,10,5.00248e-08,-3.30534, , ,0.00011678,