Folder: Figs_alphaMnO2_OER_Tafel_sleope/Figure_codes/Fig_S7

Note: README.md
# Figs_alphaMnO2_OER_Tafel_sleope
Figures and analyses of "A Non-Rate-Determining Redox Process Dictates the Oxygen Evolution Tafel Slope of MnO2"

File: 20230112_2-4_006_alpha-MnO2_CV-sweeped_superfine_m.TXT
2theta,intensity,,,,
5,492.083,Sample,alpha-MnO2_on_FTO,,
5.04,492.917,Comments,meas_very_fine,,
5.08,476.25,Filename,C:\data\BCRT\Yatsuzuka\20230112_2-4_XRD_alphaMnO2\20230112_2-4_006_alpha-MnO2_CV-sweeped_superfine.raw,,
5.12,470.833,Goniometer,Ultima+,theta-theta,goniometer
5.16,466.667,Attachment,Standard,sample,holder
5.2,451.25,Monochromater,Fixed,Monochromator,
5.24,449.583,ScanningMode,2Theta/Theta,,
5.28,445.417,ScanningType,Continuos,Scanning,
5.32,442.917,X-Ray,40kV/40mA,,
5.36,434.167,DivSlit,1,deg.,
5.4,431.667,DivH.L.Slit,10mm,,
5.44,428.75,SctSlit,1,deg.,
5.48,425.417,RecSlit,0.6mm,,
5.52,428.75,Monochro,RS,No,Use
5.56,422.083,Start,5,,
5.6,407.5,Stop,50,,
5.64,441.25,Step,0.04,,
5.68,397.5,Speed,1,,
5.72,402.917,Offset,0,,
5.76,403.75,TempUnit,Celsius,,
5.8,396.667,StartTime,2023/01/12,15:46:45,
5.84,386.667,StartTemp,0,,
5.88,374.167,StopTime,2023/01/12,16:31:57,
5.92,393.75,StopTemp,0,,
5.96,379.583,,,,
6.12,362.5,,,,
6.28,356.667,,,,
6.44,330.833,,,,
6.6,300.417,,,,
6.76,291.25,,,,
6.92,299.167,,,,
7.08,276.25,,,,
7.24,295,,,,
7.4,266.25,,,,
7.56,265,,,,
7.72,266.667,,,,
7.88,247.917,,,,
8.04,227.083,,,,
8.2,230.417,,,,
8.36,241.667,,,,
8.52,227.5,,,,
8.68,212.917,,,,
8.84,210.833,,,,
9,210.833,,,,
9.16,205,,,,
9.32,214.167,,,,
9.48,187.917,,,,
9.64,189.583,,,,
9.8,194.167,,,,
9.96,198.75,,,,
10.12,191.667,,,,
10.28,188.333,,,,
10.44,190,,,,
10.6,185.417,,,,
10.76,182.917,,,,
10.92,203.333,,,,
11.08,176.667,,,,
11.24,197.917,,,,
11.4,179.583,,,,
11.56,194.167,,,,
11.72,197.083,,,,
11.88,223.75,,,,
12.04,231.25,,,,
12.2,257.917,,,,
12.36,250.417,,,,
12.52,267.917,,,,
12.68,255.417,,,,
12.84,232.083,,,,
13,224.583,,,,
13.16,228.333,,,,
13.32,198.333,,,,
13.48,182.5,,,,
13.64,176.667,,,,
13.8,162.5,,,,
13.96,171.667,,,,
14.12,175.417,,,,
14.28,170.417,,,,
14.44,172.5,,,,
14.6,156.25,,,,
14.76,162.083,,,,
14.92,165,,,,
15.08,178.75,,,,
15.24,172.5,,,,
15.4,171.667,,,,
15.56,168.75,,,,
15.72,174.167,,,,
15.88,189.167,,,,
16.04,171.25,,,,
16.2,193.333,,,,
16.36,183.75,,,,
16.52,182.5,,,,
16.68,184.167,,,,
16.84,207.917,,,,
17,205.417,,,,
17.16,236.667,,,,
17.32,237.917,,,,
17.48,277.083,,,,
17.64,277.917,,,,
17.8,280,,,,
17.96,302.083,,,,
18.12,310.833,,,,
18.28,292.917,,,,
18.44,286.667,,,,
18.6,266.667,,,,
18.76,283.333,,,,
18.92,288.75,,,,
19.08,270.417,,,,
19.24,262.083,,,,
19.4,264.583,,,,
19.56,261.25,,,,
19.72,281.667,,,,
19.88,312.083,,,,
20.04,298.333,,,,
20.2,307.917,,,,
20.36,308.333,,,,
20.52,314.167,,,,
20.68,314.167,,,,
20.84,308.333,,,,
21,342.5,,,,
21.16,338.333,,,,
21.32,349.583,,,,
21.48,373.333,,,,
21.64,352.083,,,,
21.8,389.583,,,,
21.96,369.167,,,,
22.12,370.417,,,,
22.28,381.667,,,,
22.44,366.25,,,,
22.6,376.25,,,,
22.76,378.333,,,,
22.92,386.667,,,,
23.08,399.583,,,,
23.24,380.417,,,,
23.4,395.417,,,,
23.56,406.667,,,,
23.72,391.667,,,,
23.88,405,,,,
24.04,388.333,,,,
24.2,409.583,,,,
24.36,411.25,,,,
24.52,431.667,,,,
24.68,441.25,,,,
24.84,425.833,,,,
25,434.167,,,,
25.16,423.75,,,,
25.32,425.417,,,,
25.48,451.667,,,,
25.64,451.667,,,,
25.8,448.75,,,,
25.96,467.5,,,,
26.12,496.25,,,,
26.28,600.417,,,,
26.44,872.5,,,,
26.6,1053.75,,,,
26.76,694.167,,,,
26.92,497.5,,,,
27.08,466.667,,,,
27.24,417.5,,,,
27.4,426.25,,,,
27.56,400,,,,
27.72,427.083,,,,
27.88,400.833,,,,
28.04,419.167,,,,
28.2,420.417,,,,
28.36,421.667,,,,
28.52,428.333,,,,
28.68,427.083,,,,
28.84,425,,,,
29,434.167,,,,
29.16,340.417,,,,
29.32,357.083,,,,
29.48,344.167,,,,
29.64,340.417,,,,
29.8,323.75,,,,
29.96,335.833,,,,
30.12,310,,,,
30.28,294.167,,,,
30.44,306.25,,,,
30.6,302.917,,,,
30.76,300.417,,,,
30.92,318.333,,,,
31.08,387.083,,,,
31.24,1054.58,,,,
31.4,959.167,,,,
31.56,604.583,,,,
31.72,492.5,,,,
31.88,422.917,,,,
32.04,368.333,,,,
32.2,364.167,,,,
32.36,351.667,,,,
32.52,329.167,,,,
32.68,316.667,,,,
32.84,314.167,,,,
33,313.333,,,,
33.16,340.417,,,,
33.32,381.667,,,,
33.48,382.083,,,,
33.64,487.083,,,,
33.8,548.333,,,,
33.96,486.25,,,,
34.12,377.5,,,,
34.28,320.417,,,,
34.44,312.917,,,,
34.6,275.417,,,,
34.76,271.25,,,,
34.92,249.167,,,,
35.08,268.75,,,,
35.24,238.333,,,,
35.4,245.833,,,,
35.56,244.583,,,,
35.72,245.833,,,,
35.88,238.75,,,,
36.04,233.333,,,,
36.2,246.25,,,,
36.36,225.417,,,,
36.52,248.75,,,,
36.68,230.417,,,,
36.84,242.083,,,,
37,267.917,,,,
37.16,289.167,,,,
37.32,337.083,,,,
37.48,358.75,,,,
37.64,395.833,,,,
37.8,509.583,,,,
37.96,1276.25,,,,
38.12,851.25,,,,
38.28,375.417,,,,
38.44,270,,,,
38.6,234.167,,,,
38.76,201.667,,,,
38.92,218.333,,,,
39.08,214.167,,,,
39.24,212.5,,,,
39.4,187.917,,,,
39.56,211.25,,,,
39.72,187.917,,,,
39.88,220,,,,
40.04,202.083,,,,
40.2,208.333,,,,
40.36,210.417,,,,
40.52,207.083,,,,
40.68,224.583,,,,
40.84,213.333,,,,
41,218.333,,,,
41.16,205.417,,,,
41.32,219.167,,,,
41.48,214.167,,,,
41.64,218.333,,,,
41.8,228.75,,,,
41.96,228.333,,,,
42.12,234.167,,,,
42.28,227.917,,,,
42.44,220.833,,,,
42.6,217.083,,,,
42.76,230.417,,,,
42.92,209.583,,,,
43.08,205,,,,
43.24,195,,,,
43.4,216.25,,,,
43.56,199.583,,,,
43.72,214.583,,,,
43.88,187.917,,,,
44.04,201.25,,,,
44.2,205,,,,
44.36,191.667,,,,
44.52,214.167,,,,
44.68,207.083,,,,
44.84,204.583,,,,
45,214.583,,,,
45.16,184.167,,,,
45.32,215.417,,,,
45.48,213.75,,,,
45.64,218.333,,,,
45.8,217.083,,,,
45.96,205,,,,
46.12,202.5,,,,
46.28,221.25,,,,
46.44,212.5,,,,
46.6,197.083,,,,
46.76,203.333,,,,
46.92,224.583,,,,
47.08,211.667,,,,
47.24,201.25,,,,
47.4,217.083,,,,
47.56,205,,,,
47.72,213.75,,,,
47.88,192.083,,,,
48.04,198.75,,,,
48.2,210,,,,
48.36,213.333,,,,
48.52,222.083,,,,
48.68,205.833,,,,
48.84,228.75,,,,
49,214.167,,,,
49.16,222.5,,,,
49.32,225.417,,,,
49.48,214.167,,,,
49.64,225.833,,,,
49.8,242.5,,,,
49.96,243.333,,,,
50,233.75,,,,

File: 20230224_2-6_XRD_afterCV60scans.TXT
2theta,intensity,,,,
5,513.75,Sample,alpha-MnO2_on_FTO,,
5.04,539.167,Comments,meas_very_fine,,
5.08,492.5,Filename,C:\data\BCRT\Yatsuzuka\20230224_2-6_XRD_afterCV60scans\20230224_2-6_XRD_afterCV60scans.raw,,
5.12,492.083,Goniometer,Ultima+,theta-theta,goniometer
5.16,512.5,Attachment,Standard,sample,holder
5.2,507.917,Monochromater,Fixed,Monochromator,
5.24,461.667,ScanningMode,2Theta/Theta,,
5.28,471.667,ScanningType,Continuos,Scanning,
5.32,475,X-Ray,40kV/40mA,,
5.36,472.917,DivSlit,1,deg.,
5.4,428.333,DivH.L.Slit,10mm,,
5.44,443.75,SctSlit,1,deg.,
5.48,443.75,RecSlit,0.6mm,,
5.52,448.75,Monochro,RS,No,Use
5.56,408.333,Start,5,,
5.6,413.333,Stop,50,,
5.64,420.417,Step,0.04,,
5.68,410,Speed,1,,
5.72,423.75,Offset,0,,
5.76,392.083,TempUnit,Celsius,,
5.8,390,StartTime,2023/02/24,14:43:02,
5.84,385.417,StartTemp,0,,
5.88,403.75,StopTime,2023/02/24,15:28:13,
5.92,368.333,StopTemp,0,,
5.96,390,,,,
6.12,375.833,,,,
6.28,352.917,,,,
6.44,368.333,,,,
6.6,321.25,,,,
6.76,301.25,,,,
6.92,324.167,,,,
7.08,280,,,,
7.24,283.333,,,,
7.4,266.667,,,,
7.56,266.667,,,,
7.72,252.083,,,,
7.88,272.083,,,,
8.04,236.25,,,,
8.2,247.5,,,,
8.36,250.833,,,,
8.52,208.75,,,,
8.68,226.25,,,,
8.84,222.917,,,,
9,217.5,,,,
9.16,230,,,,
9.32,212.917,,,,
9.48,206.25,,,,
9.64,186.25,,,,
9.8,202.917,,,,
9.96,199.167,,,,
10.12,177.917,,,,
10.28,184.167,,,,
10.44,178.75,,,,
10.6,193.333,,,,
10.76,187.917,,,,
10.92,191.667,,,,
11.08,192.917,,,,
11.24,175,,,,
11.4,192.083,,,,
11.56,228.333,,,,
11.72,223.333,,,,
11.88,225.417,,,,
12.04,267.917,,,,
12.2,293.75,,,,
12.36,295.417,,,,
12.52,302.5,,,,
12.68,301.667,,,,
12.84,279.583,,,,
13,250.417,,,,
13.16,227.917,,,,
13.32,211.667,,,,
13.48,200,,,,
13.64,178.333,,,,
13.8,172.917,,,,
13.96,174.167,,,,
14.12,164.583,,,,
14.28,172.917,,,,
14.44,160.833,,,,
14.6,159.583,,,,
14.76,160.417,,,,
14.92,158.333,,,,
15.08,161.25,,,,
15.24,166.667,,,,
15.4,161.25,,,,
15.56,161.25,,,,
15.72,155,,,,
15.88,169.583,,,,
16.04,170,,,,
16.2,169.583,,,,
16.36,179.167,,,,
16.52,197.917,,,,
16.68,196.667,,,,
16.84,192.083,,,,
17,222.5,,,,
17.16,232.5,,,,
17.32,255.833,,,,
17.48,295.833,,,,
17.64,303.75,,,,
17.8,315.417,,,,
17.96,341.25,,,,
18.12,333.75,,,,
18.28,320,,,,
18.44,319.583,,,,
18.6,277.917,,,,
18.76,282.5,,,,
18.92,278.75,,,,
19.08,259.167,,,,
19.24,255,,,,
19.4,262.917,,,,
19.56,265.833,,,,
19.72,267.083,,,,
19.88,272.917,,,,
20.04,270.417,,,,
20.2,285.833,,,,
20.36,291.25,,,,
20.52,262.5,,,,
20.68,286.25,,,,
20.84,281.25,,,,
21,299.583,,,,
21.16,312.5,,,,
21.32,312.083,,,,
21.48,327.083,,,,
21.64,320.833,,,,
21.8,340,,,,
21.96,347.5,,,,
22.12,337.083,,,,
22.28,358.333,,,,
22.44,337.083,,,,
22.6,352.917,,,,
22.76,376.25,,,,
22.92,344.583,,,,
23.08,350.833,,,,
23.24,327.083,,,,
23.4,359.583,,,,
23.56,374.167,,,,
23.72,381.25,,,,
23.88,357.917,,,,
24.04,372.5,,,,
24.2,383.333,,,,
24.36,432.083,,,,
24.52,416.25,,,,
24.68,431.667,,,,
24.84,412.083,,,,
25,394.167,,,,
25.16,400.417,,,,
25.32,402.083,,,,
25.48,395.417,,,,
25.64,397.083,,,,
25.8,430.833,,,,
25.96,446.667,,,,
26.12,465.417,,,,
26.28,550.417,,,,
26.44,868.333,,,,
26.6,1086.67,,,,
26.76,632.083,,,,
26.92,510.417,,,,
27.08,438.75,,,,
27.24,420.833,,,,
27.4,393.75,,,,
27.56,403.333,,,,
27.72,406.667,,,,
27.88,411.667,,,,
28.04,438.333,,,,
28.2,427.083,,,,
28.36,472.5,,,,
28.52,464.167,,,,
28.68,479.583,,,,
28.84,459.583,,,,
29,438.75,,,,
29.16,425.417,,,,
29.32,371.667,,,,
29.48,361.667,,,,
29.64,300,,,,
29.8,310,,,,
29.96,275.417,,,,
30.12,280,,,,
30.28,279.583,,,,
30.44,265,,,,
30.6,278.75,,,,
30.76,269.583,,,,
30.92,284.167,,,,
31.08,335.417,,,,
31.24,829.583,,,,
31.4,753.333,,,,
31.56,491.25,,,,
31.72,402.083,,,,
31.88,388.75,,,,
32.04,330.417,,,,
32.2,319.167,,,,
32.36,324.583,,,,
32.52,282.917,,,,
32.68,300.417,,,,
32.84,313.75,,,,
33,312.5,,,,
33.16,290,,,,
33.32,335,,,,
33.48,370.833,,,,
33.64,441.667,,,,
33.8,561.25,,,,
33.96,493.333,,,,
34.12,355,,,,
34.28,312.083,,,,
34.44,282.5,,,,
34.6,252.083,,,,
34.76,233.75,,,,
34.92,228.75,,,,
35.08,221.667,,,,
35.24,243.75,,,,
35.4,230,,,,
35.56,246.667,,,,
35.72,249.167,,,,
35.88,237.5,,,,
36.04,214.583,,,,
36.2,235,,,,
36.36,234.167,,,,
36.52,237.083,,,,
36.68,267.083,,,,
36.84,261.25,,,,
37,294.583,,,,
37.16,307.083,,,,
37.32,333.333,,,,
37.48,378.333,,,,
37.64,429.583,,,,
37.8,816.25,,,,
37.96,3397.92,,,,
38.12,2328.33,,,,
38.28,542.917,,,,
38.44,320.833,,,,
38.6,255.417,,,,
38.76,232.5,,,,
38.92,210,,,,
39.08,214.583,,,,
39.24,185,,,,
39.4,189.583,,,,
39.56,187.083,,,,
39.72,195,,,,
39.88,195.833,,,,
40.04,190.417,,,,
40.2,208.333,,,,
40.36,212.083,,,,
40.52,215,,,,
40.68,218.75,,,,
40.84,202.083,,,,
41,199.583,,,,
41.16,227.917,,,,
41.32,197.083,,,,
41.48,219.583,,,,
41.64,222.5,,,,
41.8,234.167,,,,
41.96,230.833,,,,
42.12,217.083,,,,
42.28,233.333,,,,
42.44,205,,,,
42.6,211.25,,,,
42.76,217.917,,,,
42.92,205.417,,,,
43.08,197.917,,,,
43.24,208.75,,,,
43.4,205.833,,,,
43.56,197.083,,,,
43.72,183.75,,,,
43.88,189.583,,,,
44.04,195.833,,,,
44.2,172.083,,,,
44.36,188.333,,,,
44.52,208.333,,,,
44.68,202.5,,,,
44.84,192.083,,,,
45,204.583,,,,
45.16,185.833,,,,
45.32,205.833,,,,
45.48,203.333,,,,
45.64,213.75,,,,
45.8,205,,,,
45.96,207.083,,,,
46.12,211.25,,,,
46.28,194.583,,,,
46.44,207.917,,,,
46.6,205,,,,
46.76,202.5,,,,
46.92,196.667,,,,
47.08,207.917,,,,
47.24,195.417,,,,
47.4,188.75,,,,
47.56,180.833,,,,
47.72,185.417,,,,
47.88,203.75,,,,
48.04,188.333,,,,
48.2,192.917,,,,
48.36,181.25,,,,
48.52,185.417,,,,
48.68,202.5,,,,
48.84,208.333,,,,
49,195,,,,
49.16,211.25,,,,
49.32,213.333,,,,
49.48,206.667,,,,
49.64,242.917,,,,
49.8,230.833,,,,
49.96,232.083,,,,
50,220,,,,