Folder: Figs_alphaMnO2_OER_Tafel_sleope/Figure_codes/Fig_S3_S4 (part 8)

File: 20221101_1-115_003_TrumpetPlot_ParaChange_from10_every3_04_CV_C01_16.csv
mode,ox/red,error,control changes,counter inc.,time/s,control/V,Ewe/V,<I>/mA,cycle number,(Q-Qo)/C,I Range,P/W,log(|I|),Tafel slope mV/dec,alpha_eff,dI/d(E-IR),E-IR/V,
2,0,0,1,0,32582.1,2.44065e-05,-0.00042076,-0.384336,17,0.0000000E+000,10,1.61713e-07,-3.41529, , , ,-0.00042076,
2,1,0,1,0,32582.8,0.00729063,0.00696815,0.365586,17,0.000195487,10,2.54746e-06,-3.43701,0.0631851,0.933765,13.1793,0.00696815,
2,1,0,1,0,32583.6,0.0147814,0.0144864,0.436595,17,0.000511705,10,6.3247e-06,-3.35992,0.121308,0.486366,8.27497,0.0144864,
2,1,0,1,0,32584.3,0.0222725,0.021975,0.492304,17,0.000873468,10,1.08184e-05,-3.30777,0.1538,0.383616,7.343,0.021975,
2,1,0,1,0,32585.1,0.0297635,0.0294729,0.543425,17,0.00127472,10,1.60163e-05,-3.26486,0.182299,0.323644,6.8696,0.0294729,
2,1,0,1,0,32585.8,0.0372544,0.0369278,0.593595,17,0.00171463,10,2.19202e-05,-3.22651,0.212182,0.278064,6.45379,0.0369278,
2,1,0,1,0,32586.6,0.0447458,0.0443987,0.646904,17,0.00219353,10,2.87217e-05,-3.18916,0.2166,0.272391,6.86425,0.0443987,
2,1,0,1,0,32587.3,0.0522363,0.0518795,0.693158,17,0.00270931,10,3.59607e-05,-3.15917,0.228223,0.258519,6.98483,0.0518795,
2,1,0,1,0,32588.1,0.0597282,0.0594412,0.737453,17,0.0032589,10,4.38351e-05,-3.13227,0.336014,0.175588,5.03899,0.0594412,
2,1,0,1,0,32588.8,0.0672182,0.0669246,0.775562,17,0.00383902,10,5.19042e-05,-3.11038,0.404848,0.145734,4.39608,0.0669246,
2,1,0,1,0,32589.6,0.0747092,0.0743994,0.807299,17,0.00444518,10,6.00626e-05,-3.09297,0.518927,0.113696,3.57816,0.0743994,
2,1,0,1,0,32590.3,0.0822001,0.0818785,0.8314,17,0.00507313,10,6.80738e-05,-3.08019,0.540992,0.109059,3.54529,0.0818785,
2,1,0,1,0,32591.1,0.0896911,0.0893978,0.868102,17,0.00572392,10,7.76064e-05,-3.06143,0.31709,0.186067,6.33261,0.0893978,
2,1,0,1,0,32591.8,0.097182,0.0968334,0.927135,17,0.00641018,10,8.97776e-05,-3.03286,0.193988,0.304143,11.0094,0.0968334,
2,1,0,1,0,32592.6,0.104673,0.104363,1.01556,17,0.00715036,10,0.000105987,-2.99329,0.196555,0.30017,11.8635,0.104363,
2,1,0,1,0,32593.3,0.112164,0.111834,1.09116,17,0.00795435,10,0.000122028,-2.96211,0.296,0.199324,8.49082,0.111834,
2,1,0,1,0,32594.1,0.119655,0.119324,1.14597,17,0.00880864,10,0.000136741,-2.94083,0.489149,0.120618,5.3931,0.119324,
2,1,0,1,0,32594.8,0.127146,0.126769,1.17932,17,0.00969626,10,0.000149501,-2.92837,0.639678,0.092234,4.25925,0.126769,
2,1,0,1,0,32595.6,0.134637,0.134351,1.19283,17,0.0106047,10,0.000160258,-2.92342,-0.600287,-0.0982863,-4.573,0.134351,
2,1,0,1,0,32596.3,0.142127,0.141819,1.09838,17,0.0114861,10,0.000155772,-2.95925,-0.120884,-0.488073,-20.8017,0.141819,
2,1,0,1,0,32597.1,0.149619,0.149285,0.887227,17,0.0122463,10,0.00013245,-3.05197,-0.0705513,-0.836271,-28.9894,0.149285,
2,1,0,1,0,32597.8,0.157109,0.156811,0.711589,17,0.0128527,10,0.000111585,-3.14777,-0.0955717,-0.617338,-17.2031,0.156811,
2,1,0,1,0,32598.6,0.164601,0.164279,0.624287,17,0.0133626,10,0.000102557,-3.20462,-0.179526,-0.328643,-8.02971,0.164279,
2,1,0,1,0,32599.3,0.172091,0.171739,0.579478,17,0.013826,10,9.95192e-05,-3.23696,-0.339791,-0.173636,-3.95688,0.171739,
2,1,0,1,0,32600.1,0.179582,0.179244,0.556673,17,0.0142655,10,9.97802e-05,-3.2544,-0.567673,-0.103933,-2.26926,0.179244,
2,1,0,1,0,32600.8,0.187074,0.186785,0.545143,17,0.0146916,10,0.000101824,-3.26349,-1.29592,-0.0455274,-0.967702,0.186785,
2,1,0,1,0,32601.6,0.194564,0.194249,0.536632,17,0.0151094,10,0.00010424,-3.27032,-1.19446,-0.0493946,-1.03455,0.194249,
2,1,0,1,0,32602.3,0.202056,0.201748,0.529335,17,0.0155209,10,0.000106793,-3.27627,-1.0911,-0.0540739,-1.11391,0.201748,
2,1,0,1,0,32603.1,0.209546,0.209248,0.522692,17,0.015928,10,0.000109372,-3.28175,-0.94845,-0.0622067,-1.27019,0.209248,
2,1,0,1,0,32603.8,0.217038,0.216698,0.517531,17,0.0163307,10,0.000112148,-3.28606,-2.6933,-0.0219062,-0.443066,0.216698,
2,1,0,1,0,32604.6,0.224528,0.22423,0.514733,17,0.0167301,10,0.000115418,-3.28842,-40.3047,-0.00146385,-0.0293171,0.22423,
2,1,0,1,0,32605.3,0.232019,0.231691,0.510066,17,0.017126,10,0.000118177,-3.29237,-2.37656,-0.0248258,-0.493519,0.231691,
2,1,0,1,0,32606.1,0.23951,0.239195,0.505207,17,0.0175191,10,0.000120843,-3.29653,-10.038,-0.00587764,-0.116045,0.239195,
2,1,0,1,0,32606.8,0.247001,0.246717,0.501783,17,0.0179094,10,0.000123798,-3.29948,-1.07087,-0.0550955,-1.07529,0.2467165,
2,1,0,1,0,32607.5,0.254492,0.254174,0.498408,17,0.0182968,10,0.000126683,-3.30241,-2.74881,-0.0214638,-0.417678,0.254174,
2,1,0,1,0,32608.3,0.261983,0.261682,0.493885,17,0.0186811,10,0.000129241,-3.30637,-2.36755,-0.0249203,-0.480334,0.261682,
2,1,0,1,0,32609,0.269474,0.269134,0.490478,17,0.0190627,10,0.000132004,-3.30938,-12.5681,-0.00469442,-0.0896713,0.269134,
2,1,0,1,0,32609.8,0.276965,0.276661,0.485037,17,0.0194412,10,0.000134191,-3.31423,-3.18111,-0.018547,-0.351785,0.276661,
2,1,0,1,0,32610.5,0.284456,0.284131,0.483055,17,0.0198165,10,0.000137251,-3.316,-4.79435,-0.0123062,-0.231686,0.284131,
2,1,0,1,0,32611.3,0.291947,0.291618,0.477431,17,0.0201885,10,0.000139228,-3.32109,-2.08563,-0.0282889,-0.52735,0.291618,
2,1,0,1,0,32612,0.299437,0.299149,0.471735,17,0.0205576,10,0.000141119,-3.3263,-0.00234467,-25.1635,-215.646,0.299149,
2,0,0,1,0,32612.7,0.293745,0.293355,-0.0777778,17,0.0205717,10,-2.28165e-05,-4.10914,-0.0164644,-3.58348,9.99905,0.293355,
2,0,0,1,0,32613.5,0.286253,0.285909,-0.131356,17,0.0204789,10,-3.7556e-05,-3.88155,-0.0585033,-1.00849,5.1673,0.285909,
2,0,0,1,0,32614.2,0.278763,0.278488,-0.165309,17,0.0203537,10,-4.60366e-05,-3.7817,-0.0995046,-0.592937,3.83083,0.2784884,
2,0,0,1,0,32615,0.271272,0.270983,-0.195229,17,0.0202053,10,-5.29037e-05,-3.70946,-0.115621,-0.510287,3.86765,0.270983,
2,0,0,1,0,32615.7,0.263781,0.263482,-0.218526,17,0.0200373,10,-5.75777e-05,-3.6605,-0.189926,-0.310647,2.64389,0.263482,
2,0,0,1,0,32616.5,0.25629,0.255966,-0.23799,17,0.0198533,10,-6.09175e-05,-3.62344,-0.250254,-0.23576,2.18478,0.255966,
2,0,0,1,0,32617.2,0.248799,0.24849,-0.255961,17,0.019655,10,-6.36036e-05,-3.59183,-0.278064,-0.212182,2.12134,0.24849,
2,0,0,1,0,32618,0.241308,0.241005,-0.271912,17,0.0194438,10,-6.55322e-05,-3.56557,-0.321537,-0.183494,1.95566,0.241005,
2,0,0,1,0,32618.7,0.233817,0.233538,-0.290268,17,0.0192206,10,-6.77886e-05,-3.5372,-0.302103,-0.195298,2.20148,0.233538,
2,0,0,1,0,32619.5,0.226326,0.225995,-0.301894,17,0.0189859,10,-6.82265e-05,-3.52015,-0.460013,-0.128257,1.51218,0.225995,
2,0,0,1,0,32620.2,0.218835,0.218494,-0.318481,17,0.01874,10,-6.9586e-05,-3.49692,-0.463557,-0.127277,1.58121,0.2184938,
2,0,0,1,0,32621,0.211344,0.211027,-0.33093,17,0.018483,10,-6.98354e-05,-3.48026,-0.363053,-0.162511,2.10665,0.211027,
2,0,0,1,0,32621.7,0.203854,0.203522,-0.348258,17,0.0182144,10,-7.08779e-05,-3.4581,-0.372275,-0.158485,2.15884,0.203522,
2,0,0,1,0,32622.5,0.196362,0.196043,-0.363992,17,0.0179345,10,-7.13581e-05,-3.43891,-0.394251,-0.149651,2.12301,0.196043,
2,0,0,1,0,32623.2,0.188872,0.188515,-0.381882,17,0.0176418,10,-7.19904e-05,-3.41807,-0.247913,-0.237987,3.54377,0.188515,
2,0,0,1,0,32624,0.18138,0.181041,-0.403252,17,0.0173353,10,-7.30053e-05,-3.39442,-0.31212,-0.18903,2.97109,0.1810413,
2,0,0,1,0,32624.7,0.17389,0.173579,-0.426206,17,0.0170125,10,-7.39806e-05,-3.37038,-0.278572,-0.211794,3.51272,0.173579,
2,0,0,1,0,32625.5,0.166398,0.166062,-0.457295,17,0.016669,10,-7.59392e-05,-3.3398,-0.231956,-0.254358,4.5399,0.166062,
2,0,0,1,0,32626.2,0.158907,0.158561,-0.499941,17,0.0162977,10,-7.92711e-05,-3.30108,-0.154331,-0.382295,7.47873,0.158561,
2,0,0,1,0,32627,0.151417,0.15112,-0.571459,17,0.015884,10,-8.63588e-05,-3.24301,-0.108388,-0.544339,12.1799,0.15112,
2,0,0,1,0,32627.7,0.143925,0.143583,-0.690292,17,0.0154005,10,-9.91139e-05,-3.16097,-0.0734698,-0.803051,21.7048,0.143583,
2,0,0,1,0,32628.5,0.136435,0.136084,-0.869243,17,0.0148045,10,-0.00011829,-3.06086,-0.0804018,-0.733814,24.7657,0.136084,
2,0,0,1,0,32629.2,0.128943,0.128602,-1.04724,17,0.0140712,10,-0.000134677,-2.97995,-0.115454,-0.511025,20.7738,0.128602,
2,0,0,1,0,32630,0.121453,0.121115,-1.17067,17,0.0132215,10,-0.000141785,-2.93156,-0.251829,-0.234286,10.678,0.121115,
2,0,0,1,0,32630.7,0.113962,0.113631,-1.21067,17,0.0123083,10,-0.00013757,-2.91697,-73.2847,-0.000805079,0.0381335,0.113631,
2,0,0,1,0,32631.5,0.106471,0.106152,-1.19725,17,0.0113874,10,-0.00012709,-2.92182,0.677194,0.0871243,-4.07975,0.106152,
2,0,0,1,0,32632.2,0.0989799,0.0986244,-1.16179,17,0.0104887,10,-0.000114581,-2.93487,0.577682,0.102132,-4.62245,0.0986244,
2,0,0,1,0,32633,0.0914889,0.0911549,-1.12348,17,0.00962038,10,-0.00010241,-2.94944,0.505938,0.116615,-5.10072,0.0911549,
2,0,0,1,0,32633.7,0.083998,0.0836992,-1.08425,17,0.00878091,10,-9.07512e-05,-2.96487,0.459737,0.128334,-5.42143,0.0836992,
2,0,0,1,0,32634.5,0.076507,0.0761713,-1.04982,17,0.00796824,10,-7.99664e-05,-2.97888,0.544021,0.108452,-4.43475,0.0761713,
2,0,0,1,0,32635.2,0.0690161,0.0687283,-1.01374,17,0.00718122,10,-6.96729e-05,-2.99407,0.542257,0.108804,-4.32135,0.0687283,
2,0,0,1,0,32636,0.0615251,0.0611995,-0.983107,17,0.0064178,10,-6.01656e-05,-3.0074,0.54384,0.108488,-4.17245,0.0611995,
2,0,0,1,0,32636.7,0.0540342,0.0536992,-0.953161,17,0.00567865,10,-5.1184e-05,-3.02083,0.567971,0.103879,-3.85443,0.0536992,
2,0,0,1,0,32637.4,0.0465441,0.0462252,-0.918158,17,0.00496432,10,-4.2442e-05,-3.03708,0.507449,0.116268,-4.16465,0.0462252,
2,0,0,1,0,32638.2,0.0390523,0.0387093,-0.885992,17,0.00427583,10,-3.42961e-05,-3.05257,0.404916,0.145709,-5.01492,0.0387093,
2,0,0,1,0,32638.9,0.0315618,0.0312245,-0.848426,17,0.0036139,10,-2.64917e-05,-3.07139,0.382607,0.154205,-5.10051,0.03122448,
2,0,0,1,0,32639.7,0.0240704,0.0237035,-0.814588,17,0.00297699,10,-1.93086e-05,-3.08906,0.449204,0.131343,-4.19483,0.0237035,
2,0,0,1,0,32640.4,0.0165796,0.0162413,-0.792045,17,0.00236148,10,-1.28639e-05,-3.10125,0.76926,0.076697,-2.3748,0.0162413,
2,0,0,1,0,32641.2,0.00908846,0.0087666,-0.776936,17,0.00176064,10,-6.81109e-06,-3.10961,2.48357,0.0237561,-0.721414,0.0087666,
2,0,0,1,0,32641.9,0.00159728,0.00121849,-0.78445,17,0.00116487,10,-9.55845e-07,-3.10543, , , ,0.00121849,
2,0,0,1,0,32642.1,0.000199195,-0.000174534,-0.776037,17,0.00105325,10,1.35445e-07,-3.11012, , , ,-0.000174534,

File: 20221101_1-115_003_TrumpetPlot_ParaChange_from10_every3_05_CV_C01_16.csv
mode,ox/red,error,control changes,counter inc.,time/s,control/V,Ewe/V,<I>/mA,cycle number,(Q-Qo)/C,I Range,P/W,log(|I|),Tafel slope mV/dec,alpha_eff,dI/d(E-IR),E-IR/V,
2,0,0,1,0,32642.1,2.44065e-05,-0.000401673,-0.730338,17,0.0000000E+000,10,2.93357e-07,-3.13648, , , ,-0.000401673,
2,1,0,1,0,32642.5,0.00729063,0.0069798,0.709505,17,0.000158192,10,4.9522e-06,-3.14904,0.0552975,1.06696,29.018,0.006979798,
2,1,0,1,0,32642.8,0.0147802,0.0144597,0.850164,17,0.000460522,10,1.22931e-05,-3.0705,0.13002,0.453777,15.0644,0.0144597,
2,1,0,1,0,32643.2,0.0222725,0.0219323,0.952779,17,0.000806194,10,2.08966e-05,-3.02101,0.172911,0.341215,12.6767,0.0219323,
2,1,0,1,0,32643.6,0.0297644,0.0294002,1.04842,17,0.00118767,10,3.08237e-05,-2.97947,0.205512,0.287088,11.7236,0.0294002,
2,1,0,1,0,32644,0.0372544,0.0369424,1.14107,17,0.00160461,10,4.21538e-05,-2.94269,0.228158,0.258593,11.528,0.0369424,
2,1,0,1,0,32644.3,0.0447449,0.0444566,1.23434,17,0.00205741,10,5.48744e-05,-2.90857,0.224788,0.26247,12.6785,0.04445659,
2,1,0,1,0,32644.7,0.0522363,0.0519393,1.32714,17,0.00254484,10,6.89308e-05,-2.87708,0.258924,0.227866,11.789,0.0519393,
2,1,0,1,0,32645.1,0.0597291,0.0593912,1.40822,17,0.00306463,10,8.3636e-05,-2.85133,0.293113,0.201287,11.0569,0.0593912,
2,1,0,1,0,32645.5,0.0672182,0.0669014,1.48292,17,0.00361315,10,9.92093e-05,-2.82888,0.384464,0.153461,8.85739,0.0669014,
2,1,0,1,0,32645.8,0.0747092,0.0743697,1.54239,17,0.00418688,10,0.000114707,-2.81181,0.539151,0.109431,6.58172,0.0743697,
2,1,0,1,0,32646.2,0.0822001,0.0819092,1.59465,17,0.00478164,10,0.000130617,-2.79733,0.549925,0.107287,6.67997,0.0819092,
2,1,0,1,0,32646.6,0.0896911,0.0893194,1.65339,17,0.00539663,10,0.00014768,-2.78162,0.387384,0.152304,9.85793,0.0893194,
2,1,0,1,0,32647,0.097182,0.0968589,1.7517,17,0.00604075,10,0.000169667,-2.75654,0.21675,0.272203,18.632,0.0968589,
2,1,0,1,0,32647.3,0.104673,0.104388,1.90694,17,0.00673135,10,0.000199062,-2.71966,0.190538,0.309649,22.9943,0.104388,
2,1,0,1,0,32647.7,0.112164,0.111841,2.06489,17,0.00748303,10,0.000230939,-2.6851,0.263536,0.223879,18.0242,0.111841,
2,1,0,1,0,32648.1,0.119655,0.11938,2.18528,17,0.00828794,10,0.000260878,-2.66049,0.484994,0.121651,10.3571,0.11938,
2,1,0,1,0,32648.5,0.127146,0.126778,2.24999,17,0.00912694,10,0.000285251,-2.64782,0.684743,0.0861637,7.56275,0.1267783,
2,1,0,1,0,32648.8,0.134637,0.134324,2.29126,17,0.00998713,10,0.000307772,-2.63992,-4.86362,-0.0121309,-1.08397,0.134324,
2,1,0,1,0,32649.2,0.142128,0.141821,2.19103,17,0.0108415,10,0.000310735,-2.65935,-0.176896,-0.33353,-28.4072,0.141821,
2,1,0,1,0,32649.6,0.149619,0.149295,1.84597,17,0.011611,10,0.000275594,-2.73378,-0.077993,-0.756478,-54.3684,0.149295,
2,1,0,1,0,32650,0.157108,0.156786,1.46159,17,0.0122338,10,0.000229158,-2.83517,-0.07893,-0.747498,-42.695,0.156786,
2,1,0,1,0,32650.3,0.164601,0.164307,1.22976,17,0.0127398,10,0.000202057,-2.91018,-0.12378,-0.476653,-22.9161,0.164307,
2,1,0,1,0,32650.7,0.172092,0.171782,1.1074,17,0.0131827,10,0.000190232,-2.95569,-0.23418,-0.251943,-10.9416,0.171782,
2,1,0,1,0,32651.1,0.179582,0.179247,1.04663,17,0.0135928,10,0.000187605,-2.98021,-0.376958,-0.156516,-6.42606,0.179247,
2,1,0,1,0,32651.5,0.187073,0.186754,1.01392,17,0.0139853,10,0.000189353,-2.994,-1.25164,-0.0471381,-1.86145,0.186754,
2,1,0,1,0,32651.8,0.194564,0.194255,0.994363,17,0.0143672,10,0.00019316,-3.00246,-0.859674,-0.0686307,-2.65521,0.194255,
2,1,0,1,0,32652.2,0.202057,0.201761,0.974217,17,0.0147418,10,0.000196559,-3.01134,-1.2058,-0.0489304,-1.85638,0.201761,
2,1,0,1,0,32652.6,0.209546,0.209258,0.959807,17,0.0151111,10,0.000200847,-3.01782,-0.861896,-0.0684538,-2.56825,0.2092578,
2,1,0,1,0,32653,0.217037,0.216745,0.949547,17,0.0154759,10,0.00020581,-3.02248,-1.63768,-0.0360265,-1.33649,0.216745,
2,1,0,1,0,32653.3,0.224528,0.224245,0.942615,17,0.0158373,10,0.000211377,-3.02567,-1.42107,-0.041518,-1.52747,0.2242455,
2,1,0,1,0,32653.7,0.232019,0.231678,0.935308,17,0.0161955,10,0.00021669,-3.02905,-3.73021,-0.0158168,-0.577133,0.2316778,
2,1,0,1,0,32654.1,0.23951,0.239164,0.926667,17,0.0165512,10,0.000221626,-3.03308,-2.86668,-0.0205813,-0.743965,0.239164,
2,1,0,1,0,32654.5,0.247001,0.246676,0.923379,17,0.0169043,10,0.000227775,-3.03462,-1.68217,-0.0350738,-1.25908,0.246676,
2,1,0,1,0,32654.8,0.254492,0.254188,0.915363,17,0.0172549,10,0.000232674,-3.03841,-3.9164,-0.0150648,-0.537688,0.254188,
2,1,0,1,0,32655.2,0.261983,0.261664,0.906247,17,0.017603,10,0.000237132,-3.04275,-1.68893,-0.0349333,-1.23957,0.261664,
2,1,0,1,0,32655.6,0.269474,0.269158,0.899656,17,0.0179484,10,0.00024215,-3.04592,-4.49942,-0.0131128,-0.459911,0.269158,
2,1,0,1,0,32656,0.276965,0.276665,0.892059,17,0.0182912,10,0.000246802,-3.04961,-1.4746,-0.0400108,-1.39455,0.276665,
2,1,0,1,0,32656.3,0.284456,0.284113,0.885982,17,0.0186309,10,0.000251719,-3.05258,-4.04213,-0.0145963,-0.503736,0.284113,
2,1,0,1,0,32656.7,0.291947,0.29165,0.880632,17,0.0189679,10,0.000256836,-3.05521,-0.971374,-0.0607387,-2.08656,0.29165,
2,1,0,1,0,32657.1,0.299436,0.29914,0.866451,17,0.0193026,10,0.00025919,-3.06226,-0.00310557,-18.9981,-357.563,0.29914,
2,0,0,1,0,32657.4,0.293745,0.293404,-0.194823,17,0.0193163,10,-5.71619e-05,-3.71036,-0.0203125,-2.90461,20.8868,0.293404,
2,0,0,1,0,32657.8,0.286254,0.28594,-0.294406,17,0.0192149,10,-8.41824e-05,-3.53105,-0.0721573,-0.817659,9.43714,0.28594,
2,0,0,1,0,32658.2,0.278763,0.278443,-0.36097,17,0.0190839,10,-0.000100509,-3.44253,-0.129006,-0.457342,6.43434,0.278443,
2,0,0,1,0,32658.5,0.271272,0.270978,-0.40868,17,0.0189325,10,-0.000110743,-3.38862,-0.139466,-0.423043,6.74972,0.270978,
2,0,0,1,0,32658.9,0.263781,0.26348,-0.448907,17,0.0187644,10,-0.000118278,-3.34784,-0.22483,-0.26242,4.6009,0.26348,
2,0,0,1,0,32659.3,0.25629,0.255994,-0.48737,17,0.0185823,10,-0.000124764,-3.31214,-0.307738,-0.191721,3.61697,0.255994,
2,0,0,1,0,32659.7,0.248799,0.248455,-0.514383,17,0.0183877,10,-0.000127801,-3.28871,-0.25436,-0.231955,4.66901,0.248455,
2,0,0,1,0,32660,0.241308,0.240989,-0.544887,17,0.0181819,10,-0.000131312,-3.26369,-0.367504,-0.160543,3.41413,0.240989,
2,0,0,1,0,32660.4,0.233817,0.233529,-0.571641,17,0.0179655,10,-0.000133495,-3.24288,-0.335043,-0.176097,3.94257,0.233529,
2,0,0,1,0,32660.8,0.226326,0.226013,-0.59891,17,0.0177389,10,-0.000135361,-3.22264,-0.409771,-0.143983,3.36736,0.226013,
2,0,0,1,0,32661.2,0.218835,0.218484,-0.623158,17,0.0175025,10,-0.00013615,-3.2054,-0.380919,-0.154888,3.77882,0.218484,
2,0,0,1,0,32661.5,0.211344,0.211,-0.648889,17,0.0172568,10,-0.000136916,-3.18783,-0.516021,-0.114336,2.8923,0.211,
2,0,0,1,0,32661.9,0.203855,0.20354,-0.676572,17,0.017001,10,-0.00013771,-3.16969,-0.510993,-0.115461,3.05567,0.20354,
2,0,0,1,0,32662.3,0.196362,0.196029,-0.703481,17,0.0167354,10,-0.000137903,-3.15275,-0.440648,-0.133894,3.6787,0.196029,
2,0,0,1,0,32662.7,0.188871,0.18857,-0.732949,17,0.0164585,10,-0.000138212,-3.13493,-0.293649,-0.20092,5.75557,0.18857,
2,0,0,1,0,32663,0.18138,0.181015,-0.76973,17,0.0161697,10,-0.000139332,-3.11366,-0.323328,-0.182477,5.48813,0.181015,
2,0,0,1,0,32663.4,0.173891,0.17357,-0.811448,17,0.0158668,10,-0.000140843,-3.09074,-0.282109,-0.209139,6.62236,0.17357,
2,0,0,1,0,32663.8,0.166398,0.16609,-0.866263,17,0.0155456,10,-0.000143878,-3.06235,-0.247312,-0.238565,8.09341,0.16609,
2,0,0,1,0,32664.2,0.158906,0.158556,-0.94181,17,0.0152002,10,-0.00014933,-3.02604,-0.165502,-0.356491,13.1523,0.1585564,
2,0,0,1,0,32664.5,0.151417,0.15108,-1.06773,17,0.0148178,10,-0.000161313,-2.97154,-0.118457,-0.498069,20.8517,0.15108,
2,0,0,1,0,32664.9,0.143926,0.143598,-1.28078,17,0.014374,10,-0.000183918,-2.89252,-0.0780114,-0.756299,37.7964,0.143598,
2,0,0,1,0,32665.3,0.136435,0.136087,-1.59393,17,0.0138306,10,-0.000216912,-2.79753,-0.08153,-0.72366,44.9083,0.136087,
2,0,0,1,0,32665.7,0.128942,0.12859,-1.92441,17,0.0131629,10,-0.000247459,-2.7157,-0.110604,-0.533434,39.9244,0.12859,
2,0,0,1,0,32666,0.121453,0.121126,-2.18029,17,0.0123836,10,-0.00026409,-2.66149,-0.199664,-0.295497,25.0674,0.121126,
2,0,0,1,0,32666.4,0.113962,0.113611,-2.30669,17,0.0115316,10,-0.000262065,-2.63701,-0.708941,-0.0832227,7.48373,0.113611,
2,0,0,1,0,32666.8,0.106471,0.106101,-2.30824,17,0.0106555,10,-0.000244905,-2.63672,0.793201,0.0743821,-6.71119,0.1061007,
2,0,0,1,0,32667.2,0.0989799,0.0986553,-2.23681,17,0.00979448,10,-0.000220673,-2.65037,0.467923,0.126089,-11.0126,0.0986553,
2,0,0,1,0,32667.5,0.0914889,0.0911621,-2.14869,17,0.00896631,10,-0.000195879,-2.66783,0.464104,0.127127,-10.651,0.09116213,
2,0,0,1,0,32667.9,0.083998,0.0836304,-2.06949,17,0.00817026,10,-0.000173072,-2.68414,0.451108,0.130789,-10.5638,0.08363042,
2,0,0,1,0,32668.3,0.076507,0.0761644,-2.01141,17,0.007399,10,-0.000153198,-2.6965,0.56367,0.104671,-8.20425,0.0761644,
2,0,0,1,0,32668.7,0.0690161,0.0687104,-1.94549,17,0.00665019,10,-0.000133675,-2.71097,0.567174,0.104025,-7.92678,0.0687104,
2,0,0,1,0,32669,0.0615251,0.0611983,-1.89493,17,0.00592235,10,-0.000115967,-2.72241,0.521776,0.113075,-8.366,0.0611983,
2,0,0,1,0,32669.4,0.0540342,0.0537291,-1.83699,17,0.00521649,10,-9.86998e-05,-2.73589,0.545202,0.108217,-7.75444,0.0537291,
2,0,0,1,0,32669.8,0.0465432,0.0461967,-1.77165,17,0.00453297,10,-8.18445e-05,-2.75162,0.545022,0.108253,-7.48351,0.0461967,
2,0,0,1,0,32670.2,0.0390523,0.038706,-1.7086,17,0.00387405,10,-6.61331e-05,-2.76736,0.387516,0.152252,-10.1265,0.038706,
2,0,0,1,0,32670.5,0.0315626,0.0312186,-1.63552,17,0.00324107,10,-5.10587e-05,-2.78634,0.400423,0.147344,-9.40336,0.0312186,
2,0,0,1,0,32670.9,0.0240704,0.0237324,-1.56745,17,0.00263353,10,-3.71992e-05,-2.80481,0.439835,0.134141,-8.23869,0.0237324,
2,0,0,1,0,32671.3,0.0165785,0.0162397,-1.51608,17,0.00204826,10,-2.46207e-05,-2.81928,0.612319,0.096355,-5.70987,0.01623974,
2,0,0,1,0,32671.6,0.00908845,0.0087572,-1.48066,17,0.00148007,10,-1.29664e-05,-2.82954,0.948903,0.0621771,-3.59131,0.0087572,
2,0,0,1,0,32672,0.0015984,0.0012187,-1.48386,17,0.000921075,10,-1.80838e-06,-2.82861, , , ,0.001218704,
2,0,0,1,0,32672.1,0.000199195,-0.000201564,-1.47216,17,0.00081648,10,2.96733e-07,-2.83205, , , ,-0.000201564,