Folder: Figs_alphaMnO2_OER_Tafel_sleope/Figure_codes/Fig_S3_S4 (part 5)

File: 20221101_1-115_002_TrumpetPlot_ParaChange_12_CV_C01_1.csv
mode,ox/red,error,control changes,counter inc.,time/s,control/V,Ewe/V,<I>/mA,cycle number,(Q-Qo)/C,I Range,P/W,log(|I|),Tafel slope mV/dec,alpha_eff,E-IR/V,
2,1,0,0,0,2441.72,2.44065e-05,-0.000401673,6.93894,2,0.0000000E+000,10,-2.78718e-06,-2.15871, , ,-0.00595282,
2,1,0,1,0,2441.77,0.00929729,0.00901011,10.1399,2,0.000411581,10,9.13618e-05,-1.99397,0.141515,0.416918,0.000898172,
2,1,0,1,0,2441.81,0.0187767,0.0184783,10.6885,2,0.000909569,10,0.000197505,-1.97108,3.89235,0.0151579,0.00992747,
2,1,0,1,0,2441.86,0.0282562,0.0279942,10.6947,2,0.00141661,10,0.00029939,-1.97083,-9.59996,-0.00614586,0.0194384,
2,1,0,1,0,2441.91,0.0377538,0.037466,10.7058,2,0.00192457,10,0.000401104,-1.97038,5.78357,0.0102013,0.0289013,
2,1,0,1,0,2441.96,0.0472514,0.0469288,10.8455,2,0.0024359,10,0.000508967,-1.96475,1.04093,0.0566801,0.0382524,
2,1,0,1,0,2442,0.0567309,0.0564204,11.1805,2,0.00295757,10,0.00063081,-1.95154,0.499376,0.118147,0.047476,
2,1,0,1,0,2442.05,0.0662149,0.0658912,11.8172,2,0.0035018,10,0.000778648,-1.92749,0.300485,0.196349,0.0564374,
2,1,0,1,0,2442.1,0.0756989,0.075375,12.6493,2,0.00408079,10,0.000953441,-1.89793,0.254469,0.231855,0.0652555,
2,1,0,1,0,2442.15,0.0851965,0.0849059,13.7646,2,0.00470772,10,0.0011687,-1.86124,0.235471,0.250562,0.0738942,
2,1,0,1,0,2442.19,0.0946941,0.0943625,14.9948,2,0.00539019,10,0.00141495,-1.82406,0.247138,0.238733,0.0823667,
2,1,0,1,0,2442.24,0.104174,0.103871,16.247,2,0.00613018,10,0.0016876,-1.78923,0.234852,0.251222,0.0908739,
2,1,0,1,0,2442.29,0.113653,0.113347,17.6839,2,0.00693387,10,0.00200442,-1.75242,0.218184,0.270414,0.0992003,
2,1,0,1,0,2442.34,0.123151,0.122871,19.4926,2,0.00781498,10,0.00239508,-1.71013,0.163406,0.361063,0.107277,
2,1,0,1,0,2442.38,0.132639,0.13233,21.9734,2,0.0087951,10,0.00290774,-1.6581,0.126988,0.46461,0.114751,
2,1,0,1,0,2442.43,0.142137,0.14184,25.0519,2,0.00991037,10,0.00355335,-1.60116,0.121213,0.486746,0.121798,
2,1,0,1,0,2442.48,0.151616,0.151339,28.2203,2,0.0111742,10,0.00427083,-1.54944,0.15716,0.375414,0.128763,
2,1,0,1,0,2442.52,0.161096,0.160838,30.7413,2,0.0125762,10,0.00494435,-1.51228,0.299271,0.197146,0.136245,
2,1,0,1,0,2442.57,0.170593,0.170261,31.4357,2,0.0140639,10,0.00535228,-1.50258,-0.745119,-0.079182,0.145113,
2,1,0,1,0,2442.62,0.180091,0.179777,28.0484,2,0.0154964,10,0.00504244,-1.55209,-0.154619,-0.381583,0.157338,
2,1,0,1,0,2442.67,0.18957,0.189316,20.3458,2,0.0166531,10,0.00385179,-1.69152,-0.0902181,-0.653971,0.173039,
2,1,0,1,0,2442.71,0.199059,0.198784,13.2156,2,0.017434,10,0.00262704,-1.87891,-0.0804585,-0.733297,0.188212,
2,1,0,1,0,2442.76,0.208538,0.208238,10.1041,2,0.0179715,10,0.00210405,-1.9955,-0.163105,-0.36173,0.200155,
2,1,0,1,0,2442.81,0.218036,0.21775,9.27002,2,0.0184271,10,0.00201855,-2.03292,-0.447842,-0.131743,0.210334,
2,1,0,1,0,2442.86,0.227534,0.227236,8.92137,2,0.0188586,10,0.00202726,-2.04957,-0.598166,-0.0986349,0.220099,
2,1,0,1,0,2442.9,0.237013,0.236751,8.63697,2,0.0192749,10,0.00204481,-2.06364,-0.678419,-0.086967,0.229842,
2,1,0,1,0,2442.95,0.246493,0.24622,8.42988,2,0.0196793,10,0.00207561,-2.07418,-1.13527,-0.0519701,0.239476,
2,1,0,1,0,2443,0.25599,0.255709,8.21369,2,0.0200745,10,0.00210031,-2.08546,-1.10698,-0.0532984,0.249138,
2,1,0,1,0,2443.05,0.265479,0.265154,8.08024,2,0.0204605,10,0.00214251,-2.09258,-1.25403,-0.0470482,0.25869,
2,1,0,1,0,2443.09,0.274976,0.274707,7.91803,2,0.0208399,10,0.00217514,-2.10138,-1.1809,-0.0499617,0.268373,
2,1,0,1,0,2443.14,0.284456,0.284186,7.77529,2,0.0212117,10,0.00220963,-2.10928,-1.17871,-0.0500546,0.277966,
2,1,0,1,0,2443.19,0.293935,0.293638,7.64986,2,0.0215774,10,0.00224629,-2.11635,-1.03068,-0.0572436,0.287518,
2,1,0,1,0,2443.23,0.29774,0.297486,1.26362,2,0.0218539,10,0.00037591,-2.89838,-0.00320073,-18.4333,0.296475,
2,0,0,1,0,2443.28,0.28826,0.28793,-3.65863,2,0.0217433,10,-0.00105343,-2.43668,-0.0864905,-0.682156,0.290857,
2,0,0,1,0,2443.33,0.278763,0.27842,-4.12954,2,0.0215571,10,-0.00114975,-2.3841,-0.289128,-0.204062,0.281723,
2,0,0,1,0,2443.37,0.269265,0.268997,-4.49362,2,0.0213522,10,-0.00120877,-2.3474,-0.29343,-0.20107,0.272592,
2,0,0,1,0,2443.42,0.259786,0.259495,-4.83915,2,0.0211308,10,-0.00125573,-2.31523,-0.320835,-0.183895,0.263366,
2,0,0,1,0,2443.47,0.250306,0.250007,-5.16537,2,0.0208935,10,-0.00129138,-2.2869,-0.334508,-0.176379,0.25414,
2,0,0,1,0,2443.52,0.240809,0.240515,-5.48245,2,0.0206404,10,-0.00131861,-2.26103,-0.347227,-0.169918,0.244901,
2,0,0,1,0,2443.56,0.23132,0.230967,-5.84678,2,0.0203725,10,-0.00135041,-2.23308,-0.339143,-0.173968,0.235644,
2,0,0,1,0,2443.61,0.221822,0.22153,-6.17029,2,0.0200876,10,-0.0013669,-2.20969,-0.31579,-0.186833,0.226466,
2,0,0,1,0,2443.66,0.212343,0.212022,-6.62051,2,0.0197847,10,-0.00140369,-2.17911,-0.307066,-0.192141,0.217318,
2,0,0,1,0,2443.71,0.202863,0.202549,-7.13911,2,0.0194589,10,-0.00144602,-2.14636,-0.262185,-0.225032,0.208261,
2,0,0,1,0,2443.75,0.193366,0.193075,-7.85238,2,0.0191035,10,-0.0015161,-2.105,-0.19543,-0.301898,0.199356,
2,0,0,1,0,2443.8,0.183868,0.183536,-8.83093,2,0.018708,10,-0.00162079,-2.05399,-0.146341,-0.403169,0.190601,
2,0,0,1,0,2443.85,0.174389,0.174057,-10.2524,2,0.0182568,10,-0.0017845,-1.98918,-0.108281,-0.544879,0.182259,
2,0,0,1,0,2443.9,0.1649,0.164616,-12.3349,2,0.0177238,10,-0.00203052,-1.90886,-0.0863144,-0.683548,0.174484,
2,0,0,1,0,2443.94,0.155421,0.155131,-15.3412,2,0.0170716,10,-0.00237991,-1.81414,-0.0691103,-0.853707,0.167404,
2,0,0,1,0,2443.99,0.145923,0.145692,-19.0963,2,0.0162556,10,-0.00278217,-1.71905,-0.0660404,-0.893393,0.160969,
2,0,0,1,0,2444.04,0.136426,0.136185,-23.3323,2,0.0152461,10,-0.0031775,-1.63204,-0.0825639,-0.714598,0.15485,
2,0,0,1,0,2444.08,0.126946,0.126676,-27.0931,2,0.0140479,10,-0.00343206,-1.56714,-0.132073,-0.446723,0.148351,
2,0,0,1,0,2444.13,0.117467,0.117169,-29.6358,2,0.0126964,10,-0.0034724,-1.52818,-0.321234,-0.183667,0.140878,
2,0,0,1,0,2444.18,0.107969,0.107678,-30.1673,2,0.0112659,10,-0.00324835,-1.52046,0.907898,0.0649853,0.131812,
2,0,0,1,0,2444.23,0.0984805,0.0981819,-27.9947,2,0.00987709,10,-0.00274857,-1.55292,0.234687,0.251399,0.120578,
2,0,0,1,0,2444.27,0.0889828,0.0886363,-23.8879,2,0.00864214,10,-0.00211734,-1.62182,0.163502,0.360852,0.107747,
2,0,0,1,0,2444.32,0.0795034,0.0791994,-20.0803,2,0.00760599,10,-0.00159034,-1.69723,0.178416,0.330689,0.0952636,
2,0,0,1,0,2444.37,0.0700239,0.0697165,-17.5956,2,0.00671783,10,-0.0012267,-1.7546,0.221427,0.266454,0.0837929,
2,0,0,1,0,2444.42,0.0605263,0.0602173,-15.846,2,0.00592505,10,-0.0009542,-1.80008,0.246014,0.239824,0.072894,
2,0,0,1,0,2444.46,0.0510287,0.0507254,-14.3042,2,0.00520946,10,-0.000725588,-1.84454,0.242098,0.243703,0.0621688,
2,0,0,1,0,2444.51,0.0415492,0.0412356,-12.9843,2,0.00456405,10,-0.000535414,-1.88658,0.304778,0.193584,0.051623,
2,0,0,1,0,2444.56,0.0320607,0.0317613,-12.2348,2,0.00396836,10,-0.000388593,-1.9124,0.520825,0.113282,0.0415492,
2,0,0,1,0,2444.61,0.0225812,0.022307,-11.8923,2,0.00339858,10,-0.000265281,-1.92474,1.48433,0.0397485,0.0318208,
2,0,0,1,0,2444.65,0.0130836,0.0127503,-11.8559,2,0.00283547,10,-0.000151166,-1.92607,-16.2635,-0.00362776,0.022235,
2,0,0,1,0,2444.7,0.00358601,0.00331949,-11.9817,2,0.00226975,10,-3.97729e-05,-1.92148,-0.702881,-0.0839402,0.0129048,
2,0,0,1,0,2444.75,-0.00589345,-0.00626409,-12.2348,2,0.00169459,10,7.66399e-05,-1.9124,-1.25446,-0.0470321,0.00352376,
2,0,0,1,0,2444.8,-0.0153729,-0.0157088,-12.5313,2,0.00110765,10,0.000196852,-1.902,-0.835491,-0.0706172,-0.00568381,
2,0,0,1,0,2444.84,-0.0248569,-0.0252152,-12.8948,2,0.000505387,10,0.000325146,-1.88958,-0.745948,-0.079094,-0.0148993,
2,0,0,1,0,2444.89,-0.0343591,-0.0347143,-13.2527,2,-0.000115411,10,0.000460058,-1.8777,-0.614029,-0.0960866,-0.0241122,
2,0,0,1,0,2444.94,-0.0438567,-0.0441698,-13.6689,2,-0.00075484,10,0.000603753,-1.86427,-0.757646,-0.0778728,-0.0332346,
2,0,0,1,0,2444.99,-0.0533362,-0.053664,-14.0735,2,-0.00141238,10,0.00075524,-1.8516,-0.704812,-0.0837103,-0.0424052,
2,0,0,1,0,2445.03,-0.0628156,-0.0631322,-14.5608,2,-0.00209116,10,0.000919255,-1.83681,-0.615984,-0.0957817,-0.0514835,
2,0,0,1,0,2445.08,-0.0723132,-0.0726361,-15.1243,2,-0.00279611,10,0.00109857,-1.82033,-0.535917,-0.110092,-0.0605367,
2,0,0,1,0,2445.13,-0.0818109,-0.0821258,-15.8204,2,-0.00353079,10,0.00129926,-1.80078,-0.389269,-0.151566,-0.0694695,
2,0,0,1,0,2445.18,-0.0912994,-0.0915914,-16.6681,2,-0.00430055,10,0.00152666,-1.77811,-0.378441,-0.155903,-0.0782569,
2,0,0,1,0,2445.22,-0.100005,-0.1004,-17.5381,2,-0.00504455,10,0.00176083,-1.75602,0.0274065,2.15278,-0.0863697,
2,1,0,1,1,2445.26,-0.0911859,-0.0915966,1.76642,2,-0.00530459,10,-0.000161798,-2.75291,0.00035833,164.653,-0.0930097,
2,1,0,1,1,2445.31,-0.0817019,-0.0820772,8.37437,2,-0.00503614,10,-0.000687345,-2.07705,0.0326958,1.80451,-0.0887767,
2,1,0,1,1,2445.36,-0.0722224,-0.072544,10.6466,2,-0.00457544,10,-0.000772346,-1.97279,0.169863,0.347339,-0.0810612,
2,1,0,1,1,2445.41,-0.0627248,-0.0630344,11.4188,2,-0.00404807,10,-0.000719775,-1.94238,0.528635,0.111608,-0.0721694,
2,1,0,1,1,2445.45,-0.0532272,-0.0535694,11.6971,2,-0.00349794,10,-0.000626608,-1.93192,3.83585,0.0153812,-0.0629271,
2,1,0,1,1,2445.5,-0.0437477,-0.0441238,11.716,2,-0.00294281,10,-0.000516956,-1.93122,-14.7765,-0.00399282,-0.0534966,
2,1,0,1,1,2445.55,-0.0342683,-0.0345888,11.6661,2,-0.00238832,10,-0.000403518,-1.93307,-4.27668,-0.0137958,-0.0439217,
2,1,0,1,1,2445.6,-0.0247843,-0.0251319,11.5488,2,-0.00183787,10,-0.000290242,-1.93746,-2.50803,-0.0235245,-0.0343709,
2,1,0,1,1,2445.64,-0.0152821,-0.0156318,11.4126,2,-0.00129232,10,-0.000178399,-1.94262,-1.68811,-0.0349504,-0.0247619,
2,1,0,1,1,2445.69,-0.00578449,-0.00615216,11.2468,2,-0.000754208,10,-6.9192e-05,-1.94897,-1.1264,-0.0523791,-0.0151496,
2,1,0,1,1,2445.72,-2.55332e-05,-0.000306236,11.1024,2,-0.000433137,10,-3.39996e-06,-1.95458, , ,-0.00918816,

File: 20221101_1-115_002_TrumpetPlot_ParaChange_13_CV_C01_1.csv
mode,ox/red,error,control changes,counter inc.,time/s,control/V,Ewe/V,<I>/mA,cycle number,(Q-Qo)/C,I Range,P/W,log(|I|),Tafel slope mV/dec,alpha_eff,E-IR/V,
2,1,0,0,0,2445.82,2.44065e-05,-0.000535284,11.6348,2,0.0000000E+000,10,-6.2279e-06,-1.93424, , ,-0.00984309,
2,1,0,1,0,2445.84,0.00926324,0.00890657,17.2036,2,0.00034253,10,0.000153225,-1.76438,0.0672467,0.877366,-0.00485628,
2,1,0,1,0,2445.87,0.0188628,0.0185489,19.696,2,0.000790348,10,0.000365338,-1.70562,0.253692,0.232566,0.00279205,
2,1,0,1,0,2445.89,0.0284595,0.0281498,20.6088,2,0.00127603,10,0.000580133,-1.68595,0.842234,0.0700518,0.0116627,
2,1,0,1,0,2445.92,0.0380673,0.0377443,20.8942,2,0.00177472,10,0.000788639,-1.67997,2.65263,0.0222421,0.0210289,
2,1,0,1,0,2445.94,0.0476668,0.0473622,21.0653,2,0.00227814,10,0.000997698,-1.67643,2.15048,0.0274358,0.03051,
2,1,0,1,0,2445.96,0.0572664,0.0569144,21.3771,2,0.00278705,10,0.00121666,-1.67005,0.93102,0.0633714,0.0398127,
2,1,0,1,0,2445.99,0.0668631,0.0665322,22.0866,2,0.00330788,10,0.00146947,-1.65587,0.52715,0.111923,0.048863,
2,1,0,1,0,2446.01,0.0764626,0.076147,23.1206,2,0.00384988,10,0.00176056,-1.636,0.369306,0.159759,0.0576505,
2,1,0,1,0,2446.04,0.0860593,0.0857489,24.6342,2,0.00442204,10,0.00211235,-1.60846,0.269898,0.218601,0.0660416,
2,1,0,1,0,2446.06,0.09567,0.0953562,26.5003,2,0.00503551,10,0.00252697,-1.57675,0.249263,0.236697,0.074156,
2,1,0,1,0,2446.08,0.105267,0.10496,28.5983,2,0.0056965,10,0.00300169,-1.54366,0.228968,0.257678,0.0820817,
2,1,0,1,0,2446.11,0.114866,0.114594,30.9302,2,0.00641077,10,0.00354442,-1.50962,0.219595,0.268677,0.0898499,
2,1,0,1,0,2446.13,0.124463,0.124165,33.5663,2,0.00718422,10,0.00416777,-1.4741,0.199719,0.295414,0.0973123,
2,1,0,1,0,2446.16,0.134062,0.133767,36.6943,2,0.00802654,10,0.0049085,-1.4354,0.164634,0.35837,0.104412,
2,1,0,1,0,2446.18,0.143662,0.143313,40.5663,2,0.00895278,10,0.00581368,-1.39183,0.137723,0.428397,0.11086,
2,1,0,1,0,2446.2,0.153264,0.152897,45.0227,2,0.0099796,10,0.00688384,-1.34657,0.132826,0.444192,0.116879,
2,1,0,1,0,2446.23,0.162867,0.162543,49.6759,2,0.0111167,10,0.00807444,-1.30385,0.152999,0.385624,0.122802,
2,1,0,1,0,2446.25,0.172466,0.172172,53.7759,2,0.0123604,10,0.0092587,-1.26941,0.239712,0.246129,0.129151,
2,1,0,1,0,2446.28,0.182066,0.181755,56.204,2,0.0136852,10,0.0102154,-1.25023,1.27489,0.0462785,0.136792,
2,1,0,1,0,2446.3,0.191662,0.191353,54.9283,2,0.0150285,10,0.0105107,-1.2602,-0.412237,-0.143121,0.14741,
2,1,0,1,0,2446.32,0.201262,0.200949,48.0919,2,0.016276,10,0.00966404,-1.31793,-0.198549,-0.297156,0.162476,
2,1,0,1,0,2446.35,0.210859,0.210631,36.8332,2,0.017299,10,0.00775822,-1.43376,-0.135731,-0.434683,0.181164,
2,1,0,1,0,2446.37,0.220469,0.220212,25.7543,2,0.0180433,10,0.00567141,-1.58915,-0.108353,-0.544517,0.199608,
2,1,0,1,0,2446.4,0.230066,0.22974,18.6621,2,0.018566,10,0.00428743,-1.72904,-0.122583,-0.481305,0.214811,
2,1,0,1,0,2446.42,0.239665,0.239368,15.7717,2,0.0189727,10,0.00377524,-1.80212,-0.259281,-0.227553,0.226751,
2,1,0,1,0,2446.44,0.249262,0.24894,15.0119,2,0.0193401,10,0.00373706,-1.82357,-1.12828,-0.052292,0.236931,
2,1,0,1,0,2446.47,0.258862,0.258556,14.9111,2,0.0196989,10,0.00385534,-1.82649,-13.52,-0.00436389,0.246627,
2,1,0,1,0,2446.49,0.268461,0.268164,14.8427,2,0.020056,10,0.00398029,-1.82849,-5.72939,-0.0102978,0.25629,
2,1,0,1,0,2446.52,0.278069,0.277793,14.7598,2,0.0204113,10,0.00410015,-1.83092,-2.294,-0.0257192,0.265985,
2,1,0,1,0,2446.54,0.287666,0.287401,14.5937,2,0.0207634,10,0.00419424,-1.83584,-1.93507,-0.0304898,0.275726,
2,1,0,1,0,2446.56,0.297265,0.296963,14.4061,2,0.0211115,10,0.00427806,-1.84145,-2.29605,-0.0256963,0.285438,
2,1,0,1,0,2446.58,0.295506,0.295283,1.70404,2,0.0212913,10,0.000503174,-2.76852,-0.00627423,-9.40355,0.29392,
2,0,0,1,0,2446.61,0.28591,0.285613,-6.78282,2,0.0212026,10,-0.00193726,-2.16859,-0.0279657,-2.10973,0.29104,
2,0,0,1,0,2446.63,0.276302,0.276004,-8.63353,2,0.0210127,10,-0.00238289,-2.06381,-0.180943,-0.326069,0.282911,
2,0,0,1,0,2446.65,0.266702,0.266406,-9.30334,2,0.0207967,10,-0.00247847,-2.03136,-0.353174,-0.167056,0.273849,
2,0,0,1,0,2446.68,0.257103,0.256807,-9.84255,2,0.0205669,10,-0.00252764,-2.00689,-0.433677,-0.136046,0.264681,
2,0,0,1,0,2446.7,0.247506,0.247242,-10.332,2,0.0203249,10,-0.00255451,-1.98581,-0.412638,-0.142982,0.255508,
2,0,0,1,0,2446.73,0.237906,0.237626,-10.8772,2,0.0200703,10,-0.00258469,-1.96348,-0.429736,-0.137294,0.246327,
2,0,0,1,0,2446.75,0.22831,0.228046,-11.4327,2,0.0198023,10,-0.00260718,-1.94185,-0.401581,-0.146919,0.237192,
2,0,0,1,0,2446.77,0.218699,0.218397,-12.128,2,0.0195197,10,-0.00264871,-1.91621,-0.343599,-0.171712,0.2281,
2,0,0,1,0,2446.8,0.209102,0.208839,-12.894,2,0.0192196,10,-0.00269277,-1.88961,-0.287339,-0.205332,0.219154,
2,0,0,1,0,2446.82,0.199503,0.199181,-13.9013,2,0.0188984,10,-0.00276886,-1.85695,-0.250517,-0.235513,0.210302,
2,0,0,1,0,2446.85,0.189906,0.189587,-15.1718,2,0.0185501,10,-0.00287638,-1.81896,-0.206171,-0.28617,0.201725,
2,0,0,1,0,2446.87,0.180307,0.180008,-16.9125,2,0.0181659,10,-0.0030444,-1.77179,-0.153603,-0.384108,0.193538,
2,0,0,1,0,2446.89,0.170707,0.170443,-19.2751,2,0.0177326,10,-0.0032853,-1.715,-0.117477,-0.502227,0.185863,
2,0,0,1,0,2446.92,0.161099,0.160867,-22.5446,2,0.0172321,10,-0.00362668,-1.64696,-0.0911547,-0.647251,0.178903,
2,0,0,1,0,2446.94,0.151503,0.15121,-26.8813,2,0.016641,10,-0.00406472,-1.57055,-0.0728402,-0.809993,0.172715,
2,0,0,1,0,2446.97,0.141903,0.141672,-32.2034,2,0.0159335,10,-0.00456231,-1.4921,-0.0682843,-0.864035,0.167434,
2,0,0,1,0,2446.99,0.132303,0.132091,-38.0261,2,0.0150918,10,-0.0050229,-1.41992,-0.0719903,-0.819555,0.162512,
2,0,0,1,0,2447.01,0.122707,0.122531,-43.8037,2,0.0141081,10,-0.00536733,-1.35849,-0.0943172,-0.625549,0.157574,
2,0,0,1,0,2447.04,0.113107,0.112839,-48.9695,2,0.0129921,10,-0.00552568,-1.31007,-0.149571,-0.394463,0.152015,
2,0,0,1,0,2447.06,0.103505,0.103234,-52.6206,2,0.011769,10,-0.00543224,-1.27884,-0.3448,-0.171114,0.14533,
2,0,0,1,0,2447.09,0.0938999,0.0935896,-53.9825,2,0.0104845,10,-0.0050522,-1.26775,20.4095,0.00289081,0.136776,
2,0,0,1,0,2447.11,0.0843031,0.0839897,-52.3683,2,0.00920243,10,-0.0043984,-1.28093,0.464512,0.127015,0.125884,
2,0,0,1,0,2447.13,0.0747036,0.0743814,-48.0193,2,0.00799367,10,-0.00357174,-1.31858,0.290969,0.20277,0.112797,
2,0,0,1,0,2447.16,0.0651069,0.0647783,-42.5101,2,0.00690748,10,-0.00275373,-1.37151,0.253234,0.232986,0.0987864,
2,0,0,1,0,2447.18,0.0555074,0.0551817,-37.4211,2,0.00595043,10,-0.00206496,-1.42688,0.248201,0.237711,0.0851185,
2,0,0,1,0,2447.21,0.0459051,0.0456083,-33.1945,2,0.00510465,10,-0.00151394,-1.47893,0.244778,0.241035,0.0721639,
2,0,0,1,0,2447.23,0.0363,0.0360053,-29.438,2,0.00435418,10,-0.00105992,-1.53109,0.237799,0.248109,0.0595556,
2,0,0,1,0,2447.25,0.0267033,0.0264372,-26.2059,2,0.00368807,10,-0.000692812,-1.5816,0.255323,0.23108,0.047402,
2,0,0,1,0,2447.28,0.0171038,0.0168108,-23.9753,2,0.00308844,10,-0.000403045,-1.62024,0.368165,0.160254,0.0359911,
2,0,0,1,0,2447.3,0.00750426,0.00724068,-22.891,2,0.00252846,10,-0.000165747,-1.64033,0.845987,0.0697411,0.0255535,
2,0,0,1,0,2447.33,-0.00209248,-0.00245462,-22.6772,2,0.0019829,10,5.56639e-05,-1.64441,13.6731,0.00431504,0.0156871,
2,0,0,1,0,2447.35,-0.011692,-0.0120259,-22.8735,2,0.00143691,10,0.000275074,-1.64067,-1.30068,-0.0453609,0.00627298,
2,0,0,1,0,2447.37,-0.0212998,-0.0216225,-23.3586,2,0.000882215,10,0.000505073,-1.63155,-0.839734,-0.0702604,-0.00293564,
2,0,0,1,0,2447.4,-0.0308994,-0.0312213,-24.019,2,0.000313796,10,0.000749906,-1.61944,-0.726927,-0.0811636,-0.0120061,
2,0,0,1,0,2447.42,-0.0404961,-0.0408615,-24.7231,2,-0.000270873,10,0.00101022,-1.6069,-0.708991,-0.0832169,-0.021083,
2,0,0,1,0,2447.45,-0.0500956,-0.0504773,-25.4716,2,-0.000872988,10,0.00128574,-1.59394,-0.740251,-0.0797027,-0.0301,
2,0,0,1,0,2447.47,-0.0596924,-0.0600082,-26.2101,2,-0.00149318,10,0.00157282,-1.58153,-0.688542,-0.0856883,-0.0390401,
2,0,0,1,0,2447.49,-0.0692919,-0.0696219,-27.0139,2,-0.00213217,10,0.00188076,-1.56841,-0.666747,-0.0884893,-0.0480107,
2,0,0,1,0,2447.52,-0.0788997,-0.0792578,-27.903,2,-0.00279109,10,0.00221153,-1.55435,-0.604048,-0.0976744,-0.0569354,
2,0,0,1,0,2447.54,-0.0884992,-0.0888216,-28.8922,2,-0.0034722,10,0.00256625,-1.53922,-0.55455,-0.106393,-0.0657078,
2,0,0,1,0,2447.57,-0.098096,-0.098449,-29.9927,2,-0.00417845,10,0.00295275,-1.52298,-0.559313,-0.105487,-0.0744549,
2,0,0,1,1,2447.58,-0.0946501,-0.0950737,-13.1077,2,-0.00460879,10,0.0012462,-1.88247,0.0116364,5.07028,-0.0845876,
2,1,0,1,1,2447.61,-0.0850534,-0.0854983,4.64049,2,-0.00468555,10,-0.000396754,-2.33344,-0.00020429,-288.804,-0.0892107,
2,1,0,1,1,2447.63,-0.0754539,-0.0758284,14.0941,2,-0.00444908,10,-0.00106873,-1.85096,0.0185631,3.17835,-0.0871037,
2,1,0,1,1,2447.66,-0.0658571,-0.0661904,19.2812,2,-0.0040415,10,-0.00127623,-1.71487,0.0824009,0.716012,-0.0816153,
2,1,0,1,1,2447.68,-0.0562576,-0.0566435,21.9059,2,-0.00354328,10,-0.00124083,-1.65944,0.22432,0.263017,-0.0741682,
2,1,0,1,1,2447.7,-0.0466581,-0.0469949,23.1603,2,-0.00300011,10,-0.00108842,-1.63526,0.59882,0.0985271,-0.0655231,
2,1,0,1,1,2447.73,-0.0370558,-0.0374014,23.6138,2,-0.00243749,10,-0.000883188,-1.62683,2.42256,0.0243544,-0.0562924,
2,1,0,1,1,2447.75,-0.0274535,-0.027792,23.63,2,-0.00186994,10,-0.000656725,-1.62654,-3.7994,-0.0155287,-0.046696,
2,1,0,1,1,2447.78,-0.017854,-0.0181932,23.3595,2,-0.00130581,10,-0.000424984,-1.63154,-1.47424,-0.0400207,-0.0368808,
2,1,0,1,1,2447.8,-0.00825448,-0.00859756,22.9607,2,-0.000749824,10,-0.000197406,-1.63901,-1.13756,-0.0518652,-0.0269661,
2,1,0,0,1,2447.82,-7.54729e-05,-0.000478022,22.5599,2,-0.000283143,10,-1.07841e-05,-1.64666, , ,-0.0185259,