Folder: Figs_alphaMnO2_OER_Tafel_sleope/Figure_codes/Fig_2_S1_S6 (part 2)

File: 20220924_003_MultiCV_0_850mV_1-84_C_02_CV_C01_20.csv
mode,ox/red,error,control changes,counter inc.,time/s,control/V,Ewe/V,<I>/mA,cycle number,(Q-Qo)/C,I Range,P/W,log(|I|),Tafel slope mV/dec,alpha_eff,E-IR/V,
2,0,0,0,0,7429.88,2.17368e-05,-0.000351903,-0.180806,21,0.0000000E+000,10,6.36262e-08,-3.74279, , ,-2.82599e-05,
2,1,0,0,0,7433.63,0.0187771,0.0184777,0.288858,21,0.000617167,10,5.33744e-06,-3.53932,0.0921355,0.640361,0.0179607,
2,1,0,1,0,7437.39,0.0375824,0.037231,0.360846,21,0.00189558,10,1.34347e-05,-3.44268,0.399837,0.14756,0.0365851,
2,1,0,1,0,7441.15,0.0563878,0.0561084,0.391284,21,0.00334285,10,2.19543e-05,-3.40751,0.708026,0.0833303,0.055408,
2,1,0,0,0,7444.91,0.0751931,0.074938,0.416395,21,0.00488664,10,3.12038e-05,-3.38049,0.730627,0.0807526,0.0741927,
2,1,0,1,0,7448.67,0.0939985,0.0937677,0.469777,21,0.0065687,10,4.40499e-05,-3.32811,0.275093,0.214473,0.0929268,
2,1,0,1,0,7452.43,0.112804,0.112693,0.590168,21,0.00856018,10,6.65077e-05,-3.22902,0.151319,0.389904,0.111636,
2,1,0,0,0,7456.19,0.131609,0.131312,0.876253,21,0.0112811,10,0.000115063,-3.05737,0.0894383,0.659673,0.129744,
2,1,0,1,0,7459.95,0.150415,0.150161,1.32726,21,0.015462,10,0.000199304,-2.87704,0.147821,0.399131,0.147785,
2,1,0,1,0,7463.72,0.16922,0.168934,1.55771,21,0.0210445,10,0.000263149,-2.80751,1.81397,0.0325254,0.166145,
2,1,0,0,0,7467.48,0.188025,0.187744,1.3946,21,0.0267606,10,0.000261828,-2.85555,-0.16105,-0.366346,0.185248,
2,1,0,1,0,7471.24,0.206831,0.206574,0.915051,21,0.0311628,10,0.000189025,-3.03855,-0.0849911,-0.69419,0.204936,
2,1,0,1,0,7475,0.225636,0.225461,0.619912,21,0.0339949,10,0.000139766,-3.20767,-0.177475,-0.332441,0.224351,
2,1,0,0,0,7478.76,0.244441,0.244252,0.509464,21,0.0361209,10,0.000124438,-3.29289,-0.478638,-0.123266,0.24334,
2,1,0,1,0,7482.52,0.263247,0.263034,0.460587,21,0.0379697,10,0.00012115,-3.33669,-0.546396,-0.10798,0.26221,
2,1,0,1,0,7486.28,0.282052,0.281825,0.432471,21,0.0396776,10,0.000121881,-3.36404,-0.706435,-0.0835179,0.281051,
2,1,0,0,0,7490.04,0.300857,0.300569,0.414922,21,0.0413001,10,0.000124713,-3.38203,-1.00059,-0.0589652,0.299827,
2,1,0,0,0,7493.8,0.319663,0.319456,0.400323,21,0.0428622,10,0.000127886,-3.39759,-1.61898,-0.0364427,0.31874,
2,1,0,1,0,7497.57,0.338468,0.338229,0.388754,21,0.0443766,10,0.000131488,-3.41033,-0.845651,-0.0697687,0.337533,
2,1,0,0,0,7501.33,0.357273,0.357087,0.378337,21,0.0458492,10,0.000135099,-3.42212,-103.766,-0.000568588,0.35641,
2,1,0,0,0,7505.09,0.376079,0.375764,0.369491,21,0.0472824,10,0.000138841,-3.4324,-1.71555,-0.0343914,0.375102,
2,1,0,1,0,7508.85,0.394884,0.394622,0.360665,21,0.0486803,10,0.000142326,-3.4429,-2.38615,-0.024726,0.393976,
2,1,0,0,0,7512.61,0.41369,0.41349,0.354402,21,0.050048,10,0.000146541,-3.4505,2.70039,0.0218487,0.412855,
2,1,0,0,0,7516.37,0.432495,0.432224,0.350696,21,0.0513939,10,0.000151579,-3.45507,-1.04769,-0.0563146,0.431596,
2,1,0,1,0,7520.13,0.4513,0.45112,0.347009,21,0.0527223,10,0.000156543,-3.45966,-26.3268,-0.00224106,0.450499,
2,1,0,0,0,7523.89,0.470106,0.469864,0.346055,21,0.0540407,10,0.000162599,-3.46085,-1.66608,-0.0354125,0.469245,
2,1,0,0,0,7527.65,0.488911,0.488627,0.344686,21,0.0553561,10,0.000168423,-3.46258,4.3073,0.0136977,0.48801,
2,1,0,1,0,7531.42,0.507716,0.507543,0.346821,21,0.0566756,10,0.000176027,-3.45989,1.6575,0.0355958,0.506922,
2,1,0,0,0,7535.18,0.526522,0.526382,0.350975,21,0.058005,10,0.000184747,-3.45472,1.05596,0.0558736,0.525754,
2,1,0,0,0,7538.94,0.545327,0.545097,0.357614,21,0.0593532,10,0.000194934,-3.44659,1.57939,0.0373563,0.544457,
2,1,0,1,0,7542.7,0.564132,0.563907,0.367142,21,0.0607324,10,0.000207034,-3.43517,1.65594,0.0356294,0.56325,
2,1,0,1,0,7546.46,0.582938,0.58268,0.382957,21,0.0621586,10,0.000223141,-3.41685,1.00063,0.0589628,0.581994,
2,1,0,0,0,7550.22,0.601743,0.601481,0.40629,21,0.0636547,10,0.000244376,-3.39116,0.692544,0.0851931,0.600754,
2,1,0,1,0,7553.98,0.620548,0.620301,0.444056,21,0.0652619,10,0.000275448,-3.35256,0.365352,0.161488,0.619506,
2,1,0,1,0,7557.74,0.639354,0.639064,0.50581,21,0.067051,10,0.000323245,-3.29601,0.240611,0.245209,0.638158,
2,1,0,0,0,7561.5,0.658159,0.657922,0.619887,21,0.069164,10,0.000407837,-3.20769,0.18487,0.319143,0.656812,
2,1,0,1,0,7565.26,0.676965,0.676723,0.824611,21,0.0718606,10,0.000558033,-3.08375,0.134253,0.439468,0.675247,
2,1,0,1,0,7569.03,0.69577,0.695495,1.17916,21,0.0755907,10,0.0008201,-2.92843,0.116042,0.508438,0.693385,
2,1,0,0,0,7572.79,0.714575,0.714296,1.72127,21,0.0809986,10,0.0012295,-2.76415,0.102978,0.572936,0.711215,
2,1,0,1,0,7576.55,0.733381,0.73326,2.45639,21,0.0888178,10,0.00180117,-2.6097,0.11634,0.507133,0.728863,
2,1,0,1,0,7580.31,0.752186,0.751984,3.35636,21,0.0997215,10,0.00252393,-2.47413,0.127878,0.461376,0.745976,
2,1,0,0,0,7584.07,0.770991,0.770776,4.39674,21,0.114278,10,0.0033889,-2.35687,0.155486,0.379456,0.762906,
2,1,0,1,0,7587.83,0.789797,0.789596,5.57634,21,0.133011,10,0.00440306,-2.25365,0.171239,0.344548,0.779614,
2,1,0,1,0,7591.59,0.808602,0.808368,6.90504,21,0.156457,10,0.00558181,-2.16083,0.185696,0.317723,0.796008,
2,1,0,0,0,7595.35,0.827407,0.827246,8.38867,21,0.185191,10,0.00693949,-2.07631,0.187465,0.314725,0.81223,
2,1,0,0,0,7599.11,0.846213,0.846037,10.0199,21,0.219789,10,0.00847722,-1.99914,0.226134,0.260907,0.828101,
2,1,0,0,0,7602.86,0.83501,0.834871,8.48254,21,0.255444,10,0.00708183,-2.07147,0.140076,0.4212,0.819687,
2,1,0,1,0,7606.62,0.816204,0.81606,6.66366,21,0.283775,10,0.00543795,-2.17629,0.152114,0.387867,0.804133,
2,1,0,0,0,7610.38,0.797399,0.797212,5.17855,21,0.305932,10,0.0041284,-2.28579,0.154729,0.381312,0.787942,
2,1,0,0,0,7614.14,0.778594,0.778325,3.94692,21,0.322998,10,0.00307199,-2.40374,0.142577,0.413811,0.77126,
2,1,0,1,0,7617.9,0.759788,0.759657,2.92574,21,0.335839,10,0.00222256,-2.53376,0.118575,0.497575,0.75442,
2,1,0,0,0,7621.66,0.740983,0.740761,2.08371,21,0.345186,10,0.00154353,-2.68116,0.108728,0.542639,0.737031,
2,1,0,0,0,7625.42,0.722177,0.722036,1.41204,21,0.351694,10,0.00101955,-2.85015,0.0974342,0.605537,0.719509,
2,1,0,1,0,7629.18,0.703372,0.703264,0.896359,21,0.355969,10,0.000630377,-3.04752,0.0888742,0.663859,0.70166,
2,1,0,1,0,7632.94,0.684567,0.684368,0.524735,21,0.358581,10,0.000359111,-3.28006,0.0748655,0.78808,0.683428,
2,1,0,0,0,7636.71,0.665761,0.665672,0.273606,21,0.360032,10,0.000182132,-3.56287,0.0512172,1.15196,0.665182,
2,1,0,1,0,7640.47,0.646956,0.646737,0.105246,21,0.360702,10,6.80664e-05,-3.97779,0.0328414,1.79651,0.646548,
2,0,0,1,0,7644.23,0.628151,0.627917,-0.00806505,21,0.360849,10,-5.06418e-06,-5.09339,-0.00436442,-13.5184,0.627931,
2,0,0,0,0,7647.99,0.609345,0.609164,-0.085953,21,0.360644,10,-5.23594e-05,-4.06574,-0.0546657,-1.07929,0.609317,
2,0,0,1,0,7651.75,0.59054,0.590315,-0.140425,21,0.360189,10,-8.28947e-05,-3.85256,-0.141376,-0.417328,0.590566,
2,0,0,1,0,7655.51,0.571735,0.571514,-0.175238,21,0.359568,10,-0.000100151,-3.75637,-0.216009,-0.273137,0.571827,
2,0,0,0,0,7659.27,0.552929,0.55277,-0.197622,21,0.358839,10,-0.00010924,-3.70416,-0.316548,-0.186385,0.553124,
2,0,0,1,0,7663.03,0.534124,0.534007,-0.213361,21,0.358043,10,-0.000113936,-3.67089,-0.692361,-0.0852156,0.534389,
2,0,0,1,0,7666.79,0.515319,0.515063,-0.222615,21,0.357207,10,-0.000114661,-3.65244,-0.842791,-0.0700055,0.515461,
2,0,0,0,0,7670.56,0.496513,0.496233,-0.228619,21,0.356342,10,-0.000113448,-3.64089,-0.896009,-0.0658475,0.496643,
2,0,0,1,0,7674.32,0.477708,0.477461,-0.234882,21,0.355449,10,-0.000112147,-3.62915,-0.74931,-0.0787392,0.477881,
2,0,0,1,0,7678.08,0.458902,0.458622,-0.24376,21,0.354524,10,-0.000111794,-3.61304,-1.3023,-0.0453044,0.459058,
2,0,0,0,0,7681.84,0.440097,0.439821,-0.254651,21,0.353565,10,-0.000112001,-3.59406,-0.954079,-0.0618397,0.440277,
2,0,0,0,0,7685.6,0.421292,0.421125,-0.267449,21,0.352562,10,-0.00011263,-3.57276,-0.760248,-0.0776062,0.421603,
2,0,0,1,0,7689.36,0.402486,0.402266,-0.281215,21,0.351507,10,-0.000113123,-3.55096,-0.753227,-0.0783296,0.40277,
2,0,0,0,0,7693.12,0.383681,0.383418,-0.296674,21,0.350397,10,-0.00011375,-3.52772,-0.623752,-0.0945888,0.383949,
2,0,0,0,0,7696.88,0.364876,0.364655,-0.315204,21,0.349225,10,-0.000114941,-3.50141,-0.396237,-0.148901,0.365219,
2,0,0,1,0,7700.64,0.34607,0.345911,-0.334466,21,0.347981,10,-0.000115696,-3.47565,-0.609142,-0.0968576,0.34651,
2,0,0,0,0,7704.4,0.327265,0.326929,-0.352249,21,0.346664,10,-0.00011516,-3.45315,-0.922503,-0.0639564,0.327559,
2,0,0,0,0,7708.17,0.30846,0.30829,-0.371596,21,0.345272,10,-0.000114559,-3.42993,-1.39932,-0.0421634,0.308955,
2,0,0,1,0,7711.93,0.289654,0.28947,-0.39413,21,0.343805,10,-0.000114089,-3.40436,-1.07138,-0.0550692,0.290175,
2,0,0,0,0,7715.69,0.270849,0.270593,-0.416398,21,0.342259,10,-0.000112674,-3.38049,-1.54457,-0.0381984,0.271338,
2,0,0,0,0,7719.45,0.252044,0.251763,-0.438555,21,0.34063,10,-0.000110412,-3.35798,-0.648483,-0.0909815,0.252548,
2,0,0,1,0,7723.21,0.233238,0.233038,-0.468351,21,0.338899,10,-0.000109144,-3.32943,-0.543251,-0.108605,0.233877,
2,0,0,1,0,7726.97,0.214433,0.214209,-0.510073,21,0.33703,10,-0.000109262,-3.29237,-0.375195,-0.157252,0.215122,
2,0,0,0,0,7730.73,0.195627,0.19536,-0.583843,21,0.334951,10,-0.000114059,-3.2337,-0.259154,-0.227664,0.196405,
2,0,0,1,0,7734.49,0.176822,0.176549,-0.729312,21,0.332474,10,-0.00012876,-3.13709,-0.159288,-0.370399,0.177855,
2,0,0,1,0,7738.25,0.158017,0.157777,-1.02868,21,0.32919,10,-0.000162301,-2.98772,-0.106308,-0.55499,0.159618,
2,0,0,0,0,7742.02,0.139211,0.138957,-1.43918,21,0.324503,10,-0.000199984,-2.84188,-0.187175,-0.315213,0.141533,
2,0,0,1,0,7745.78,0.120406,0.120137,-1.6138,21,0.318611,10,-0.000193877,-2.79215,4.74871,0.0124244,0.123026,
2,0,0,1,0,7749.54,0.101601,0.101317,-1.46571,21,0.312728,10,-0.000148501,-2.83395,0.269233,0.219141,0.10394,
2,0,0,0,0,7753.3,0.0827953,0.0825539,-1.19156,21,0.30769,10,-9.83677e-05,-2.92388,0.186353,0.316603,0.0846868,
2,0,0,1,0,7757.06,0.06399,0.0637433,-0.975956,21,0.303628,10,-6.22107e-05,-3.01057,0.243836,0.241966,0.0654903,
2,0,0,1,0,7760.82,0.0451846,0.0449805,-0.876631,21,0.30015,10,-3.94313e-05,-3.05718,0.590206,0.0999651,0.0465497,
2,0,0,0,0,7764.58,0.0263792,0.0260745,-0.840728,21,0.296909,10,-2.19216e-05,-3.07534,1.92013,0.030727,0.0275794,
2,0,0,1,0,7768.34,0.00757389,0.00735937,-0.836192,21,0.293736,10,-6.15385e-06,-3.07769,4.25092,0.0138794,0.00885616,
2,0,0,0,0,7769.82,0.00017178,-0.000170573,-0.846005,21,0.292477,10,1.44306e-07,-3.07263, , ,0.00134377,

File: 20220924_003_MultiCV_0_850mV_1-84_C_02_CV_C01_30.csv
mode,ox/red,error,control changes,counter inc.,time/s,control/V,Ewe/V,<I>/mA,cycle number,(Q-Qo)/C,I Range,P/W,log(|I|),Tafel slope mV/dec,alpha_eff,E-IR/V,
2,0,0,0,0,11129.8,2.17368e-05,-0.000294641,-0.189075,31,0.0000000E+000,10,5.57091e-08,-3.72337, , ,4.38026e-05,
2,1,0,0,0,11133.6,0.0187771,0.0185445,0.27482,31,0.000554035,10,5.09641e-06,-3.56095,0.0864581,0.682411,0.0180526,
2,1,0,1,0,11137.3,0.0375824,0.0373551,0.352247,31,0.00178897,10,1.31582e-05,-3.45315,0.336777,0.17519,0.0367246,
2,1,0,1,0,11141.1,0.0563878,0.0560988,0.38537,31,0.00320799,10,2.16188e-05,-3.41412,0.966933,0.0610177,0.055409,
2,1,0,0,0,11144.8,0.0751931,0.0749571,0.411378,31,0.00473199,10,3.08357e-05,-3.38576,0.656275,0.0899013,0.0742207,
2,1,0,1,0,11148.6,0.0939985,0.0936436,0.459522,31,0.00638777,10,4.30313e-05,-3.33769,0.258103,0.228591,0.0928211,
2,1,0,1,0,11152.4,0.112804,0.112588,0.570159,31,0.00832739,10,6.4193e-05,-3.244,0.167655,0.351914,0.111567,
2,1,0,0,0,11156.1,0.131609,0.13136,0.828894,31,0.0109282,10,0.000108884,-3.0815,0.0965638,0.610995,0.129876,
2,1,0,1,0,11159.9,0.150415,0.150142,1.24868,31,0.0148651,10,0.000187479,-2.90355,0.124662,0.473279,0.147907,
2,1,0,1,0,11163.6,0.16922,0.169039,1.49262,31,0.020159,10,0.00025231,-2.82605,0.758835,0.0777507,0.166367,
2,1,0,0,0,11167.4,0.188025,0.18782,1.37195,31,0.0256945,10,0.00025768,-2.86266,-0.198903,-0.296627,0.185365,
2,1,0,1,0,11171.2,0.206831,0.20665,0.934722,31,0.0300931,10,0.00019316,-3.02932,-0.104053,-0.567019,0.204977,
2,1,0,1,0,11174.9,0.225636,0.225327,0.636462,31,0.0329852,10,0.000143412,-3.19623,-0.143587,-0.410902,0.224188,
2,1,0,0,0,11178.7,0.244441,0.244233,0.520718,31,0.0351499,10,0.000127176,-3.2834,-0.321192,-0.183691,0.243301,
2,1,0,1,0,11182.4,0.263247,0.263005,0.466577,31,0.0370228,10,0.000122712,-3.33108,-0.567188,-0.104022,0.26217,
2,1,0,1,0,11186.2,0.282052,0.281854,0.437216,31,0.0387465,10,0.000123231,-3.3593,-1.2355,-0.0477539,0.281072,
2,1,0,0,0,11190,0.300857,0.300646,0.41916,31,0.040381,10,0.000126019,-3.37762,-1.63547,-0.0360753,0.299895,
2,1,0,0,0,11193.7,0.319663,0.319351,0.404004,31,0.0419514,10,0.000129019,-3.39361,-1.00226,-0.0588671,0.318628,
2,1,0,1,0,11197.5,0.338468,0.338229,0.392395,31,0.0434704,10,0.000132719,-3.40628,-0.56314,-0.10477,0.337526,
2,1,0,0,0,11201.3,0.357273,0.357039,0.380005,31,0.0449464,10,0.000135677,-3.42021,2.97599,0.0198254,0.356359,
2,1,0,0,0,11205,0.376079,0.375907,0.370108,31,0.0463825,10,0.000139126,-3.43167,-1.63697,-0.0360422,0.375244,
2,1,0,1,0,11208.8,0.394884,0.394603,0.361028,31,0.047781,10,0.000142463,-3.44246,-1.47592,-0.0399751,0.393957,
2,1,0,0,0,11212.5,0.41369,0.413413,0.355025,31,0.0491487,10,0.000146772,-3.44974,2.57195,0.0229398,0.412778,
2,1,0,0,0,11216.3,0.432495,0.432272,0.35054,31,0.0504957,10,0.000151529,-3.45526,-0.498932,-0.118253,0.431644,
2,1,0,1,0,11220.1,0.4513,0.451073,0.346906,31,0.0518236,10,0.00015648,-3.45979,-1.26825,-0.0465207,0.450452,
2,1,0,0,0,11223.8,0.470106,0.46996,0.343836,31,0.0531403,10,0.000161589,-3.46365,14.407,0.00409523,0.469344,
2,1,0,0,0,11227.6,0.488911,0.488646,0.342966,31,0.0544528,10,0.000167589,-3.46475,-20.4159,-0.0028899,0.488032,
2,1,0,1,0,11231.3,0.507716,0.507543,0.346802,31,0.0557691,10,0.000176017,-3.45992,10.3549,0.00569779,0.506922,
2,1,0,0,0,11235.1,0.526522,0.526286,0.350923,31,0.0570965,10,0.000184686,-3.45479,2.09169,0.0282069,0.525658,
2,1,0,0,0,11238.9,0.545327,0.545097,0.356485,31,0.0584391,10,0.000194319,-3.44796,1.59877,0.0369033,0.544459,
2,1,0,1,0,11242.6,0.564132,0.563955,0.36502,31,0.0598107,10,0.000205855,-3.43768,1.65505,0.0356485,0.563302,
2,1,0,1,0,11246.4,0.582938,0.582747,0.378705,31,0.0612253,10,0.000220689,-3.4217,1.19117,0.0495311,0.582069,
2,1,0,0,0,11250.1,0.601743,0.601509,0.39871,31,0.0627018,10,0.000239828,-3.39934,0.497549,0.118581,0.600796,
2,1,0,1,0,11253.9,0.620548,0.62032,0.430187,31,0.0642716,10,0.000266854,-3.36634,0.363986,0.162094,0.61955,
2,1,0,1,0,11257.7,0.639354,0.639159,0.480725,31,0.0659916,10,0.00030726,-3.3181,0.30774,0.19172,0.638299,
2,1,0,0,0,11261.4,0.658159,0.658008,0.571522,31,0.0679725,10,0.000376066,-3.24297,0.208113,0.283499,0.656985,
2,1,0,1,0,11265.2,0.676965,0.676675,0.734074,31,0.0704148,10,0.00049673,-3.13426,0.150512,0.391995,0.675361,
2,1,0,1,0,11269,0.69577,0.695629,1.01319,31,0.0736734,10,0.000704807,-2.99431,0.105209,0.560787,0.693815,
2,1,0,0,0,11272.7,0.714575,0.714344,1.43808,31,0.078248,10,0.00102728,-2.84222,0.122156,0.482988,0.71177,
2,1,0,1,0,11276.5,0.733381,0.733126,2.01477,31,0.0847102,10,0.00147708,-2.69577,0.122356,0.482201,0.72952,
2,1,0,1,0,11280.2,0.752186,0.752023,2.72269,31,0.093596,10,0.00204752,-2.565,0.135712,0.434744,0.747149,
2,1,0,0,0,11284,0.770991,0.770852,3.5439,31,0.105362,10,0.00273182,-2.45052,0.16147,0.365393,0.764509,
2,1,0,1,0,11287.8,0.789797,0.789586,4.48728,31,0.120448,10,0.0035431,-2.34802,0.179222,0.3292,0.781554,
2,1,0,1,0,11291.5,0.808602,0.808406,5.56481,31,0.13933,10,0.00449863,-2.25455,0.195148,0.302335,0.798445,
2,1,0,0,0,11295.3,0.827407,0.827274,6.78392,31,0.162523,10,0.00561217,-2.16852,0.21135,0.279157,0.815131,
2,1,0,0,0,11299,0.846213,0.846094,8.14158,31,0.19057,10,0.00688854,-2.08929,0.215984,0.273168,0.831521,
2,1,0,0,0,11302.8,0.83501,0.834861,6.8532,31,0.219497,10,0.00572147,-2.16411,0.156223,0.377666,0.822594,
2,1,0,1,0,11306.5,0.816204,0.816108,5.35046,31,0.242309,10,0.00436656,-2.27161,0.155627,0.379112,0.806531,
2,1,0,0,0,11310.3,0.797399,0.797193,4.14603,31,0.26007,10,0.00330518,-2.38237,0.152566,0.386717,0.789771,
2,1,0,0,0,11314.1,0.778594,0.778392,3.16256,31,0.273736,10,0.00246171,-2.49996,0.142665,0.413555,0.772731,
2,1,0,1,0,11317.8,0.759788,0.759638,2.35198,31,0.284041,10,0.00178666,-2.62857,0.12897,0.45747,0.755428,
2,1,0,0,0,11321.6,0.740983,0.740723,1.68694,31,0.291577,10,0.00124956,-2.7729,0.123225,0.4788,0.737703,
2,1,0,0,0,11325.4,0.722177,0.722008,1.1505,31,0.296858,10,0.000830669,-2.93911,0.102934,0.57318,0.719948,
2,1,0,1,0,11329.1,0.703372,0.703197,0.738286,31,0.300353,10,0.00051916,-3.13178,0.0944447,0.624704,0.701876,
2,1,0,1,0,11332.9,0.684567,0.684358,0.437209,31,0.302514,10,0.000299208,-3.35931,0.0697211,0.846229,0.683575,
2,1,0,0,0,11336.6,0.665761,0.665567,0.224878,31,0.303715,10,0.000149672,-3.64805,0.0516369,1.14259,0.665164,
2,1,0,1,0,11340.4,0.646956,0.646766,0.0786365,31,0.304253,10,5.08594e-05,-4.10438,0.0283714,2.07956,0.646625,
2,0,0,1,0,11344.2,0.628151,0.627917,-0.0228301,31,0.304329,10,-1.43354e-05,-4.64149,-0.0123733,-4.76833,0.627958,
2,0,0,0,0,11347.9,0.609345,0.609144,-0.0938255,31,0.304086,10,-5.71533e-05,-4.02768,-0.06749,-0.874204,0.609312,
2,0,0,1,0,11351.7,0.59054,0.590277,-0.145617,31,0.303611,10,-8.59541e-05,-3.83679,-0.142733,-0.41336,0.590537,
2,0,0,1,0,11355.4,0.571735,0.571533,-0.178697,31,0.30298,10,-0.000102131,-3.74788,-0.241099,-0.244712,0.571853,
2,0,0,0,0,11359.2,0.552929,0.552694,-0.20038,31,0.302246,10,-0.000110749,-3.69814,-0.311838,-0.189201,0.553052,
2,0,0,1,0,11363,0.534124,0.53395,-0.212491,31,0.301447,10,-0.000113459,-3.67266,-0.496399,-0.118856,0.53433,
2,0,0,1,0,11366.7,0.515319,0.515082,-0.222057,31,0.300609,10,-0.000114378,-3.65353,-1.07317,-0.0549771,0.51548,
2,0,0,0,0,11370.5,0.496513,0.496281,-0.228885,31,0.29974,10,-0.000113591,-3.64038,1.56983,0.0375837,0.496691,
2,0,0,1,0,11374.2,0.477708,0.477547,-0.237134,31,0.298844,10,-0.000113243,-3.62501,-0.745476,-0.0791441,0.477971,
2,0,0,1,0,11378,0.458902,0.458622,-0.245448,31,0.297918,10,-0.000112568,-3.61004,-2.13206,-0.0276728,0.459061,
2,0,0,0,0,11381.8,0.440097,0.439926,-0.255137,31,0.296956,10,-0.000112242,-3.59323,-5.95658,-0.00990501,0.440382,
2,0,0,0,0,11385.5,0.421292,0.421125,-0.267696,31,0.29595,10,-0.000112733,-3.57236,-0.579041,-0.101893,0.421604,
2,0,0,1,0,11389.3,0.402486,0.402371,-0.282156,31,0.294895,10,-0.000113531,-3.54951,-0.904999,-0.0651934,0.402876,
2,0,0,0,0,11393,0.383681,0.383427,-0.297161,31,0.293783,10,-0.00011394,-3.52701,-0.593013,-0.0994919,0.383959,
2,0,0,0,0,11396.8,0.364876,0.364626,-0.315009,31,0.292608,10,-0.000114861,-3.50168,-0.61562,-0.0958384,0.36519,
2,0,0,1,0,11400.6,0.34607,0.345892,-0.334499,31,0.291361,10,-0.0001157,-3.47561,-1.15199,-0.0512157,0.346491,
2,0,0,0,0,11404.3,0.327265,0.327034,-0.355124,31,0.29004,10,-0.000116138,-3.44962,-0.810262,-0.072816,0.327669,
2,0,0,0,0,11408.1,0.30846,0.308099,-0.375146,31,0.288643,10,-0.000115582,-3.4258,-1.14211,-0.0516586,0.308771,
2,0,0,1,0,11411.9,0.289654,0.289489,-0.395006,31,0.287171,10,-0.00011435,-3.4034,-0.993385,-0.0593929,0.290196,
2,0,0,0,0,11415.6,0.270849,0.270602,-0.416352,31,0.28562,10,-0.000112666,-3.38054,-0.795763,-0.0741427,0.271347,
2,0,0,0,0,11419.4,0.252044,0.251858,-0.439236,31,0.283986,10,-0.000110625,-3.3573,-0.677801,-0.0870463,0.252645,
2,0,0,1,0,11423.1,0.233238,0.233048,-0.470032,31,0.282251,10,-0.00010954,-3.32787,-0.695603,-0.0848185,0.233889,
2,0,0,1,0,11426.9,0.214433,0.21417,-0.512425,31,0.280383,10,-0.000109746,-3.29037,-0.291559,-0.202361,0.215088,
2,0,0,0,0,11430.7,0.195627,0.195389,-0.584518,31,0.27831,10,-0.000114208,-3.2332,-0.24028,-0.245547,0.196435,
2,0,0,1,0,11434.4,0.176822,0.176549,-0.725074,31,0.275853,10,-0.000128011,-3.13962,-0.157347,-0.374967,0.177847,
2,0,0,1,0,11438.2,0.158017,0.15772,-1.01452,31,0.272607,10,-0.00016001,-2.99374,-0.113506,-0.519798,0.159536,
2,0,0,0,0,11441.9,0.139211,0.138976,-1.39302,31,0.268033,10,-0.000193597,-2.85604,-0.22173,-0.266089,0.14147,
2,0,0,1,0,11445.7,0.120406,0.120185,-1.5579,31,0.262347,10,-0.000187235,-2.80746,3.66293,0.0161073,0.122973,
2,0,0,1,0,11449.5,0.101601,0.101412,-1.42302,31,0.25665,10,-0.000144312,-2.84679,0.283459,0.208143,0.103959,
2,0,0,0,0,11453.2,0.0827953,0.0826016,-1.16941,31,0.251733,10,-9.65954e-05,-2.93203,0.204346,0.288726,0.0846948,
2,0,0,1,0,11457,0.06399,0.0637338,-0.971472,31,0.247708,10,-6.19156e-05,-3.01257,0.32248,0.182957,0.0654727,
2,0,0,1,0,11460.7,0.0451846,0.0448946,-0.8773,31,0.244226,10,-3.9386e-05,-3.05685,0.679833,0.086786,0.046465,
2,0,0,0,0,11464.5,0.0263792,0.0261318,-0.843759,31,0.240972,10,-2.20489e-05,-3.07378,1.85817,0.0317516,0.0276421,
2,0,0,1,0,11468.3,0.00757389,0.00733074,-0.838898,31,0.237789,10,-6.14975e-06,-3.07629,-2.59533,-0.0227331,0.00883237,
2,0,0,0,0,11469.8,0.00017178,-0.000151486,-0.849165,31,0.236527,10,1.28637e-07,-3.07101, , ,0.00136852,