Folder: Figs_alphaMnO2_OER_Tafel_sleope/Figure_codes/Fig_2_S1_S6 (part 3)

File: 20220924_003_MultiCV_0_850mV_1-84_C_02_CV_C01_40.csv
mode,ox/red,error,control changes,counter inc.,time/s,control/V,Ewe/V,<I>/mA,cycle number,(Q-Qo)/C,I Range,P/W,log(|I|),Tafel slope mV/dec,alpha_eff,E-IR/V,
2,0,0,0,0,14829.7,2.17368e-05,-0.000351903,-0.189711,41,0.0000000E+000,10,6.67597e-08,-3.72191, , ,-1.23209e-05,
2,1,0,0,0,14833.5,0.0187771,0.0185255,0.267097,41,0.000527299,10,4.94809e-06,-3.57333,0.0789562,0.74725,0.0180474,
2,1,0,1,0,14837.2,0.0375824,0.0373742,0.34551,41,0.00173635,10,1.29132e-05,-3.46154,0.277129,0.212897,0.0367557,
2,1,0,1,0,14841,0.0563878,0.0561466,0.379162,41,0.00313496,10,2.12887e-05,-3.42118,0.684923,0.086141,0.0554679,
2,1,0,0,0,14844.8,0.0751931,0.0748808,0.40716,41,0.00464269,10,3.04884e-05,-3.39024,0.784363,0.0752203,0.074152,
2,1,0,1,0,14848.5,0.0939985,0.0938058,0.458847,41,0.00629013,10,4.30425e-05,-3.33833,0.300702,0.196207,0.0929845,
2,1,0,1,0,14852.3,0.112804,0.112588,0.571561,41,0.00823117,10,6.43508e-05,-3.24294,0.179647,0.328422,0.111565,
2,1,0,0,0,14856,0.131609,0.13136,0.828044,41,0.0108349,10,0.000108772,-3.08195,0.0984827,0.59909,0.129878,
2,1,0,1,0,14859.8,0.150415,0.150161,1.22637,41,0.0147294,10,0.000184153,-2.91138,0.135499,0.435428,0.147966,
2,1,0,1,0,14863.6,0.16922,0.168991,1.44888,41,0.0198912,10,0.000244848,-2.83897,1.06645,0.0553236,0.166397,
2,1,0,0,0,14867.3,0.188025,0.18784,1.32271,41,0.0252411,10,0.000248457,-2.87854,-0.197075,-0.299378,0.185472,
2,1,0,1,0,14871.1,0.206831,0.206545,0.905621,41,0.0294849,10,0.000187051,-3.04305,-0.0984912,-0.599038,0.204924,
2,1,0,1,0,14874.9,0.225636,0.225442,0.626299,41,0.032312,10,0.000141194,-3.20322,-0.161895,-0.364433,0.22432,
2,1,0,0,0,14878.6,0.244441,0.244195,0.51757,41,0.0344557,10,0.000126388,-3.28603,-0.353308,-0.166993,0.243268,
2,1,0,1,0,14882.4,0.263247,0.263072,0.465441,41,0.036318,10,0.000122445,-3.33214,-0.539069,-0.109448,0.262239,
2,1,0,1,0,14886.1,0.282052,0.281845,0.436073,41,0.0380354,10,0.000122905,-3.36044,-0.842162,-0.0700578,0.281064,
2,1,0,0,0,14889.9,0.300857,0.300588,0.417044,41,0.0396663,10,0.000125359,-3.37982,-1.1933,-0.0494428,0.299842,
2,1,0,0,0,14893.7,0.319663,0.319437,0.403172,41,0.041235,10,0.000128788,-3.39451,-1.37083,-0.0430396,0.318715,
2,1,0,1,0,14897.4,0.338468,0.338181,0.390986,41,0.0427528,10,0.000132224,-3.40784,-1.08243,-0.0545069,0.337481,
2,1,0,0,0,14901.2,0.357273,0.35702,0.378156,41,0.0442274,10,0.000135009,-3.42233,-7.79957,-0.00756452,0.356343,
2,1,0,0,0,14904.9,0.376079,0.37585,0.370705,41,0.0456627,10,0.000139329,-3.43097,-9.62914,-0.00612723,0.375186,
2,1,0,1,0,14908.7,0.394884,0.394727,0.360794,41,0.0470616,10,0.000142415,-3.44274,-1.29669,-0.0455004,0.394081,
2,1,0,0,0,14912.5,0.41369,0.413413,0.353376,41,0.0484271,10,0.000146091,-3.45176,-13.2409,-0.00445589,0.412781,
2,1,0,0,0,14916.2,0.432495,0.432358,0.34943,41,0.0497706,10,0.000151079,-3.45664,-1.1756,-0.050187,0.431732,
2,1,0,1,0,14920,0.4513,0.45113,0.345809,41,0.0510961,10,0.000156005,-3.46116,-1.31799,-0.0447653,0.450511,
2,1,0,0,0,14923.7,0.470106,0.469921,0.344063,41,0.0524103,10,0.000161683,-3.46336,-1.20262,-0.0490596,0.469306,
2,1,0,0,0,14927.5,0.488911,0.488713,0.343803,41,0.0537196,10,0.000168021,-3.46369,3.82134,0.0154396,0.488098,
2,1,0,1,0,14931.3,0.507716,0.507466,0.346042,41,0.0550315,10,0.000175605,-3.46087,3.77621,0.0156241,0.506847,
2,1,0,0,0,14935,0.526522,0.526296,0.350242,41,0.0563528,10,0.000184331,-3.45563,25.3025,0.00233178,0.525669,
2,1,0,0,0,14938.8,0.545327,0.545106,0.354863,41,0.0576905,10,0.000193438,-3.44994,-5.44558,-0.0108345,0.544471,
2,1,0,1,0,14942.6,0.564132,0.56386,0.362482,41,0.059052,10,0.000204389,-3.44071,0.672976,0.0876703,0.563211,
2,1,0,1,0,14946.3,0.582938,0.582718,0.375008,41,0.0604519,10,0.000218524,-3.42596,2.93837,0.0200791,0.582047,
2,1,0,0,0,14950.1,0.601743,0.60149,0.393777,41,0.06191,10,0.000236853,-3.40475,0.582811,0.101234,0.600786,
2,1,0,1,0,14953.8,0.620548,0.62033,0.422081,41,0.0634539,10,0.000261829,-3.3746,0.543727,0.10851,0.619574,
2,1,0,1,0,14957.6,0.639354,0.639131,0.465655,41,0.0651316,10,0.000297615,-3.33194,0.382075,0.15442,0.638297,
2,1,0,0,0,14961.4,0.658159,0.657893,0.545549,41,0.0670375,10,0.000358913,-3.26317,0.223499,0.263983,0.656917,
2,1,0,1,0,14965.1,0.676965,0.676694,0.686949,41,0.0693454,10,0.000464855,-3.16308,0.157768,0.373968,0.675465,
2,1,0,1,0,14968.9,0.69577,0.695591,0.930874,41,0.0723636,10,0.000647507,-3.03111,0.123685,0.477017,0.693925,
2,1,0,0,0,14972.6,0.714575,0.714335,1.29899,41,0.0765242,10,0.000927916,-2.88639,0.120215,0.490787,0.712009,
2,1,0,1,0,14976.4,0.733381,0.733069,1.79578,41,0.0823184,10,0.00131643,-2.74575,0.134808,0.43766,0.729854,
2,1,0,1,0,14980.2,0.752186,0.752042,2.4101,41,0.0902121,10,0.0018125,-2.61796,0.14816,0.398217,0.747728,
2,1,0,0,0,14983.9,0.770991,0.770814,3.12591,41,0.100606,10,0.0024095,-2.50502,0.171354,0.344316,0.765219,
2,1,0,1,0,14987.7,0.789797,0.789644,3.95816,41,0.113909,10,0.00312553,-2.40251,0.170532,0.345975,0.782558,
2,1,0,1,0,14991.4,0.808602,0.808416,4.91967,41,0.130574,10,0.00397714,-2.30806,0.184546,0.319704,0.79961,
2,1,0,0,0,14995.2,0.827407,0.827265,6.02731,41,0.151128,10,0.00498618,-2.21988,0.206678,0.285468,0.816476,
2,1,0,0,0,14999,0.846213,0.846008,7.27879,41,0.176126,10,0.00615792,-2.13794,0.205586,0.286984,0.832979,
2,1,0,0,0,15002.7,0.83501,0.834871,6.10036,41,0.20196,10,0.00509302,-2.21464,0.135719,0.434721,0.823951,
2,1,0,1,0,15006.5,0.816204,0.815946,4.74203,41,0.22222,10,0.00386924,-2.32404,0.155892,0.378467,0.807458,
2,1,0,0,0,15010.2,0.797399,0.797221,3.66395,41,0.237936,10,0.00292098,-2.43605,0.149489,0.394678,0.790663,
2,1,0,0,0,15014,0.778594,0.778401,2.79691,41,0.250017,10,0.00217712,-2.55332,0.138565,0.425791,0.773395,
2,1,0,1,0,15017.8,0.759788,0.759524,2.08458,41,0.259139,10,0.00158329,-2.68098,0.120258,0.490611,0.755792,
2,1,0,0,0,15021.5,0.740983,0.740752,1.50027,41,0.265829,10,0.00111132,-2.82383,0.120803,0.488397,0.738066,
2,1,0,0,0,15025.3,0.722177,0.721998,1.02889,41,0.270536,10,0.000742859,-2.98763,0.0936298,0.630141,0.720156,
2,1,0,1,0,15029,0.703372,0.703169,0.660288,41,0.273667,10,0.000464293,-3.18027,0.0870081,0.678098,0.701987,
2,1,0,1,0,15032.8,0.684567,0.68431,0.38974,41,0.275602,10,0.000266703,-3.40922,0.0716194,0.823799,0.683613,
2,1,0,0,0,15036.6,0.665761,0.6655,0.198347,41,0.276673,10,0.000132,-3.70257,0.0542727,1.0871,0.665145,
2,1,0,1,0,15040.3,0.646956,0.646766,0.0642414,41,0.277139,10,4.15491e-05,-4.19219,0.0243657,2.42144,0.646651,
2,0,0,1,0,15044.1,0.628151,0.627936,-0.0306182,41,0.277179,10,-1.92263e-05,-4.51402,-0.0159664,-3.69526,0.627991,
2,0,0,0,0,15047.8,0.609345,0.609097,-0.0984724,41,0.27692,10,-5.99792e-05,-4.00669,-0.0732868,-0.805056,0.609273,
2,0,0,1,0,15051.6,0.59054,0.590315,-0.14672,41,0.276439,10,-8.6611e-05,-3.83351,-0.178433,-0.330656,0.590577,
2,0,0,1,0,15055.4,0.571735,0.571542,-0.180663,41,0.275805,10,-0.000103257,-3.74313,-0.190586,-0.309572,0.571866,
2,0,0,0,0,15059.1,0.552929,0.552646,-0.200848,41,0.275071,10,-0.000110998,-3.69713,-0.512691,-0.115079,0.553005,
2,0,0,1,0,15062.9,0.534124,0.533883,-0.213769,41,0.274273,10,-0.000114128,-3.67005,-0.506669,-0.116447,0.534266,
2,0,0,1,0,15066.7,0.515319,0.515168,-0.223232,41,0.273434,10,-0.000115002,-3.65124,-2.03685,-0.0289663,0.515568,
2,0,0,0,0,15070.4,0.496513,0.496252,-0.230034,41,0.272564,10,-0.000114155,-3.63821,-3.5462,-0.0166375,0.496664,
2,0,0,1,0,15074.2,0.477708,0.47749,-0.237082,41,0.271667,10,-0.000113204,-3.6251,-2.09647,-0.0281426,0.477914,
2,0,0,1,0,15077.9,0.458902,0.458612,-0.245506,41,0.270738,10,-0.000112592,-3.60994,-1.66287,-0.0354809,0.459052,
2,0,0,0,0,15081.7,0.440097,0.439888,-0.255027,41,0.269776,10,-0.000112183,-3.59341,-0.708948,-0.0832219,0.440344,
2,0,0,0,0,15085.5,0.421292,0.421058,-0.268728,41,0.268771,10,-0.00011315,-3.57069,-1.09575,-0.0538443,0.421539,
2,0,0,1,0,15089.2,0.402486,0.402295,-0.283447,41,0.267716,10,-0.00011403,-3.54753,-2.79526,-0.0211072,0.402802,
2,0,0,0,0,15093,0.383681,0.383446,-0.297129,41,0.266606,10,-0.000113933,-3.52706,-2.47007,-0.023886,0.383978,
2,0,0,0,0,15096.7,0.364876,0.364636,-0.313957,41,0.265433,10,-0.00011448,-3.50313,-0.532906,-0.110714,0.365198,
2,0,0,1,0,15100.5,0.34607,0.34593,-0.334038,41,0.26419,10,-0.000115554,-3.4762,-0.865561,-0.0681639,0.346528,
2,0,0,0,0,15104.3,0.327265,0.327072,-0.353242,41,0.262872,10,-0.000115536,-3.45193,-0.673101,-0.087654,0.327704,
2,0,0,0,0,15108,0.30846,0.308242,-0.37368,41,0.261478,10,-0.000115184,-3.4275,-0.683981,-0.0862597,0.308911,
2,0,0,1,0,15111.8,0.289654,0.289403,-0.393909,41,0.260009,10,-0.000113999,-3.4046,-0.771423,-0.076482,0.290108,
2,0,0,0,0,15115.5,0.270849,0.270612,-0.415541,41,0.258462,10,-0.00011245,-3.38139,-1.30942,-0.0450582,0.271356,
2,0,0,0,0,15119.3,0.252044,0.251792,-0.437601,41,0.256835,10,-0.000110184,-3.35892,-0.726141,-0.0812514,0.252575,
2,0,0,1,0,15123.1,0.233238,0.232981,-0.466728,41,0.255111,10,-0.000108739,-3.33094,-0.633766,-0.0930943,0.233816,
2,0,0,1,0,15126.8,0.214433,0.214199,-0.507074,41,0.253258,10,-0.000108615,-3.29493,-0.337475,-0.174828,0.215107,
2,0,0,0,0,15130.6,0.195627,0.195427,-0.573841,41,0.251212,10,-0.000112144,-3.24121,-0.281507,-0.209586,0.196454,
2,0,0,1,0,15134.3,0.176822,0.176588,-0.704144,41,0.248811,10,-0.000124343,-3.15234,-0.175835,-0.335542,0.177848,
2,0,0,1,0,15138.1,0.158017,0.157806,-0.97706,41,0.245673,10,-0.000154186,-3.01008,-0.107058,-0.551102,0.159555,
2,0,0,0,0,15141.9,0.139211,0.139052,-1.33769,41,0.24128,10,-0.000186009,-2.87364,-0.186653,-0.316095,0.141447,
2,0,0,1,0,15145.6,0.120406,0.120185,-1.5097,41,0.2358,10,-0.000181443,-2.82111,-53.4895,-0.00110302,0.122887,
2,0,0,1,0,15149.4,0.101601,0.101307,-1.39984,41,0.230238,10,-0.000141814,-2.85392,0.299731,0.196843,0.103813,
2,0,0,0,0,15153.2,0.0827953,0.0825634,-1.16666,41,0.225375,10,-9.63231e-05,-2.93306,0.215589,0.273669,0.0846517,
2,0,0,1,0,15156.9,0.06399,0.0637242,-0.979396,41,0.221344,10,-6.24113e-05,-3.00904,0.3313,0.178086,0.0654773,
2,0,0,1,0,15160.7,0.0451846,0.0449614,-0.885945,41,0.217839,10,-3.98333e-05,-3.05259,0.799578,0.0737889,0.0465472,
2,0,0,0,0,15164.4,0.0263792,0.0261127,-0.850178,41,0.214564,10,-2.22004e-05,-3.07049,4.0352,0.0146213,0.0276345,
2,0,0,1,0,15168.2,0.00757389,0.00736892,-0.842792,41,0.211364,10,-6.21047e-06,-3.07428,-173.185,-0.000340676,0.00887752,
2,0,0,0,0,15169.7,0.00017178,-0.000151486,-0.851515,41,0.210098,10,1.28993e-07,-3.06981, , ,0.00137273,

File: 20220924_003_MultiCV_0_850mV_1-84_C_02_CV_C01_50.csv
mode,ox/red,error,control changes,counter inc.,time/s,control/V,Ewe/V,<I>/mA,cycle number,(Q-Qo)/C,I Range,P/W,log(|I|),Tafel slope mV/dec,alpha_eff,E-IR/V,
2,0,0,0,0,18529.7,2.17368e-05,-0.000447339,-0.178898,51,0.0000000E+000,10,8.00281e-08,-3.74739, , ,-0.000127112,
2,1,0,0,0,18533.4,0.0187771,0.0184205,0.261307,51,0.000502472,10,4.81341e-06,-3.58285,0.077613,0.760182,0.0179527,
2,1,0,1,0,18537.2,0.0375824,0.037231,0.340967,51,0.00169002,10,1.26946e-05,-3.46729,0.301358,0.19578,0.0366207,
2,1,0,1,0,18540.9,0.0563878,0.0560798,0.375409,51,0.00307202,10,2.10528e-05,-3.4255,0.511601,0.115324,0.0554078,
2,1,0,0,0,18544.7,0.0751931,0.0748712,0.405297,51,0.00456526,10,3.03451e-05,-3.39223,0.596018,0.0989903,0.0741457,
2,1,0,1,0,18548.5,0.0939985,0.09372,0.454765,51,0.00619785,10,4.26205e-05,-3.34221,0.224264,0.263083,0.0929059,
2,1,0,1,0,18552.2,0.112804,0.112521,0.562923,51,0.00811429,10,6.33406e-05,-3.24955,0.158337,0.372623,0.111513,
2,1,0,0,0,18556,0.131609,0.131312,0.803907,51,0.0106579,10,0.000105563,-3.09479,0.102438,0.575956,0.129873,
2,1,0,1,0,18559.7,0.150415,0.150152,1.17341,51,0.014398,10,0.000176189,-2.93055,0.143802,0.410287,0.148051,
2,1,0,1,0,18563.5,0.16922,0.168962,1.39514,51,0.0193449,10,0.000235726,-2.85538,0.723828,0.0815111,0.166465,
2,1,0,0,0,18567.3,0.188025,0.18763,1.29973,51,0.0245475,10,0.000243867,-2.88615,-0.221463,-0.26641,0.185303,
2,1,0,1,0,18571,0.206831,0.206536,0.916595,51,0.0287783,10,0.00018931,-3.03782,-0.107821,-0.547202,0.204895,
2,1,0,1,0,18574.8,0.225636,0.225413,0.635184,51,0.031648,10,0.000143179,-3.1971,-0.160006,-0.368735,0.224276,
2,1,0,0,0,18578.5,0.244441,0.244185,0.522074,51,0.0338178,10,0.000127483,-3.28227,-0.336141,-0.175522,0.243251,
2,1,0,1,0,18582.3,0.263247,0.262977,0.470095,51,0.0356954,10,0.000123624,-3.32781,-0.415835,-0.141883,0.262135,
2,1,0,1,0,18586.1,0.282052,0.281749,0.439734,51,0.037422,10,0.000123895,-3.35681,-0.925552,-0.0637458,0.280962,
2,1,0,0,0,18589.8,0.300857,0.300627,0.418907,51,0.0390576,10,0.000125935,-3.37788,-1.26631,-0.0465922,0.299877,
2,1,0,0,0,18593.6,0.319663,0.319408,0.403821,51,0.0406285,10,0.000128984,-3.39381,-1.86065,-0.0317094,0.318686,
2,1,0,1,0,18597.3,0.338468,0.338229,0.391759,51,0.0421482,10,0.000132504,-3.40698,-1.1109,-0.05311,0.337527,
2,1,0,0,0,18601.1,0.357273,0.356972,0.380044,51,0.043622,10,0.000135665,-3.42017,0.810909,0.0727578,0.356292,
2,1,0,0,0,18604.9,0.376079,0.375773,0.371419,51,0.0450548,10,0.000139569,-3.43014,9.02334,0.0065386,0.375108,
2,1,0,1,0,18608.6,0.394884,0.394546,0.362054,51,0.0464497,10,0.000142847,-3.44123,-0.735948,-0.0801687,0.393898,
2,1,0,0,0,18612.4,0.41369,0.413433,0.354934,51,0.0478116,10,0.000146741,-3.44985,-8.05128,-0.00732802,0.412797,
2,1,0,0,0,18616.2,0.432495,0.432205,0.348152,51,0.0491486,10,0.000150473,-3.45823,-0.610345,-0.0966666,0.431582,
2,1,0,1,0,18619.9,0.4513,0.450996,0.344323,51,0.0504665,10,0.000155288,-3.46303,8.45923,0.00697463,0.45038,
2,1,0,0,0,18623.7,0.470106,0.469864,0.343128,51,0.0517732,10,0.000161224,-3.46454,-1.41491,-0.0416986,0.46925,
2,1,0,0,0,18627.4,0.488911,0.488637,0.341726,51,0.0530755,10,0.00016698,-3.46632,-2.03896,-0.0289363,0.488025,
2,1,0,1,0,18631.2,0.507716,0.507504,0.342784,51,0.0543796,10,0.000173965,-3.46498,11.1087,0.00531113,0.506891,
2,1,0,0,0,18635,0.526522,0.526296,0.347457,51,0.0556911,10,0.000182865,-3.4591,5.16399,0.0114253,0.525674,
2,1,0,0,0,18638.7,0.545327,0.545106,0.351384,51,0.0570186,10,0.000191542,-3.45422,3.2988,0.0178853,0.544477,
2,1,0,1,0,18642.5,0.564132,0.563907,0.358296,51,0.0583689,10,0.000202046,-3.44576,4.07828,0.0144669,0.563266,
2,1,0,1,0,18646.2,0.582938,0.582708,0.37054,51,0.0597551,10,0.000215917,-3.43116,3.76229,0.0156819,0.582045,
2,1,0,0,0,18650,0.601743,0.601433,0.38791,51,0.0611946,10,0.000233302,-3.41127,1.08197,0.0545301,0.600739,
2,1,0,1,0,18653.8,0.620548,0.62033,0.412631,51,0.0627114,10,0.000255967,-3.38444,0.661132,0.0892409,0.619591,
2,1,0,1,0,18657.5,0.639354,0.639131,0.451981,51,0.0643471,10,0.000288875,-3.34488,0.44208,0.13346,0.638322,
2,1,0,0,0,18661.3,0.658159,0.657989,0.522892,51,0.0661813,10,0.000344057,-3.28159,0.241219,0.244591,0.657053,
2,1,0,1,0,18665,0.676965,0.676666,0.64377,51,0.0683646,10,0.000435617,-3.19127,0.165341,0.356839,0.675513,
2,1,0,1,0,18668.8,0.69577,0.695505,0.853382,51,0.0711633,10,0.000593531,-3.06886,0.133324,0.44253,0.693977,
2,1,0,0,0,18672.6,0.714575,0.714401,1.17251,51,0.0749506,10,0.000837646,-2.93088,0.139653,0.422475,0.712303,
2,1,0,1,0,18676.3,0.733381,0.733145,1.6009,51,0.0801489,10,0.00117369,-2.79564,0.134105,0.439954,0.73028,
2,1,0,1,0,18680.1,0.752186,0.751918,2.13365,51,0.0871592,10,0.00160433,-2.67088,0.155662,0.379026,0.748098,
2,1,0,0,0,18683.9,0.770991,0.770728,2.75623,51,0.0963381,10,0.0021243,-2.55969,0.158902,0.371299,0.765794,
2,1,0,1,0,18687.6,0.789797,0.789567,3.4792,51,0.108042,10,0.00274706,-2.45852,0.181607,0.324877,0.783339,
2,1,0,1,0,18691.4,0.808602,0.808311,4.32136,51,0.122684,10,0.00349301,-2.36438,0.172322,0.342382,0.800576,
2,1,0,0,0,18695.1,0.827407,0.827169,5.2984,51,0.140744,10,0.00438267,-2.27586,0.209481,0.281649,0.817685,
2,1,0,0,0,18698.9,0.846213,0.846008,6.39868,51,0.16272,10,0.00541334,-2.19391,0.215263,0.274084,0.834555,
2,1,0,0,0,18702.6,0.83501,0.834842,5.34682,51,0.185403,10,0.00446375,-2.2719,0.148257,0.397957,0.825272,
2,1,0,1,0,18706.4,0.816204,0.815975,4.12947,51,0.203103,10,0.00336954,-2.38411,0.16769,0.35184,0.808583,
2,1,0,0,0,18710.2,0.797399,0.797145,3.18502,51,0.216779,10,0.00253892,-2.49689,0.148393,0.397594,0.791444,
2,1,0,0,0,18713.9,0.778594,0.778287,2.43644,51,0.227292,10,0.00189625,-2.61324,0.145557,0.405339,0.773925,
2,1,0,1,0,18717.7,0.759788,0.7596,1.82158,51,0.235251,10,0.00138367,-2.73955,0.135108,0.436689,0.75634,
2,1,0,0,0,18721.4,0.740983,0.740666,1.31766,51,0.241111,10,0.000975945,-2.8802,0.12879,0.45811,0.738307,
2,1,0,0,0,18725.2,0.722177,0.721941,0.908703,51,0.245253,10,0.00065603,-3.04158,0.102763,0.574134,0.720314,
2,1,0,1,0,18729,0.703372,0.70314,0.583814,51,0.248017,10,0.000410503,-3.23373,0.0971056,0.607586,0.702095,
2,1,0,1,0,18732.7,0.684567,0.684406,0.343167,51,0.249727,10,0.000234866,-3.46449,0.0777872,0.75848,0.683791,
2,1,0,0,0,18736.5,0.665761,0.665557,0.170919,51,0.250663,10,0.000113757,-3.76721,0.0496053,1.18939,0.665251,
2,1,0,1,0,18740.3,0.646956,0.646766,0.0466337,51,0.251046,10,3.01611e-05,-4.3313,0.0194649,3.0311,0.646682,
2,0,0,1,0,18744,0.628151,0.627879,-0.0399121,51,0.251035,10,-2.50599e-05,-4.3989,-0.0221119,-2.66825,0.62795,
2,0,0,0,0,18747.8,0.609345,0.609078,-0.104813,51,0.250744,10,-6.38394e-05,-3.97958,-0.0774291,-0.761988,0.609265,
2,0,0,1,0,18751.5,0.59054,0.590229,-0.149835,51,0.250245,10,-8.84371e-05,-3.82439,-0.173727,-0.339614,0.590497,
2,0,0,1,0,18755.3,0.571735,0.571495,-0.182176,51,0.249601,10,-0.000104112,-3.73951,-0.31341,-0.188252,0.571821,
2,0,0,0,0,18759.1,0.552929,0.552684,-0.20286,51,0.248861,10,-0.000112117,-3.6928,-0.389905,-0.151319,0.553047,
2,0,0,1,0,18762.8,0.534124,0.533912,-0.216787,51,0.248058,10,-0.000115745,-3.66397,-2.09312,-0.0281876,0.5343,
2,0,0,1,0,18766.6,0.515319,0.515063,-0.224958,51,0.247215,10,-0.000115868,-3.6479,-1.41085,-0.0418188,0.515466,
2,0,0,0,0,18770.3,0.496513,0.4963,-0.230131,51,0.246345,10,-0.000114214,-3.63802,-8.53762,-0.00691059,0.496712,
2,0,0,1,0,18774.1,0.477708,0.477404,-0.23862,51,0.245448,10,-0.000113918,-3.62229,-0.700914,-0.0841758,0.477831,
2,0,0,1,0,18777.9,0.458902,0.458641,-0.246577,51,0.244521,10,-0.00011309,-3.60805,3.67639,0.0160483,0.459082,
2,0,0,0,0,18781.6,0.440097,0.439926,-0.257117,51,0.243559,10,-0.000113112,-3.58987,-0.611975,-0.0964092,0.440386,
2,0,0,0,0,18785.4,0.421292,0.421115,-0.269234,51,0.242556,10,-0.000113379,-3.56987,-0.874472,-0.0674693,0.421597,
2,0,0,1,0,18789.1,0.402486,0.40219,-0.28361,51,0.241504,10,-0.000114065,-3.54728,-0.56875,-0.103736,0.402698,
2,0,0,0,0,18792.9,0.383681,0.383408,-0.298524,51,0.240395,10,-0.000114457,-3.52502,-7.52909,-0.00783627,0.383943,
2,0,0,0,0,18796.7,0.364876,0.364569,-0.314717,51,0.239223,10,-0.000114736,-3.50208,-0.781733,-0.0754734,0.365132,
2,0,0,1,0,18800.4,0.34607,0.345959,-0.33409,51,0.237978,10,-0.000115581,-3.47614,-0.78142,-0.0755036,0.346557,
2,0,0,0,0,18804.2,0.327265,0.327062,-0.355228,51,0.236657,10,-0.000116182,-3.44949,-0.453298,-0.130157,0.327698,
2,0,0,0,0,18807.9,0.30846,0.308185,-0.374296,51,0.235261,10,-0.000115352,-3.42678,-0.771846,-0.0764401,0.308855,
2,0,0,1,0,18811.7,0.289654,0.289403,-0.393637,51,0.233793,10,-0.00011392,-3.4049,-0.883805,-0.0667568,0.290108,
2,0,0,0,0,18815.5,0.270849,0.270612,-0.416754,51,0.232248,10,-0.000112779,-3.38012,-0.784892,-0.0751696,0.271358,
2,0,0,0,0,18819.2,0.252044,0.25182,-0.439171,51,0.230621,10,-0.000110592,-3.35737,-0.705167,-0.0836681,0.252606,
2,0,0,1,0,18823,0.233238,0.232924,-0.467332,51,0.228898,10,-0.000108853,-3.33037,-0.916516,-0.0643742,0.23376,
2,0,0,1,0,18826.8,0.214433,0.214123,-0.506469,51,0.227049,10,-0.000108447,-3.29545,-0.292149,-0.201952,0.215029,
2,0,0,0,0,18830.5,0.195627,0.19536,-0.570583,51,0.225014,10,-0.000111469,-3.24368,-0.268489,-0.219748,0.196381,
2,0,0,1,0,18834.3,0.176822,0.176483,-0.695973,51,0.222633,10,-0.000122827,-3.15741,-0.170995,-0.34504,0.177728,
2,0,0,1,0,18838,0.158017,0.157787,-0.959056,51,0.219541,10,-0.000151326,-3.01816,-0.109836,-0.537163,0.159503,
2,0,0,0,0,18841.8,0.139211,0.138957,-1.3,51,0.21525,10,-0.000180644,-2.88606,-0.225272,-0.261906,0.141284,
2,0,0,1,0,18845.6,0.120406,0.120165,-1.46381,51,0.209937,10,-0.0001759,-2.83451,-9.39037,-0.00628303,0.122786,
2,0,0,1,0,18849.3,0.101601,0.101412,-1.36566,51,0.204535,10,-0.000138495,-2.86466,0.322483,0.182955,0.103857,
2,0,0,0,0,18853.1,0.0827953,0.082592,-1.15019,51,0.199771,10,-9.49966e-05,-2.93923,0.269762,0.218711,0.0846509,
2,0,0,1,0,18856.8,0.06399,0.0637242,-0.974762,51,0.195776,10,-6.2116e-05,-3.0111,0.365206,0.161553,0.0654691,
2,0,0,1,0,18860.6,0.0451846,0.0449328,-0.883816,51,0.192278,10,-3.97123e-05,-3.05364,0.769872,0.0766361,0.0465148,
2,0,0,0,0,18864.4,0.0263792,0.0260268,-0.846861,51,0.189006,10,-2.20411e-05,-3.07219,2.09089,0.0282177,0.0275427,
2,0,0,1,0,18868.1,0.00757389,0.00721622,-0.836574,51,0.185816,10,-6.03691e-06,-3.0775,-8.15702,-0.00723303,0.00871369,
2,0,0,0,0,18869.6,0.00017178,-0.000294641,-0.845148,51,0.184556,10,2.49015e-07,-3.07307, , ,0.00121817,