Folder: Figs_alphaMnO2_OER_Tafel_sleope/Figure_codes/Fig_S3_S4 (part 2)

File: 20221101_1-115_002_TrumpetPlot_ParaChange_06_CV_C01_1.csv
mode,ox/red,error,control changes,counter inc.,time/s,control/V,Ewe/V,<I>/mA,cycle number,(Q-Qo)/C,I Range,P/W,log(|I|),Tafel slope mV/dec,alpha_eff,E-IR/V,
2,0,0,1,0,2310.62,2.44065e-05,-0.000325324,-0.4174,2,0.0000000E+000,11,1.3579e-07,-3.37945, , ,8.59679e-06,
2,1,0,1,0,2311.29,0.00679123,0.00650475,0.406488,2,0.000240787,11,2.6441e-06,-3.39095,0.109386,0.539374,0.00617956,
2,1,0,1,0,2311.99,0.0137828,0.0135087,0.448627,2,0.000550632,11,6.06039e-06,-3.34811,0.192569,0.306384,0.0131498,
2,1,0,1,0,2312.69,0.0207743,0.0205095,0.472359,2,0.000882449,11,9.68786e-06,-3.32573,0.357259,0.165146,0.0201317,
2,1,0,1,0,2313.39,0.0277659,0.0274393,0.490918,2,0.00122836,11,1.34705e-05,-3.30899,0.426062,0.138477,0.0270466,
2,1,0,1,0,2314.09,0.0347577,0.0344426,0.509627,2,0.00158654,11,1.75529e-05,-3.29275,0.392594,0.150282,0.0340349,
2,1,0,1,0,2314.79,0.041749,0.0415003,0.529453,2,0.00195796,11,2.19724e-05,-3.27617,0.575014,0.102606,0.0410767,
2,1,0,1,0,2315.49,0.0487405,0.048464,0.554642,2,0.00234492,11,2.68802e-05,-3.25599,0.335128,0.176052,0.0480203,
2,1,0,1,0,2316.19,0.0557321,0.0554828,0.58551,2,0.00275279,11,3.24857e-05,-3.23247,0.275485,0.214168,0.0550144,
2,1,0,1,0,2316.89,0.062723,0.062419,0.630076,2,0.00318805,11,3.93287e-05,-3.20061,0.202513,0.29134,0.0619149,
2,1,0,1,0,2317.58,0.0697152,0.0694123,0.683002,2,0.00365829,11,4.74087e-05,-3.16558,0.184177,0.320343,0.0688659,
2,1,0,1,0,2318.28,0.0767068,0.0764248,0.747999,2,0.00416913,11,5.71657e-05,-3.1261,0.194243,0.303743,0.0758264,
2,1,0,1,0,2318.98,0.0836983,0.0834351,0.810462,2,0.00472386,11,6.7621e-05,-3.09127,0.214616,0.274909,0.0827867,
2,1,0,1,0,2319.68,0.0906899,0.0904296,0.867686,2,0.00532086,11,7.84645e-05,-3.06164,0.180102,0.327592,0.0897354,
2,1,0,1,0,2320.38,0.0976816,0.0973945,0.933811,2,0.00596004,11,9.09481e-05,-3.02974,0.192388,0.306673,0.0966475,
2,1,0,1,0,2321.08,0.104673,0.104394,1.00904,2,0.00664546,11,0.000105338,-2.99609,0.179476,0.328735,0.103587,
2,1,0,1,0,2321.78,0.111665,0.111392,1.11517,2,0.00739358,11,0.00012422,-2.95266,0.137369,0.429499,0.1105,
2,1,0,1,0,2322.48,0.118656,0.118339,1.27577,2,0.00823558,11,0.000150973,-2.89423,0.113222,0.521101,0.117319,
2,1,0,1,0,2323.18,0.125647,0.125371,1.49002,2,0.00921021,11,0.000186806,-2.82681,0.103719,0.568844,0.124179,
2,1,0,1,0,2323.88,0.132639,0.132356,1.71258,2,0.0103407,11,0.000226671,-2.76635,0.1473,0.400543,0.130986,
2,1,0,1,0,2324.58,0.139631,0.139359,1.85249,2,0.0116025,11,0.00025816,-2.73224,0.378175,0.156013,0.137877,
2,1,0,1,0,2325.28,0.146622,0.146349,1.85693,2,0.0129213,11,0.00027176,-2.7312,-0.36029,-0.163757,0.144863,
2,1,0,1,0,2325.97,0.153614,0.153322,1.69505,2,0.0141862,11,0.000259888,-2.77082,-0.111853,-0.527478,0.151966,
2,1,0,1,0,2326.67,0.160606,0.160338,1.38859,2,0.0152777,11,0.000222643,-2.85743,-0.0699842,-0.843048,0.159227,
2,1,0,1,0,2327.37,0.167597,0.167298,1.08574,2,0.0161461,11,0.000181643,-2.96427,-0.0730337,-0.807847,0.16643,
2,1,0,1,0,2328.07,0.174588,0.174332,0.883743,2,0.0168396,11,0.000154065,-3.05367,-0.0961914,-0.613361,0.173625,
2,1,0,1,0,2328.77,0.18158,0.181309,0.766705,2,0.0174236,11,0.00013901,-3.11537,-0.127078,-0.464282,0.180695,
2,1,0,1,0,2329.47,0.188571,0.188288,0.688764,2,0.0179403,11,0.000129686,-3.16193,-0.204009,-0.289203,0.187737,
2,1,0,1,0,2330.17,0.195563,0.195293,0.639021,2,0.0184135,11,0.000124796,-3.19449,-0.201184,-0.293264,0.194782,
2,1,0,1,0,2330.87,0.202555,0.202256,0.601727,2,0.0188567,11,0.000121703,-3.2206,-0.330404,-0.178569,0.201774,
2,1,0,1,0,2331.57,0.209546,0.209297,0.576206,2,0.0192788,11,0.000120598,-3.23942,-0.42768,-0.137954,0.208836,
2,1,0,1,0,2332.27,0.216538,0.216267,0.554221,2,0.0196848,11,0.00011986,-3.25632,-0.619505,-0.0952373,0.215824,
2,1,0,1,0,2332.97,0.22353,0.22325,0.544586,2,0.0200788,11,0.000121579,-3.26393,-0.581291,-0.101498,0.222814,
2,1,0,1,0,2333.67,0.230521,0.230226,0.529289,2,0.0204633,11,0.000121856,-3.27631,-0.718798,-0.0820815,0.229803,
2,1,0,1,0,2334.36,0.237512,0.237234,0.520255,2,0.0208403,11,0.000123422,-3.28378,-1.56683,-0.0376557,0.236818,
2,1,0,1,0,2335.06,0.244504,0.24424,0.511767,2,0.021211,11,0.000124994,-3.29093,-0.922527,-0.0639548,0.243831,
2,1,0,1,0,2335.76,0.251495,0.251221,0.505522,2,0.0215764,11,0.000126998,-3.29626,-2.95001,-0.02,0.250816,
2,1,0,1,0,2336.46,0.258488,0.258247,0.49916,2,0.0219373,11,0.000128907,-3.30176,-1.84309,-0.0320115,0.257848,
2,1,0,1,0,2337.16,0.265479,0.265245,0.492248,2,0.022294,11,0.000130566,-3.30782,-0.833082,-0.0708214,0.264851,
2,1,0,1,0,2337.86,0.27247,0.272197,0.487442,2,0.022647,11,0.00013268,-3.31208,-1.58141,-0.0373085,0.271807,
2,1,0,1,0,2338.56,0.279462,0.279179,0.482844,2,0.0229964,11,0.0001348,-3.31619,20.8951,0.00282363,0.278792,
2,1,0,1,0,2339.26,0.286454,0.286181,0.478471,2,0.0233427,11,0.000136929,-3.32014,-2.05695,-0.0286832,0.285798,
2,1,0,1,0,2339.96,0.293445,0.2932,0.473079,2,0.0236859,11,0.000138707,-3.32507,-1.21418,-0.0485924,0.292822,
2,1,0,0,0,2340.62,0.300012,0.299785,0.475003,2,0.0240062,11,0.000142399,-3.3233,-0.000202168,-291.837,0.299405,
2,0,0,1,0,2341.29,0.293246,0.292957,-0.119096,2,0.023947,11,-3.48899e-05,-3.9241,-0.0304116,-1.94005,0.293052,
2,0,0,1,0,2341.99,0.286253,0.285944,-0.166316,2,0.0238347,11,-4.75571e-05,-3.77907,-0.0841392,-0.701219,0.286077,
2,0,0,1,0,2342.69,0.279262,0.278995,-0.196861,2,0.0236968,11,-5.49234e-05,-3.70584,-0.111302,-0.530089,0.279153,
2,0,0,1,0,2343.39,0.27227,0.271932,-0.221985,2,0.0235398,11,-6.03648e-05,-3.65368,-0.173959,-0.339161,0.27211,
2,0,0,1,0,2344.09,0.265279,0.264988,-0.242634,2,0.0233667,11,-6.42951e-05,-3.61505,-0.147973,-0.398721,0.265182,
2,0,0,1,0,2344.79,0.258287,0.258005,-0.262916,2,0.0231795,11,-6.78337e-05,-3.58018,-0.221254,-0.266662,0.258216,
2,0,0,1,0,2345.49,0.251296,0.251029,-0.280067,2,0.0229791,11,-7.0305e-05,-3.55274,-0.269506,-0.218919,0.251253,
2,0,0,1,0,2346.19,0.244304,0.244015,-0.299921,2,0.0227662,11,-7.31851e-05,-3.52299,-0.309313,-0.190745,0.244255,
2,0,0,1,0,2346.89,0.237313,0.237011,-0.314864,2,0.0225411,11,-7.4626e-05,-3.50188,-0.386711,-0.152569,0.237262,
2,0,0,1,0,2347.58,0.230322,0.230048,-0.333525,2,0.0223035,11,-7.67266e-05,-3.47687,-0.290428,-0.203148,0.230314,
2,0,0,1,0,2348.28,0.223329,0.223059,-0.352218,2,0.0220529,11,-7.85653e-05,-3.45319,-0.278398,-0.211926,0.223341,
2,0,0,1,0,2348.98,0.216338,0.216061,-0.371784,2,0.0217882,11,-8.0328e-05,-3.42971,-0.358039,-0.164787,0.216359,
2,0,0,1,0,2349.68,0.209347,0.20904,-0.398749,2,0.0215078,11,-8.33546e-05,-3.3993,-0.236992,-0.248954,0.209359,
2,0,0,1,0,2350.38,0.202355,0.202062,-0.425311,2,0.0212082,11,-8.5939e-05,-3.37129,-0.214879,-0.274573,0.202402,
2,0,0,1,0,2351.08,0.195363,0.195047,-0.464919,2,0.020886,11,-9.06809e-05,-3.33262,-0.158852,-0.371415,0.195419,
2,0,0,1,0,2351.78,0.188372,0.188029,-0.51629,2,0.0205342,11,-9.70777e-05,-3.28711,-0.14871,-0.396745,0.188442,
2,0,0,1,0,2352.48,0.18138,0.181095,-0.581535,2,0.0201433,11,-0.000105313,-3.23542,-0.120436,-0.489888,0.181561,
2,0,0,1,0,2353.18,0.174389,0.174099,-0.672242,2,0.0196974,11,-0.000117037,-3.17247,-0.0964247,-0.611876,0.174637,
2,0,0,1,0,2353.88,0.167398,0.167103,-0.816008,2,0.0191708,11,-0.000136357,-3.08831,-0.0740145,-0.797141,0.167756,
2,0,0,1,0,2354.58,0.160405,0.160111,-1.03492,2,0.0185199,11,-0.000165703,-2.98509,-0.0634096,-0.930458,0.160939,
2,0,0,1,0,2355.27,0.153414,0.153127,-1.32683,2,0.0176878,11,-0.000203174,-2.87718,-0.0681148,-0.866185,0.154189,
2,0,0,1,0,2355.97,0.146423,0.14618,-1.6248,2,0.0166425,11,-0.000237514,-2.7892,-0.0969523,-0.608547,0.14748,
2,0,0,1,0,2356.67,0.139431,0.139154,-1.82169,2,0.015417,11,-0.000253496,-2.73953,-0.224788,-0.26247,0.140612,
2,0,0,1,0,2357.37,0.132439,0.132134,-1.87497,2,0.0141024,11,-0.000247748,-2.727,1.08428,0.0544141,0.133634,
2,0,0,1,0,2358.07,0.125448,0.125176,-1.77133,2,0.0128093,11,-0.000221727,-2.7517,0.163291,0.361317,0.126593,
2,0,0,1,0,2358.77,0.118456,0.118168,-1.56384,2,0.0116329,11,-0.000184796,-2.80581,0.128977,0.457445,0.119419,
2,0,0,1,0,2359.47,0.111465,0.111166,-1.36802,2,0.0106014,11,-0.000152077,-2.86391,0.134976,0.437115,0.11226,
2,0,0,1,0,2360.17,0.104474,0.104167,-1.23287,2,0.009689,11,-0.000128424,-2.90908,0.193724,0.304557,0.105153,
2,0,0,1,0,2360.87,0.0974808,0.0972368,-1.13867,2,0.00885555,11,-0.00011072,-2.9436,0.262837,0.224473,0.0981477,
2,0,0,1,0,2361.57,0.0904901,0.0902005,-1.07191,2,0.00807484,11,-9.66866e-05,-2.96984,0.232639,0.253612,0.091058,
2,0,0,1,0,2362.27,0.0834986,0.0831817,-1.01635,2,0.00733504,11,-8.45417e-05,-2.99296,0.259559,0.227309,0.0839948,
2,0,0,1,0,2362.97,0.076507,0.0762212,-0.961929,2,0.00663372,11,-7.33193e-05,-3.01686,0.269751,0.21872,0.0769907,
2,0,0,1,0,2363.66,0.0695154,0.0692228,-0.900856,2,0.00597292,11,-6.23597e-05,-3.04534,0.244345,0.241462,0.0699434,
2,0,0,1,0,2364.36,0.0625239,0.0622673,-0.846822,2,0.00535185,11,-5.27293e-05,-3.07221,0.303226,0.194575,0.0629447,
2,0,0,1,0,2365.06,0.0555323,0.0552612,-0.804877,2,0.00476535,11,-4.44785e-05,-3.09427,0.379603,0.155425,0.0559051,
2,0,0,1,0,2365.76,0.0485408,0.0482339,-0.774423,2,0.00420472,11,-3.73534e-05,-3.11102,0.467397,0.126231,0.0488534,
2,0,0,1,0,2366.46,0.0415499,0.041299,-0.754732,2,0.00366172,11,-3.11696e-05,-3.12221,436.826,0.000135065,0.0419027,
2,0,0,1,0,2367.16,0.0345568,0.0342631,-0.746661,2,0.00312759,11,-2.55829e-05,-3.12688,3.64847,0.0161711,0.0348604,
2,0,0,1,0,2367.86,0.0275661,0.0272315,-0.749541,2,0.00259645,11,-2.04111e-05,-3.1252,-6.75554,-0.00873357,0.0278311,
2,0,0,1,0,2368.56,0.0205746,0.0202635,-0.753819,2,0.00206289,11,-1.5275e-05,-3.12273,-1.66048,-0.0355319,0.0208666,
2,0,0,1,0,2369.26,0.013583,0.0132595,-0.763389,2,0.0015229,11,-1.01222e-05,-3.11725,-1.29404,-0.0455937,0.0138703,
2,0,0,1,0,2369.96,0.00659147,0.00630765,-0.779078,2,0.000973523,11,-4.91415e-06,-3.10842,-0.920299,-0.0641096,0.00693091,
2,0,0,1,0,2370.6,0.000199195,-0.000155446,-0.796924,2,0.000457935,11,1.23879e-07,-3.09858, , ,0.000482093,

File: 20221101_1-115_002_TrumpetPlot_ParaChange_07_CV_C01_1.csv
mode,ox/red,error,control changes,counter inc.,time/s,control/V,Ewe/V,<I>/mA,cycle number,(Q-Qo)/C,I Range,P/W,log(|I|),Tafel slope mV/dec,alpha_eff,E-IR/V,
2,0,0,0,0,2370.72,2.44065e-05,-0.000439847,-1.08768,2,0.0000000E+000,11,4.78415e-07,-2.9635, , ,0.000430299,
2,1,0,1,0,2371.06,0.00679123,0.00648032,0.839212,2,0.000226685,11,5.43836e-06,-3.07613,0.158827,0.371473,0.00580895,
2,1,0,1,0,2371.4,0.0137828,0.0134995,0.907816,2,0.000535845,11,1.2255e-05,-3.042,0.268477,0.219758,0.0127732,
2,1,0,1,0,2371.75,0.0207743,0.0205046,0.948853,2,0.000862763,11,1.94559e-05,-3.0228,0.458554,0.128665,0.0197455,
2,1,0,1,0,2372.1,0.0277659,0.0274743,0.976486,2,0.00120153,11,2.68282e-05,-3.01033,0.43023,0.137136,0.0266931,
2,1,0,1,0,2372.45,0.0347566,0.034506,1.00724,2,0.00155035,11,3.47558e-05,-2.99687,0.426579,0.13831,0.0337003,
2,1,0,1,0,2372.8,0.041749,0.0414995,1.04535,2,0.00191062,11,4.33814e-05,-2.98074,0.576666,0.102312,0.0406632,
2,1,0,1,0,2373.15,0.0487406,0.0484671,1.08921,2,0.00228477,11,5.27906e-05,-2.96289,0.410063,0.14388,0.0475957,
2,1,0,1,0,2373.5,0.0557321,0.0554341,1.15267,2,0.00267835,11,6.38969e-05,-2.9383,0.299082,0.19727,0.054512,
2,1,0,1,0,2373.85,0.0627241,0.0624403,1.23243,2,0.00309732,11,7.69533e-05,-2.90924,0.20309,0.290511,0.0614544,
2,1,0,1,0,2374.2,0.0697152,0.0694536,1.33084,2,0.00354886,11,9.24318e-05,-2.87587,0.192424,0.306615,0.0683889,
2,1,0,1,0,2374.55,0.0767068,0.0764304,1.44901,2,0.00403869,11,0.000110749,-2.83893,0.197557,0.298648,0.0752712,
2,1,0,1,0,2374.9,0.0836983,0.0834011,1.57126,2,0.00457017,11,0.000131045,-2.80375,0.210872,0.27979,0.0821441,
2,1,0,1,0,2375.25,0.0906899,0.0904002,1.684,2,0.00514218,11,0.000152234,-2.77366,0.205543,0.287045,0.089053,
2,1,0,1,0,2375.6,0.0976805,0.0974106,1.80466,2,0.00575465,11,0.000175793,-2.74361,0.204983,0.287829,0.0959669,
2,1,0,1,0,2375.95,0.104673,0.104438,1.94687,2,0.00641066,11,0.000203326,-2.71066,0.189244,0.311767,0.10288,
2,1,0,1,0,2376.3,0.111665,0.11137,2.14132,2,0.00712412,11,0.000238479,-2.66932,0.137549,0.428937,0.109657,
2,1,0,1,0,2376.65,0.118656,0.118396,2.43349,2,0.0079223,11,0.000288115,-2.61377,0.11405,0.517319,0.116449,
2,1,0,1,0,2377,0.125648,0.125387,2.82304,2,0.00884096,11,0.000353973,-2.54928,0.104179,0.566334,0.123129,
2,1,0,1,0,2377.35,0.132639,0.132367,3.24293,2,0.00990393,11,0.000429255,-2.48906,0.130317,0.452742,0.129772,
2,1,0,1,0,2377.7,0.139631,0.139379,3.54845,2,0.011098,11,0.000494579,-2.44996,0.278034,0.212204,0.13654,
2,1,0,1,0,2378.05,0.146622,0.146332,3.62885,2,0.0123652,11,0.000531018,-2.44023,-0.964839,-0.0611501,0.143429,
2,1,0,1,0,2378.4,0.153614,0.153328,3.39995,2,0.013609,11,0.000521306,-2.46853,-0.1382,-0.426919,0.150608,
2,1,0,1,0,2378.75,0.160605,0.160344,2.83073,2,0.0147088,11,0.00045389,-2.5481,-0.0737305,-0.800212,0.158079,
2,1,0,1,0,2379.1,0.167597,0.167338,2.19887,2,0.0155858,11,0.000367954,-2.6578,-0.072817,-0.810251,0.165579,
2,1,0,1,0,2379.45,0.174589,0.174315,1.76474,2,0.0162745,11,0.000307621,-2.75332,-0.0897268,-0.657551,0.172903,
2,1,0,1,0,2379.79,0.18158,0.181334,1.50507,2,0.0168434,11,0.000272921,-2.82244,-0.119761,-0.492649,0.18013,
2,1,0,1,0,2380.14,0.188572,0.188285,1.33444,2,0.0173392,11,0.000251256,-2.8747,-0.169818,-0.347431,0.187218,
2,1,0,1,0,2380.49,0.195563,0.195324,1.22976,2,0.0177877,11,0.000240201,-2.91018,-0.194648,-0.303111,0.19434,
2,1,0,1,0,2380.84,0.202555,0.202311,1.14924,2,0.0182048,11,0.000232504,-2.93959,-0.28093,-0.210017,0.201392,
2,1,0,1,0,2381.19,0.209546,0.209276,1.09868,2,0.0186,11,0.000229928,-2.95913,-0.344306,-0.171359,0.208397,
2,1,0,1,0,2381.54,0.216538,0.216283,1.0531,2,0.0189787,11,0.000227767,-2.97753,-0.483282,-0.122082,0.21544,
2,1,0,1,0,2381.89,0.223528,0.223248,1.02615,2,0.0193452,11,0.000229087,-2.98879,-0.702762,-0.0839545,0.222427,
2,1,0,1,0,2382.24,0.230521,0.230259,1.00114,2,0.0197022,11,0.00023052,-2.99951,-0.793582,-0.0743464,0.229458,
2,1,0,1,0,2382.59,0.237512,0.237261,0.980945,2,0.0200517,11,0.00023274,-3.00836,-1.32152,-0.0446455,0.236476,
2,1,0,1,0,2382.94,0.244504,0.244255,0.966376,2,0.0203948,11,0.000236043,-3.01485,-1.56212,-0.0377693,0.243482,
2,1,0,1,0,2383.29,0.251496,0.251258,0.950696,2,0.0207325,11,0.00023887,-3.02196,-1.38346,-0.0426466,0.250497,
2,1,0,1,0,2383.64,0.258489,0.258191,0.940205,2,0.0210654,11,0.000242752,-3.02678,-1.15073,-0.051272,0.257439,
2,1,0,1,0,2383.99,0.265479,0.265204,0.92902,2,0.0213938,11,0.00024638,-3.03198,-0.661995,-0.0891246,0.264461,
2,1,0,1,0,2384.34,0.27247,0.272192,0.91701,2,0.0217185,11,0.000249603,-3.03763,-1.34464,-0.043878,0.271458,
2,1,0,1,0,2384.69,0.279462,0.279191,0.904566,2,0.0220393,11,0.000252547,-3.04356,-1.03481,-0.0570151,0.278468,
2,1,0,1,0,2385.04,0.286452,0.286174,0.898107,2,0.0223567,11,0.000257015,-3.04667,-1.44489,-0.0408335,0.285456,
2,1,0,1,0,2385.39,0.293445,0.293153,0.881861,2,0.0226708,11,0.00025852,-3.0546,-1.099,-0.0536849,0.292447,
2,1,0,1,0,2385.72,0.300012,0.299708,0.861532,2,0.0229635,11,0.000258208,-3.06473,-0.000895349,-65.8961,0.299019,
2,0,0,1,0,2386.05,0.293247,0.292963,-0.291334,2,0.0228954,11,-8.53499e-05,-3.53561,-0.0434341,-1.35838,0.293196,
2,0,0,1,0,2386.4,0.286254,0.285982,-0.371216,2,0.0227755,11,-0.000106161,-3.43037,-0.0885725,-0.666121,0.286279,
2,0,0,1,0,2386.75,0.279262,0.279004,-0.425374,2,0.0226325,11,-0.000118681,-3.37123,-0.148377,-0.397635,0.279344,
2,0,0,1,0,2387.1,0.272271,0.271969,-0.469226,2,0.0224729,11,-0.000127615,-3.32862,-0.191633,-0.307881,0.272344,
2,0,0,1,0,2387.45,0.265279,0.264971,-0.508516,2,0.022299,11,-0.000134742,-3.2937,-0.179643,-0.328429,0.265377,
2,0,0,1,0,2387.8,0.258286,0.258,-0.54339,2,0.0221129,11,-0.000140195,-3.26489,-0.238623,-0.247252,0.258435,
2,0,0,1,0,2388.15,0.251296,0.251011,-0.576013,2,0.0219152,11,-0.000144586,-3.23957,-0.336062,-0.175563,0.251472,
2,0,0,1,0,2388.5,0.244304,0.244045,-0.606268,2,0.0217066,11,-0.000147957,-3.21734,-0.34152,-0.172757,0.24453,
2,0,0,1,0,2388.85,0.237313,0.237038,-0.635903,2,0.0214873,11,-0.000150733,-3.19661,-0.481604,-0.122507,0.237547,
2,0,0,1,0,2389.2,0.230323,0.23002,-0.66526,2,0.0212571,11,-0.000153023,-3.17701,-0.353776,-0.166772,0.230552,
2,0,0,1,0,2389.55,0.22333,0.223088,-0.707355,2,0.0210152,11,-0.000157802,-3.15036,-0.321435,-0.183552,0.223654,
2,0,0,1,0,2389.9,0.216338,0.216026,-0.733106,2,0.0207607,11,-0.00015837,-3.13483,-0.316173,-0.186607,0.216613,
2,0,0,1,0,2390.25,0.209347,0.209061,-0.783048,2,0.0204919,11,-0.000163705,-3.10621,-0.27694,-0.213043,0.209688,
2,0,0,1,0,2390.6,0.202355,0.202067,-0.834358,2,0.0202055,11,-0.000168596,-3.07865,-0.218799,-0.269654,0.202735,
2,0,0,1,0,2390.95,0.195363,0.195047,-0.909678,2,0.0198984,11,-0.00017743,-3.04111,-0.153054,-0.385484,0.195775,
2,0,0,1,0,2391.3,0.188372,0.188073,-0.996701,2,0.0195636,11,-0.000187453,-3.00143,-0.143066,-0.412397,0.18887,
2,0,0,1,0,2391.65,0.18138,0.181098,-1.11905,2,0.0191922,11,-0.000202658,-2.95115,-0.124639,-0.473368,0.181994,
2,0,0,1,0,2392,0.174389,0.174066,-1.29344,2,0.0187691,11,-0.000225144,-2.88826,-0.0950641,-0.620634,0.175101,
2,0,0,1,0,2392.35,0.167399,0.167098,-1.56214,2,0.0182707,11,-0.00026103,-2.80628,-0.0745765,-0.791134,0.168347,
2,0,0,1,0,2392.7,0.160406,0.160109,-1.95808,2,0.0176579,11,-0.000313506,-2.70817,-0.064601,-0.913298,0.161675,
2,0,0,1,0,2393.05,0.153414,0.153108,-2.49097,2,0.0168807,11,-0.000381388,-2.60363,-0.0690941,-0.853908,0.155101,
2,0,0,1,0,2393.4,0.146423,0.146152,-3.05979,2,0.0159069,11,-0.000447195,-2.51431,-0.0898407,-0.656718,0.1486,
2,0,0,1,0,2393.75,0.139431,0.139181,-3.4677,2,0.014756,11,-0.000482637,-2.45996,-0.181264,-0.325492,0.141955,
2,0,0,1,0,2394.1,0.132439,0.132103,-3.63856,2,0.013501,11,-0.000480666,-2.43907,-14.534,-0.00405945,0.135014,
2,0,0,1,0,2394.44,0.125448,0.125208,-3.49861,2,0.0122423,11,-0.000438053,-2.4561,0.196794,0.299806,0.128007,
2,0,0,1,0,2394.79,0.118456,0.118134,-3.11198,2,0.0110799,11,-0.00036763,-2.50696,0.127742,0.46187,0.120624,
2,0,0,1,0,2395.14,0.111465,0.111177,-2.69983,2,0.0100634,11,-0.000300159,-2.56866,0.124855,0.472547,0.113337,
2,0,0,1,0,2395.49,0.104475,0.104172,-2.40195,2,0.00917501,11,-0.000250217,-2.61944,0.167616,0.351996,0.106094,
2,0,0,1,0,2395.84,0.0974817,0.0971897,-2.20241,2,0.0083723,11,-0.000214052,-2.6571,0.249499,0.236474,0.0989517,
2,0,0,1,0,2396.19,0.0904901,0.090177,-2.07022,2,0.00762489,11,-0.000186686,-2.68398,0.27656,0.213336,0.0918332,
2,0,0,1,0,2396.54,0.0834986,0.0831811,-1.96141,2,0.00691836,11,-0.000163152,-2.70743,0.277449,0.212652,0.0847502,
2,0,0,1,0,2396.89,0.076507,0.0761715,-1.85523,2,0.00624904,11,-0.000141315,-2.7316,0.257638,0.229003,0.0776556,
2,0,0,1,0,2397.24,0.0695146,0.0692476,-1.73639,2,0.00561856,11,-0.000120241,-2.76035,0.249178,0.236778,0.0706367,
2,0,0,1,0,2397.59,0.0625239,0.062264,-1.62696,2,0.00502744,11,-0.000101301,-2.78862,0.257204,0.22939,0.0635656,
2,0,0,1,0,2397.94,0.0555323,0.0552394,-1.53798,2,0.00447126,11,-8.49569e-05,-2.81305,0.324814,0.181643,0.0564698,
2,0,0,1,0,2398.29,0.0485408,0.0482107,-1.47672,2,0.00394232,11,-7.11935e-05,-2.8307,0.410258,0.143812,0.0493921,
2,0,0,1,0,2398.64,0.041551,0.0412501,-1.43219,2,0.00343217,11,-5.90781e-05,-2.844,3.88205,0.0151982,0.0423958,
2,0,0,1,0,2398.99,0.0345577,0.0342513,-1.41331,2,0.00293245,11,-4.84078e-05,-2.84976,4.4717,0.0131941,0.0353819,
2,0,0,1,0,2399.34,0.0275661,0.027244,-1.41352,2,0.0024372,11,-3.85098e-05,-2.8497,16.0312,0.00368032,0.0283748,
2,0,0,1,0,2399.69,0.0205746,0.0202458,-1.41753,2,0.00194137,11,-2.8699e-05,-2.84847,-2.85091,-0.0206951,0.0213798,
2,0,0,1,0,2400.04,0.013583,0.013284,-1.4346,2,0.00144081,11,-1.90573e-05,-2.84327,-1.96716,-0.0299925,0.0144317,
2,0,0,1,0,2400.39,0.00659058,0.00626653,-1.45725,2,0.000932947,11,-9.13188e-06,-2.83647,-0.735704,-0.0801953,0.00743233,
2,0,0,1,0,2400.71,0.000199195,-0.000119673,-1.4919,2,0.000457514,11,1.7854e-07,-2.82626, , ,0.00107385,