Folder: Figs_alphaMnO2_OER_Tafel_sleope/Figure_codes/Fig_2_S1_S6 (part 4)

File: 20220924_003_MultiCV_0_850mV_1-84_C_02_CV_C01_60.csv
mode,ox/red,error,control changes,counter inc.,time/s,control/V,Ewe/V,<I>/mA,cycle number,(Q-Qo)/C,I Range,P/W,log(|I|),Tafel slope mV/dec,alpha_eff,E-IR/V,
2,0,0,0,0,22229.6,2.17368e-05,-0.000199204,-0.189075,61,0.0000000E+000,10,3.76644e-08,-3.72337, , ,0.000139239,
2,1,0,0,0,22233.3,0.0187771,0.0184968,0.255979,61,0.000484853,10,4.7348e-06,-3.5918,0.077009,0.766145,0.0180386,
2,1,0,1,0,22237.1,0.0375824,0.0374696,0.339611,61,0.00166311,10,1.27251e-05,-3.46902,0.310362,0.1901,0.0368617,
2,1,0,1,0,22240.9,0.0563878,0.0560893,0.376741,61,0.00304148,10,2.11311e-05,-3.42396,0.394689,0.149485,0.0554149,
2,1,0,0,0,22244.6,0.0751931,0.0748808,0.405765,61,0.00453633,10,3.0384e-05,-3.39173,0.427408,0.138041,0.0741545,
2,1,0,1,0,22248.4,0.0939985,0.0937486,0.455265,61,0.00616894,10,4.26804e-05,-3.34174,0.275177,0.214407,0.0929337,
2,1,0,1,0,22252.1,0.112804,0.112521,0.563747,61,0.008083,10,6.34334e-05,-3.24892,0.170092,0.346872,0.111512,
2,1,0,0,0,22255.9,0.131609,0.131398,0.800254,61,0.0106209,10,0.000105152,-3.09677,0.104274,0.565816,0.129966,
2,1,0,1,0,22259.7,0.150415,0.150199,1.16168,61,0.0143334,10,0.000174484,-2.93491,0.141012,0.418403,0.14812,
2,1,0,1,0,22263.4,0.16922,0.168848,1.38072,61,0.0192271,10,0.000233131,-2.8599,0.782172,0.075431,0.166376,
2,1,0,0,0,22267.2,0.188025,0.187811,1.28479,61,0.0243734,10,0.000241298,-2.89117,-0.22298,-0.264598,0.185511,
2,1,0,1,0,22270.9,0.206831,0.206602,0.907016,61,0.028555,10,0.000187392,-3.04239,-0.108192,-0.545327,0.204979,
2,1,0,1,0,22274.7,0.225636,0.225346,0.633555,61,0.0314019,10,0.000142769,-3.19822,-0.154954,-0.380759,0.224212,
2,1,0,0,0,22278.5,0.244441,0.244348,0.523567,61,0.0335645,10,0.000127932,-3.28103,-0.342377,-0.172325,0.24341,
2,1,0,1,0,22282.2,0.263247,0.262996,0.469744,61,0.0354427,10,0.000123541,-3.32814,-0.859424,-0.0686507,0.262155,
2,1,0,1,0,22286,0.282052,0.281787,0.440331,61,0.0371744,10,0.00012408,-3.35622,-1.00849,-0.0585035,0.280999,
2,1,0,0,0,22289.8,0.300857,0.30055,0.421944,61,0.0388189,10,0.000126815,-3.37474,-0.897178,-0.0657617,0.299795,
2,1,0,0,0,22293.5,0.319663,0.319408,0.406189,61,0.0403991,10,0.00012974,-3.39127,2.67058,0.0220926,0.318681,
2,1,0,1,0,22297.3,0.338468,0.338181,0.393888,61,0.0419278,10,0.000133205,-3.40463,-1.58768,-0.0371611,0.337476,
2,1,0,0,0,22301,0.357273,0.357087,0.382699,61,0.0434117,10,0.000136657,-3.41714,-7.11064,-0.00829742,0.356402,
2,1,0,0,0,22304.8,0.376079,0.375821,0.372678,61,0.0448544,10,0.00014006,-3.42867,-1.28062,-0.0460715,0.375154,
2,1,0,1,0,22308.6,0.394884,0.394622,0.363689,61,0.0462582,10,0.00014352,-3.43927,-0.734201,-0.0803595,0.393971,
2,1,0,0,0,22312.3,0.41369,0.413423,0.356771,61,0.047628,10,0.000147497,-3.44761,3.38516,0.017429,0.412784,
2,1,0,0,0,22316.1,0.432495,0.432262,0.351591,61,0.0489752,10,0.00015198,-3.45396,-0.938931,-0.0628374,0.431633,
2,1,0,1,0,22319.8,0.4513,0.451159,0.347237,61,0.0503035,10,0.000156659,-3.45937,-5.73818,-0.010282,0.450537,
2,1,0,0,0,22323.6,0.470106,0.469921,0.345887,61,0.0516197,10,0.00016254,-3.46107,2.49372,0.0236594,0.469302,
2,1,0,0,0,22327.4,0.488911,0.488751,0.343544,61,0.0529292,10,0.000167907,-3.46402,-157.097,-0.000375565,0.488136,
2,1,0,1,0,22331.1,0.507716,0.507495,0.345614,61,0.0542413,10,0.000175397,-3.46141,1.5241,0.0387114,0.506876,
2,1,0,0,0,22334.9,0.526522,0.526286,0.349184,61,0.0555626,10,0.000183771,-3.45695,3.19376,0.0184735,0.525661,
2,1,0,0,0,22338.6,0.545327,0.545049,0.353714,61,0.056899,10,0.000192791,-3.45135,11.2677,0.00523622,0.544416,
2,1,0,1,0,22342.4,0.564132,0.563831,0.360996,61,0.0582587,10,0.000203541,-3.4425,1.04615,0.0563975,0.563185,
2,1,0,1,0,22346.2,0.582938,0.582785,0.373294,61,0.0596533,10,0.00021755,-3.42795,1.14005,0.0517522,0.582117,
2,1,0,0,0,22349.9,0.601743,0.601471,0.38937,61,0.0610992,10,0.000234195,-3.40964,0.96196,0.0613331,0.600774,
2,1,0,1,0,22353.7,0.620548,0.620349,0.413183,61,0.0626188,10,0.000256317,-3.38386,0.576525,0.102337,0.619609,
2,1,0,1,0,22357.5,0.639354,0.63914,0.450287,61,0.0642511,10,0.000287796,-3.34651,0.401601,0.146912,0.638334,
2,1,0,0,0,22361.2,0.658159,0.65796,0.514597,61,0.066066,10,0.000338585,-3.28853,0.209624,0.281457,0.657039,
2,1,0,1,0,22365,0.676965,0.676799,0.623709,61,0.0681984,10,0.000422126,-3.20502,0.184695,0.319446,0.675683,
2,1,0,1,0,22368.7,0.69577,0.695562,0.813409,61,0.0708835,10,0.000565777,-3.08969,0.148023,0.398587,0.694106,
2,1,0,0,0,22372.5,0.714575,0.714392,1.10148,61,0.0744618,10,0.000786888,-2.95802,0.133303,0.4426,0.71242,
2,1,0,1,0,22376.3,0.733381,0.73326,1.49764,61,0.0793292,10,0.00109816,-2.82459,0.132926,0.443857,0.730579,
2,1,0,1,0,22380,0.752186,0.751994,1.98824,61,0.0858651,10,0.00149515,-2.70153,0.166559,0.354229,0.748435,
2,1,0,0,0,22383.8,0.770991,0.770833,2.56276,61,0.0944066,10,0.00197546,-2.59129,0.163293,0.361313,0.766246,
2,1,0,1,0,22387.5,0.789797,0.78951,3.23276,61,0.105287,10,0.0025523,-2.49043,0.188282,0.313359,0.783723,
2,1,0,1,0,22391.3,0.808602,0.808349,4.01482,61,0.118893,10,0.00324538,-2.39633,0.190643,0.309478,0.801163,
2,1,0,0,0,22395.1,0.827407,0.827332,4.92774,61,0.13568,10,0.00407688,-2.30735,0.196636,0.300047,0.818511,
2,1,0,0,0,22398.8,0.846213,0.846047,5.9605,61,0.156135,10,0.00504286,-2.22472,0.223311,0.264205,0.835377,
2,1,0,0,0,22402.6,0.83501,0.834795,4.9861,61,0.177282,10,0.00416237,-2.30224,0.146895,0.401648,0.82587,
2,1,0,1,0,22406.3,0.816204,0.816041,3.86422,61,0.193814,10,0.00315336,-2.41294,0.151643,0.389072,0.809124,
2,1,0,0,0,22410.1,0.797399,0.797202,2.99056,61,0.206624,10,0.00238408,-2.52425,0.163872,0.360037,0.791849,
2,1,0,0,0,22413.9,0.778594,0.778449,2.29253,61,0.216502,10,0.00178462,-2.63969,0.150227,0.392738,0.774345,
2,1,0,1,0,22417.6,0.759788,0.759524,1.71768,61,0.223998,10,0.00130462,-2.76506,0.134974,0.437122,0.756449,
2,1,0,0,0,22421.4,0.740983,0.740809,1.24247,61,0.229525,10,0.000920433,-2.90571,0.108337,0.544598,0.738585,
2,1,0,0,0,22425.1,0.722177,0.72196,0.854732,61,0.233434,10,0.000617082,-3.06817,0.0975501,0.604818,0.72043,
2,1,0,1,0,22428.9,0.703372,0.703083,0.551552,61,0.236043,10,0.000387787,-3.25841,0.0830404,0.710497,0.702095,
2,1,0,1,0,22432.7,0.684567,0.684272,0.324288,61,0.237654,10,0.000221901,-3.48907,0.0718073,0.821644,0.683692,
2,1,0,0,0,22436.4,0.665761,0.665614,0.159432,61,0.238531,10,0.00010612,-3.79742,0.0462676,1.27519,0.665329,
2,1,0,1,0,22440.2,0.646956,0.646804,0.0389624,61,0.238878,10,2.5201e-05,-4.40935,0.0156226,3.77657,0.646734,
2,0,0,1,0,22443.9,0.628151,0.627907,-0.0455001,61,0.238843,10,-2.85698e-05,-4.34199,-0.0272528,-2.16492,0.627989,
2,0,0,0,0,22447.7,0.609345,0.609144,-0.109577,61,0.238534,10,-6.67482e-05,-3.96028,-0.0819111,-0.720293,0.609341,
2,0,0,1,0,22451.5,0.59054,0.590362,-0.154326,61,0.23802,10,-9.11085e-05,-3.81156,-0.117996,-0.500019,0.590639,
2,0,0,1,0,22455.2,0.571735,0.571523,-0.183967,61,0.237366,10,-0.000105141,-3.73526,-0.374479,-0.157552,0.571853,
2,0,0,0,0,22459,0.552929,0.552751,-0.204787,61,0.236617,10,-0.000113196,-3.6887,-0.479091,-0.12315,0.553117,
2,0,0,1,0,22462.7,0.534124,0.533921,-0.217566,61,0.235808,10,-0.000116163,-3.66241,-1.29634,-0.0455129,0.534311,
2,0,0,1,0,22466.5,0.515319,0.51512,-0.225231,61,0.234961,10,-0.000116021,-3.64737,-1.06276,-0.0555159,0.515523,
2,0,0,0,0,22470.3,0.496513,0.496281,-0.232227,61,0.234087,10,-0.00011525,-3.63409,-3.10311,-0.0190132,0.496697,
2,0,0,1,0,22474,0.477708,0.477509,-0.23947,61,0.233186,10,-0.000114349,-3.62075,-2.71341,-0.0217439,0.477937,
2,0,0,1,0,22477.8,0.458902,0.458774,-0.246863,61,0.232256,10,-0.000113254,-3.60754,-1.82514,-0.0323263,0.459216,
2,0,0,0,0,22481.6,0.440097,0.439907,-0.257046,61,0.231291,10,-0.000113076,-3.58999,-0.726653,-0.0811941,0.440367,
2,0,0,0,0,22485.3,0.421292,0.421077,-0.268812,61,0.230282,10,-0.000113191,-3.57055,-0.837474,-0.0704499,0.421558,
2,0,0,1,0,22489.1,0.402486,0.402314,-0.283344,61,0.229225,10,-0.000113993,-3.54769,-0.640878,-0.0920612,0.402821,
2,0,0,0,0,22492.8,0.383681,0.383494,-0.297959,61,0.228111,10,-0.000114266,-3.52584,-1.22199,-0.048282,0.384027,
2,0,0,0,0,22496.6,0.364876,0.364731,-0.315729,61,0.226934,10,-0.000115156,-3.50069,-0.808353,-0.0729879,0.365296,
2,0,0,1,0,22500.4,0.34607,0.345949,-0.336141,61,0.225682,10,-0.000116288,-3.47348,-0.537188,-0.109831,0.346551,
2,0,0,0,0,22504.1,0.327265,0.326996,-0.357376,61,0.224354,10,-0.000116861,-3.44687,-0.512825,-0.115049,0.327635,
2,0,0,0,0,22507.9,0.30846,0.308309,-0.377418,61,0.22295,10,-0.000116361,-3.42318,-0.576286,-0.10238,0.308985,
2,0,0,1,0,22511.6,0.289654,0.28946,-0.398985,61,0.221469,10,-0.00011549,-3.39904,-0.75322,-0.0783304,0.290175,
2,0,0,0,0,22515.4,0.270849,0.270621,-0.420408,61,0.219909,10,-0.000113771,-3.37633,-0.671521,-0.0878602,0.271374,
2,0,0,0,0,22519.2,0.252044,0.251839,-0.443325,61,0.218266,10,-0.000111647,-3.35328,-0.658779,-0.0895596,0.252633,
2,0,0,1,0,22522.9,0.233238,0.232914,-0.470642,61,0.216526,10,-0.000109619,-3.32731,-1.05687,-0.0558254,0.233757,
2,0,0,1,0,22526.7,0.214433,0.214228,-0.508685,61,0.214658,10,-0.000108974,-3.29355,-0.313062,-0.188461,0.215138,
2,0,0,0,0,22530.4,0.195627,0.19536,-0.574276,61,0.212601,10,-0.000112191,-3.24088,-0.264958,-0.222676,0.196388,
2,0,0,1,0,22534.2,0.176822,0.176635,-0.701522,61,0.210199,10,-0.000123913,-3.15396,-0.178042,-0.331382,0.177891,
2,0,0,1,0,22538,0.158017,0.157767,-0.968129,61,0.207068,10,-0.000152739,-3.01407,-0.115835,-0.509345,0.1595,
2,0,0,0,0,22541.7,0.139211,0.138986,-1.29194,61,0.202766,10,-0.000179561,-2.88876,-0.198269,-0.297575,0.141298,
2,0,0,1,0,22545.5,0.120406,0.120175,-1.4441,61,0.197503,10,-0.000173545,-2.8404,-11.5634,-0.00510233,0.12276,
2,0,0,1,0,22549.2,0.101601,0.101364,-1.34565,61,0.19217,10,-0.000136401,-2.87107,0.329183,0.179232,0.103773,
2,0,0,0,0,22553,0.0827953,0.0825825,-1.1351,61,0.187472,10,-9.37395e-05,-2.94497,0.255776,0.23067,0.0846143,
2,0,0,1,0,22556.8,0.06399,0.0637338,-0.96968,61,0.183509,10,-6.18014e-05,-3.01337,0.36069,0.163575,0.0654695,
2,0,0,1,0,22560.5,0.0451846,0.0449709,-0.886613,61,0.180012,10,-3.98718e-05,-3.05227,0.825451,0.071476,0.046558,
2,0,0,0,0,22564.3,0.0263792,0.0261222,-0.853007,61,0.176722,10,-2.22824e-05,-3.06905,2.39958,0.0245877,0.0276491,
2,0,0,1,0,22568.1,0.00757389,0.00731166,-0.845161,61,0.173505,10,-6.17953e-06,-3.07306,-98438.6,-5.99358e-07,0.00882449,
2,0,0,0,0,22569.5,0.00017178,-0.000180117,-0.854578,61,0.172232,10,1.53924e-07,-3.06825, , ,0.00134958,