Folder: Figs_alphaMnO2_OER_Tafel_sleope/Figure_codes/Fig_6

Note: README.md
# Figs_alphaMnO2_OER_Tafel_sleope
Figures and analyses of "A Non-Rate-Determining Redox Process Dictates the Oxygen Evolution Tafel Slope of MnO2"

File: UV_vis_comp_Potential_BeforeCVs.csv
波長 (nm),0 mV,50 mV,100 mV,150 mV,200 mV,300 mV,400 mV,500 mV,600 mV,700 mV,800 mV,100-0,200-100,300-200,400-300,500-400,600-500,700-600,800-700,800 - 500,500 - 300,Raw data name,Mod column name
300,0.018,0.001,0.05,0.024,0.055,-0.001,0.071,0.072,0.035,0.037,0.014,0.032,0.005,-0.056,0.072,0.001,-0.037,0.002,-0.023,-0.058,0.073,20221215_1-140_006_0mV.spc - RawData,0 mV
307,0.026,0.022,0.044,0.013,0.005,0.014,0.049,0.022,0.055,0.046,0.028,0.018,-0.039,0.009,0.035,-0.027,0.033,-0.009,-0.018,0.006,0.008,20221215_1-140_013_500mV.spc - RawData,500 mV
314,0.029,0.011,0.022,0.022,-0.003,0.044,0.055,0.035,0.015,0.049,0.035,-0.007,-0.025,0.047,0.011,-0.02,-0.02,0.034,-0.014,0,-0.009,,200-100
321,0.02,0.008,0.01,0.005,0.001,0.031,0.026,0.027,0.034,0.017,0.021,-0.01,-0.009,0.03,-0.005,0.001,0.007,-0.017,0.004,-0.007,-0.003,,
328,-0.006,0.002,-0.002,0.005,0.02,0.014,0.009,0.023,0.032,0.02,0.029,0.004,0.022,-0.006,-0.005,0.014,0.009,-0.012,0.009,0.006,0.009,,
335,0.011,0.01,0.016,0.011,0.016,0.019,0.029,0.017,0.03,0.045,0.021,0.005,0,0.003,0.01,-0.012,0.013,0.015,-0.024,0.005,-0.002,,
342,-0.003,0.001,0.007,-0.006,0.007,0.011,0.015,0.016,0.024,0.027,0.025,0.01,0,0.004,0.004,0.001,0.008,0.003,-0.002,0.009,0.005,,
349,0.003,0.015,0.023,0.026,0.024,0.024,0.034,0.042,0.036,0.039,0.039,0.02,0.001,0,0.01,0.008,-0.006,0.003,0,-0.003,0.018,,
356,0.01,0.01,0.011,0.021,0.028,0.031,0.034,0.028,0.039,0.04,0.038,0.001,0.017,0.003,0.003,-0.006,0.011,0.001,-0.002,0.01,-0.003,,
363,-0.002,0.007,0.007,0.016,0.019,0.027,0.025,0.039,0.033,0.037,0.032,0.009,0.012,0.008,-0.002,0.014,-0.006,0.004,-0.005,-0.007,0.012,,
370,0.01,0.006,0.006,0.011,0.025,0.017,0.026,0.031,0.036,0.038,0.034,-0.004,0.019,-0.008,0.009,0.005,0.005,0.002,-0.004,0.003,0.014,,
377,-0.001,0.008,0.01,0.017,0.022,0.028,0.031,0.032,0.034,0.041,0.038,0.011,0.012,0.006,0.003,0.001,0.002,0.007,-0.003,0.007,0.003,,
384,0,0.008,0.008,0.017,0.024,0.023,0.026,0.039,0.036,0.043,0.04,0.008,0.016,-0.001,0.003,0.013,-0.003,0.007,-0.003,0.001,0.016,,
391,-0.004,0.004,0.004,0.013,0.017,0.02,0.031,0.032,0.033,0.037,0.04,0.008,0.013,0.003,0.011,0.001,0.001,0.004,0.003,0.008,0.012,,
398,-0.002,0.004,0.011,0.016,0.024,0.026,0.033,0.039,0.042,0.039,0.043,0.013,0.013,0.002,0.007,0.006,0.003,-0.003,0.004,0.004,0.013,,
405,0,0.005,0.009,0.015,0.025,0.029,0.035,0.035,0.042,0.044,0.046,0.009,0.016,0.004,0.006,0,0.007,0.002,0.002,0.011,0.006,,
412,0.005,0.007,0.009,0.019,0.024,0.034,0.035,0.042,0.04,0.048,0.048,0.004,0.015,0.01,0.001,0.007,-0.002,0.008,0,0.006,0.008,,
419,0.001,0.009,0.011,0.019,0.026,0.03,0.038,0.039,0.041,0.049,0.048,0.01,0.015,0.004,0.008,0.001,0.002,0.008,-0.001,0.01,0.008,,
426,0,0.006,0.01,0.017,0.025,0.033,0.034,0.043,0.049,0.051,0.053,0.01,0.015,0.008,0.001,0.009,0.006,0.002,0.002,0.01,0.01,,
433,0.002,0.005,0.008,0.014,0.027,0.036,0.039,0.045,0.048,0.052,0.055,0.006,0.019,0.009,0.003,0.006,0.003,0.004,0.003,0.01,0.009,,
440,-0.002,0.008,0.011,0.018,0.029,0.039,0.045,0.047,0.051,0.054,0.056,0.013,0.018,0.01,0.006,0.002,0.004,0.003,0.002,0.009,0.008,,
447,0.001,0.008,0.013,0.018,0.03,0.04,0.047,0.048,0.052,0.056,0.061,0.012,0.017,0.01,0.007,0.001,0.004,0.004,0.005,0.013,0.008,,
454,0.002,0.005,0.008,0.016,0.029,0.039,0.045,0.051,0.055,0.06,0.061,0.006,0.021,0.01,0.006,0.006,0.004,0.005,0.001,0.011,0.011,,
461,0.002,0.005,0.011,0.017,0.031,0.039,0.044,0.051,0.055,0.063,0.062,0.009,0.02,0.008,0.005,0.007,0.004,0.008,-0.001,0.011,0.012,,
468,0,0.008,0.013,0.022,0.033,0.045,0.049,0.056,0.061,0.066,0.068,0.013,0.02,0.012,0.004,0.007,0.005,0.005,0.002,0.012,0.011,,
475,-0.001,0.007,0.012,0.022,0.033,0.044,0.05,0.056,0.06,0.068,0.071,0.013,0.021,0.011,0.006,0.006,0.004,0.008,0.003,0.015,0.012,,
482,0.002,0.009,0.013,0.022,0.039,0.046,0.053,0.06,0.064,0.071,0.074,0.011,0.026,0.007,0.007,0.007,0.004,0.007,0.003,0.013,0.015,,
489,-0.001,0.009,0.014,0.022,0.038,0.047,0.054,0.061,0.066,0.072,0.076,0.015,0.024,0.009,0.007,0.007,0.005,0.006,0.004,0.015,0.014,,
496,0.003,0.008,0.014,0.024,0.036,0.047,0.056,0.06,0.068,0.073,0.076,0.011,0.022,0.011,0.009,0.004,0.008,0.005,0.003,0.016,0.013,,
503,0.001,0.008,0.015,0.022,0.038,0.046,0.055,0.06,0.067,0.072,0.077,0.014,0.023,0.008,0.009,0.005,0.007,0.005,0.005,0.016,0.014,,
510,0.002,0.008,0.015,0.02,0.035,0.046,0.053,0.059,0.067,0.071,0.075,0.013,0.02,0.011,0.007,0.006,0.008,0.004,0.004,0.016,0.013,,
517,-0.003,0.005,0.009,0.019,0.03,0.04,0.049,0.054,0.06,0.066,0.073,0.012,0.021,0.01,0.009,0.005,0.006,0.006,0.007,0.019,0.014,,
524,0,0.006,0.012,0.019,0.032,0.043,0.05,0.056,0.06,0.068,0.072,0.012,0.02,0.011,0.007,0.006,0.004,0.008,0.004,0.016,0.013,,
531,-0.002,0.004,0.009,0.018,0.029,0.039,0.046,0.052,0.057,0.065,0.071,0.011,0.02,0.01,0.007,0.006,0.005,0.008,0.006,0.018,0.014,,
538,-0.001,0.005,0.011,0.016,0.028,0.038,0.043,0.049,0.057,0.062,0.067,0.012,0.017,0.01,0.005,0.006,0.008,0.005,0.005,0.017,0.011,,
545,0,0.005,0.01,0.016,0.029,0.038,0.043,0.05,0.055,0.062,0.066,0.01,0.019,0.009,0.005,0.007,0.005,0.007,0.004,0.016,0.012,,
552,-0.002,0.004,0.009,0.015,0.025,0.034,0.04,0.045,0.052,0.056,0.063,0.011,0.016,0.009,0.006,0.005,0.007,0.004,0.007,0.018,0.011,,
559,-0.002,0.002,0.009,0.012,0.023,0.032,0.036,0.042,0.048,0.054,0.057,0.011,0.014,0.009,0.004,0.006,0.006,0.006,0.003,0.015,0.01,,
566,0,0.005,0.009,0.014,0.021,0.03,0.037,0.041,0.048,0.053,0.057,0.009,0.012,0.009,0.007,0.004,0.007,0.005,0.004,0.016,0.011,,
573,-0.001,0.002,0.006,0.011,0.02,0.026,0.032,0.038,0.043,0.049,0.051,0.007,0.014,0.006,0.006,0.006,0.005,0.006,0.002,0.013,0.012,,
580,-0.001,0.003,0.007,0.011,0.019,0.026,0.03,0.036,0.041,0.047,0.047,0.008,0.012,0.007,0.004,0.006,0.005,0.006,0,0.011,0.01,,
587,-0.001,0.003,0.007,0.01,0.015,0.024,0.028,0.032,0.037,0.043,0.045,0.008,0.008,0.009,0.004,0.004,0.005,0.006,0.002,0.013,0.008,,
594,-0.001,0.002,0.005,0.008,0.015,0.022,0.024,0.029,0.034,0.038,0.04,0.006,0.01,0.007,0.002,0.005,0.005,0.004,0.002,0.01,0.008,,
601,-0.001,0.001,0.004,0.008,0.012,0.018,0.022,0.025,0.031,0.034,0.036,0.005,0.008,0.006,0.004,0.003,0.006,0.003,0.002,0.011,0.008,,
608,-0.001,0.003,0.005,0.008,0.012,0.017,0.02,0.024,0.028,0.033,0.034,0.006,0.007,0.005,0.003,0.004,0.004,0.005,0.001,0.01,0.006,,
615,0,0.003,0.005,0.006,0.01,0.015,0.019,0.021,0.024,0.03,0.033,0.005,0.005,0.005,0.004,0.002,0.003,0.006,0.003,0.012,0.006,,
622,-0.001,0.002,0.001,0.004,0.005,0.011,0.013,0.017,0.02,0.024,0.026,0.002,0.004,0.006,0.002,0.004,0.003,0.004,0.002,0.008,0.006,,
629,0.001,0.001,0.003,0.005,0.007,0.011,0.012,0.015,0.02,0.022,0.024,0.002,0.004,0.004,0.001,0.003,0.005,0.002,0.002,0.009,0.005,,
636,-0.001,0.001,0,0.002,0.004,0.008,0.009,0.012,0.015,0.019,0.019,0.001,0.004,0.004,0.001,0.003,0.003,0.004,0,0.007,0.004,,
643,0,0.001,0.003,0.005,0.005,0.008,0.008,0.012,0.015,0.017,0.018,0.003,0.002,0.003,0,0.004,0.003,0.002,0.001,0.007,0.004,,
650,0,-0.001,0.003,0.002,0.005,0.006,0.006,0.009,0.011,0.013,0.014,0.003,0.002,0.001,0,0.003,0.002,0.002,0.001,0.006,0.003,,
657,-0.001,-0.001,0.002,0.002,0.002,0.005,0.005,0.006,0.009,0.013,0.013,0.003,0,0.003,0,0.001,0.003,0.004,0,0.007,0.001,,
664,0,0.001,0.003,0.004,0.006,0.006,0.008,0.007,0.01,0.01,0.011,0.003,0.003,0,0.002,-0.001,0.003,0,0.001,0.004,0.001,,
671,-0.002,-0.003,0.001,0.002,0.001,0.004,0.001,0.005,0.006,0.007,0.007,0.003,0,0.003,-0.003,0.004,0.001,0.001,0,0.002,0.001,,
678,0.003,0.002,0.003,0.003,0.002,0.007,0.005,0.007,0.008,0.009,0.009,0,-0.001,0.005,-0.002,0.002,0.001,0.001,0,0.003,0,,
685,0.003,0.002,0,0.002,0.002,0.005,0.004,0.006,0.007,0.008,0.006,-0.003,0.002,0.003,-0.001,0.002,0.001,0.001,-0.002,0,0.001,,
692,0,0.001,0.001,0.002,0.001,0,0,0.003,0.002,0.007,0.005,0.001,0,-0.001,0,0.003,-0.001,0.005,-0.002,0.002,0.003,,
699,0.004,0.003,0.004,0.002,0.001,0.002,0.002,0.003,0.005,0.008,0.008,0,-0.003,0.001,0,0.001,0.002,0.003,0,0.005,0,,
706,-0.003,-0.001,-0.001,-0.004,-0.002,-0.001,-0.003,-0.001,0.001,0,-0.001,0.002,-0.001,0.001,-0.002,0.002,0.002,-0.001,-0.001,0,0.001,,
713,-0.001,-0.003,0,0,-0.003,-0.002,-0.003,-0.001,-0.002,-0.003,-0.004,0.001,-0.003,0.001,-0.001,0.002,-0.001,-0.001,-0.001,-0.003,0.001,,
720,-0.001,-0.002,-0.002,-0.004,-0.003,-0.003,-0.004,0.001,-0.004,-0.003,0.003,-0.001,-0.001,0,-0.001,0.005,-0.005,0.001,0.006,0.002,0.004,,
727,0,-0.001,-0.001,-0.003,-0.003,-0.002,-0.001,-0.002,0,0.001,-0.005,-0.001,-0.002,0.001,0.001,-0.001,0.002,0.001,-0.006,-0.002,-0.001,,
734,0,0.003,-0.006,0.002,-0.003,0,-0.002,-0.005,-0.007,0,-0.004,-0.006,0.003,0.003,-0.002,-0.003,-0.002,0.007,-0.004,0.001,-0.005,,
741,0.001,-0.006,-0.003,0.003,-0.002,-0.007,-0.004,-0.007,-0.007,-0.004,-0.005,-0.004,0.001,-0.005,0.003,-0.003,0,0.003,-0.001,0.002,0,,
748,0.004,0.005,-0.002,0.006,0,0,-0.005,0.001,0.001,-0.006,-0.003,-0.006,0.002,0,-0.005,0.006,0,-0.007,0.003,-0.003,0.001,,
755,0,0.004,0.003,0,-0.002,-0.002,-0.004,-0.001,-0.005,-0.008,-0.008,0.003,-0.005,0,-0.002,0.003,-0.004,-0.003,0,-0.007,0,,
762,0.001,0.008,0.002,0.005,0.006,0,0.001,-0.005,0,0.001,0.004,0.001,0.004,-0.006,0.001,-0.006,0.005,0.001,0.003,0.008,-0.005,,
769,-0.003,-0.006,-0.001,-0.008,-0.01,-0.007,-0.011,-0.006,-0.01,-0.011,-0.014,0.002,-0.009,0.003,-0.004,0.005,-0.004,-0.001,-0.003,-0.008,0,,
776,-0.003,-0.003,-0.011,-0.009,-0.009,-0.011,-0.015,-0.01,-0.014,-0.012,-0.024,-0.008,0.002,-0.002,-0.004,0.005,-0.004,0.002,-0.012,-0.014,0.001,,
783,-0.002,-0.004,0.003,-0.003,-0.011,-0.004,0.002,-0.006,-0.008,-0.017,-0.009,0.005,-0.014,0.007,0.006,-0.008,-0.002,-0.009,0.008,-0.003,-0.002,,
790,0.004,-0.001,-0.004,0.007,-0.007,-0.001,-0.002,-0.004,-0.008,-0.001,-0.007,-0.008,-0.003,0.006,-0.001,-0.002,-0.004,0.007,-0.006,-0.004,-0.002,,
797,0.007,-0.002,-0.003,-0.002,-0.007,-0.006,-0.011,-0.006,-0.01,-0.01,-0.006,-0.01,-0.004,0.001,-0.005,0.005,-0.004,0,0.004,0,-0.001,,
800,-0.007,-0.008,-0.009,-0.015,-0.017,-0.011,-0.01,-0.013,-0.027,-0.017,-0.018,-0.002,-0.008,0.006,0.001,-0.003,-0.014,0.01,-0.001,-0.005,-0.001,,

File: UV_vis_comp_Potential_BeforeCVs_smoothed.csv
æ³¢é•· (nm),0 mV,50 mV,100 mV,150 mV,200 mV,300 mV,400 mV,500 mV,600 mV,700 mV,800 mV,100-0,200-100,300-200,400-300,500-400,600-500,700-600,800-700,800 - 500,500 - 300,Raw data name,Mod column name,
300,-0.00270877,-0.0194188,-0.0124446,-0.018457,-0.00413813,-0.0151674,-0.00174364,0.0115509,-0.000753083,-0.00077221,-0.00531016,-0.00973579,0.00830643,-0.0110292,0.0134237,0.0132945,-0.012304,-1.91263e-05,-0.00453795,-0.0167323,0.0269445,20221215_1-140_006_0mV.spc - RawData,0 mV,
313,0.0050629,0.00644567,0.00963835,0.0190161,0.0177193,0.018855,0.0312359,0.0249414,0.0282653,0.0221956,0.0257111,0.00457545,0.00808092,0.00113573,0.0123809,-0.00629448,0.00332391,-0.00606971,0.00351554,0.000792246,0.00588383,nan,100-0,
326,0.00387774,0.0064777,0.00623238,0.011606,0.0151584,0.0154434,0.0195511,0.0200335,0.0280201,0.024789,0.0270408,0.00235464,0.00892598,0.000285064,0.0041077,0.000482354,0.00798665,-0.00323117,0.00225179,0.00681323,0.00478208,nan,nan,
339,0.000637173,0.00509283,0.00671322,0.0114822,0.0154232,0.0168248,0.0234763,0.023792,0.0254314,0.0294035,0.0284127,0.00607604,0.00870998,0.00140156,0.00665153,0.000315704,0.0016394,0.00397209,-0.000990798,0.004712,0.00704085,nan,nan,
352,0.00224967,0.00518192,0.00957114,0.0128779,0.0187917,0.0203588,0.0243359,0.0282219,0.0301643,0.0307929,0.0312728,0.00732147,0.00922055,0.00156709,0.00397715,0.00388593,0.00194246,0.000628577,0.000479927,0.00315785,0.007865,nan,nan,
365,0.00142825,0.00557468,0.0094235,0.0125247,0.017796,0.0221031,0.0287367,0.0301811,0.0339668,0.0351622,0.0346167,0.00799525,0.00837254,0.00430711,0.00663353,0.00144443,0.00378572,0.00119537,-0.000545455,0.00453706,0.00782951,nan,nan,
378,-0.000816159,0.00599606,0.00866609,0.014094,0.0211101,0.0240469,0.0295042,0.0330927,0.035423,0.0372574,0.0380709,0.00948225,0.012444,0.0029368,0.00545728,0.00358853,0.00233027,0.00183436,0.00081353,0.00491496,0.00908231,nan,nan,
391,0.000643341,0.0065678,0.00999333,0.0156951,0.0233225,0.0280691,0.0319179,0.0377535,0.0376127,0.0421307,0.0434616,0.00934998,0.0133292,0.00474659,0.00384882,0.00583557,-0.000140762,0.00451795,0.00133097,0.00564961,0.00973759,nan,nan,
404,0.00159187,0.0057568,0.00908788,0.0150826,0.0248166,0.0298785,0.0348269,0.0388834,0.0407837,0.0429782,0.0447139,0.00749601,0.0157287,0.00506189,0.00494843,0.00405653,0.00190029,0.00219446,0.00173577,0.00571908,0.00886318,nan,nan,
417,0.00110719,0.00646981,0.0108598,0.0172958,0.0264863,0.0319202,0.0368299,0.0409704,0.0437473,0.04714,0.0499844,0.00975265,0.0156265,0.00543392,0.0049097,0.00414046,0.00277692,0.00339266,0.00284447,0.00914956,0.0086667,nan,nan,
430,-0.000197694,0.00699626,0.0105115,0.0170963,0.0283583,0.034616,0.0400328,0.0448431,0.0470784,0.0514687,0.0538072,0.0107092,0.0178468,0.00625776,0.00541673,0.00481029,0.00223531,0.00439033,0.00233846,0.00892719,0.0102762,nan,nan,
443,0.000349884,0.00772869,0.0124065,0.0182041,0.0295087,0.0381614,0.044867,0.0483466,0.0521562,0.056664,0.0591203,0.0120566,0.0171022,0.00865264,0.00670563,0.00347962,0.00380959,0.00450774,0.00245637,0.0108383,0.0101622,nan,nan,
456,0.000738093,0.0072702,0.0124838,0.0184032,0.0313059,0.0404276,0.0465514,0.051994,0.0562903,0.0609905,0.0645176,0.0117457,0.0188221,0.00912175,0.00612377,0.00544261,0.00429629,0.00470017,0.00352715,0.0125735,0.0116399,nan,nan,
469,0.000288502,0.00757458,0.0127055,0.0202015,0.0334708,0.0429751,0.0490539,0.0554288,0.059904,0.0651514,0.0684809,0.012417,0.0207653,0.0095043,0.00607877,0.00637486,0.00447528,0.00524735,0.00332956,0.0129976,0.0126137,nan,nan,
482,0.000277379,0.00778036,0.0130503,0.0209224,0.0355289,0.0451853,0.0515311,0.0580757,0.063292,0.0694467,0.0733976,0.0127729,0.0224786,0.00965639,0.00634584,0.00654465,0.0052163,0.00615462,0.00395096,0.0153602,0.0131989,nan,nan,
495,-0.0004054,0.00735676,0.0132585,0.0206942,0.0353144,0.0462232,0.0528841,0.0593279,0.0653867,0.071686,0.0756042,0.0136639,0.0220559,0.0109088,0.00666094,0.00644383,0.00605875,0.00629932,0.00391819,0.0163748,0.0129683,nan,nan,
508,0.000107797,0.00711043,0.012876,0.0203569,0.034514,0.045291,0.0520693,0.0584221,0.0652038,0.0714063,0.0754596,0.0127682,0.021638,0.010777,0.00677824,0.00635282,0.00678168,0.00620255,0.00405329,0.0172052,0.0127504,nan,nan,
521,-0.000612195,0.00584933,0.0111526,0.0189369,0.0312654,0.0419099,0.048582,0.0550154,0.0611328,0.0677447,0.0725289,0.0117648,0.0201129,0.0106445,0.00667206,0.00643341,0.0061174,0.00661189,0.0047842,0.0175656,0.013048,nan,nan,
534,0.00054778,0.00604672,0.0112162,0.017343,0.0297017,0.0397331,0.04587,0.0525121,0.0582404,0.0645419,0.0689635,0.0106684,0.0184855,0.0100314,0.00613682,0.00664213,0.00572828,0.00630155,0.00442158,0.0162889,0.0128944,nan,nan,
547,-0.000205683,0.00464961,0.010341,0.015827,0.0270908,0.0365971,0.0425085,0.048263,0.0547484,0.0604174,0.0646859,0.0105467,0.0167498,0.00950632,0.00591142,0.00575447,0.00648539,0.00566903,0.00426848,0.0163079,0.0118572,nan,nan,
560,-0.000753059,0.00416837,0.00878087,0.0137107,0.0234349,0.0323459,0.0377778,0.0427415,0.0492226,0.0546134,0.0584068,0.00953393,0.0146541,0.00891101,0.00543189,0.0049637,0.00648104,0.00539084,0.00379341,0.0155856,0.0104152,nan,nan,
573,-0.000431388,0.00333916,0.00774406,0.0123877,0.0202115,0.0274599,0.0333735,0.0385113,0.0439592,0.0495719,0.0525265,0.00817545,0.0124675,0.00724836,0.00591364,0.00513773,0.00544797,0.0056127,0.0029546,0.0140153,0.0108862,nan,nan,
586,-0.000687532,0.00263616,0.0063244,0.0100397,0.0167303,0.0239852,0.028193,0.0331289,0.0376628,0.0429358,0.0457151,0.00701193,0.0104059,0.00725493,0.00420781,0.00493589,0.00453383,0.00527303,0.00277935,0.0125459,0.00916341,nan,nan,
599,-0.00072434,0.00207908,0.00506967,0.00791728,0.0131791,0.0193857,0.0228724,0.0266086,0.0317079,0.0359635,0.038395,0.00579401,0.00810941,0.00620659,0.0034867,0.00373617,0.0050993,0.00425564,0.00243149,0.0117743,0.00725928,nan,nan,
612,-7.06846e-05,0.00201062,0.00438194,0.00642825,0.0104295,0.0149979,0.0186548,0.0218906,0.0257061,0.0298842,0.0321109,0.00445262,0.00604753,0.00456841,0.00365689,0.00323582,0.00381555,0.00417808,0.00222672,0.0103451,0.00677328,nan,nan,
625,-0.000539387,0.000893518,0.00237779,0.00398837,0.00639913,0.0104823,0.0133222,0.0162681,0.0193454,0.022884,0.0248305,0.00291718,0.00402134,0.00408312,0.00283992,0.0029459,0.00307736,0.00353858,0.00194651,0.00847689,0.00585196,nan,nan,
638,7.45273e-05,0.00142896,0.00219284,0.00341187,0.00524896,0.00875346,0.0100567,0.0130233,0.015819,0.0182877,0.0197581,0.00211831,0.00305612,0.0035045,0.00130327,0.00296653,0.00279573,0.0024687,0.00147042,0.0065587,0.00437982,nan,nan,
651,-0.000460411,0.000348468,0.00156103,0.00221489,0.00330387,0.00527273,0.00672717,0.0088827,0.0109638,0.0134836,0.0145557,0.00202144,0.00174285,0.00196885,0.00145444,0.00215553,0.0020811,0.00251977,0.0010721,0.00575872,0.00379118,nan,nan,
664,-0.000231672,7.93811e-05,0.00125169,0.00182243,0.00194964,0.00409971,0.00484377,0.00648377,0.00850652,0.00988209,0.0110698,0.00148337,0.000697947,0.00215007,0.000744059,0.00164,0.00202275,0.00137557,0.00118768,0.0044418,0.00249378,nan,nan,
677,-0.000228537,-0.000376782,0.000686621,0.00138315,0.00115522,0.00363414,0.00322641,0.00459511,0.00634705,0.00686783,0.0071894,0.000915158,0.000468601,0.00247892,-0.000407726,0.00136869,0.00175195,0.000520781,0.000321569,0.00278016,0.00110132,nan,nan,
690,-0.00101628,-0.000609768,8.67631e-05,-0.000173223,0.000265345,0.00053696,0.000615836,0.00260158,0.00280443,0.00452847,0.00462251,0.00110304,0.000178582,0.000271615,7.88755e-05,0.00198574,0.000202852,0.00172404,9.40439e-05,0.00203438,0.00183295,nan,nan,
703,-7.56396e-05,-0.00072879,0.000467489,-0.000219436,-7.63475e-05,0.000669835,0.000545252,0.00152179,0.00308535,0.00297472,0.00243907,0.000543129,-0.000543837,0.000746183,-0.000124583,0.00097654,0.00156356,-0.000110628,-0.000535646,0.000998079,0.000935989,nan,nan,
716,-0.00119982,-0.00121933,-0.000972798,-0.00109415,-0.00158611,-0.00198402,-0.00204631,-0.00172303,-0.00106462,-0.000337648,-0.000117707,0.00022702,-0.000613308,-0.000397917,-6.22914e-05,0.000323289,0.000658408,0.000726969,0.000219941,0.00153787,0.000184447,nan,nan,
729,-0.000798261,-0.00242168,-0.00182597,-0.0027031,-0.00393306,-0.00247396,-0.00385084,-0.00286268,-0.00329892,-0.00318425,-0.00389969,-0.00102771,-0.00210709,0.0014591,-0.00137688,0.000988169,-0.000436242,0.000114673,-0.000715441,-0.00094863,-0.000362221,nan,nan,
742,0.00233178,-4.03479e-05,-0.000286682,0.000187987,-0.00209465,-0.00142037,-0.00295045,-0.0040902,-0.00318859,-0.00188229,-0.00339074,-0.00261846,-0.00180797,0.000674285,-0.00153008,-0.00113975,0.000901608,0.0013063,-0.00150844,0.000666599,-0.00268399,nan,nan,
755,-0.000128324,-0.000223986,0.000431287,-0.000369097,-0.000528365,-0.00258196,-0.00458793,-0.0050086,-0.00316372,-0.00587319,-0.00614744,0.000559612,-0.000959652,-0.00205359,-0.00200597,-0.000420669,0.00184488,-0.00270948,-0.000274244,-0.00130033,-0.00243189,nan,nan,
768,-0.00140044,-0.00218465,-0.00155375,-0.00326393,-0.00425827,-0.00641248,-0.00927819,-0.00662918,-0.00825726,-0.00780655,-0.0105687,-0.000153302,-0.00270452,-0.00215421,-0.00286571,0.002649,-0.00162807,0.000450703,-0.00276216,-0.00391668,-0.000391344,nan,nan,
781,-0.00267337,-0.00164931,-0.00330741,-0.00418778,-0.00604985,-0.00668662,-0.00619759,-0.0082431,-0.00947032,-0.0103655,-0.0124616,-0.000634038,-0.00274244,-0.000636768,0.000489028,-0.00204551,-0.00122722,-0.000895136,-0.00209617,-0.00427111,-0.00149823,nan,nan,
794,-0.000393286,-0.00357867,-0.00370736,-6.65468e-05,-0.005516,-0.00614226,-0.00724506,-0.0111821,-0.00908065,-0.0101219,-0.0110184,-0.00331407,-0.00180864,-0.00062626,-0.00110279,-0.00393701,0.00210141,-0.0010412,-0.000896586,4.97136e-06,-0.00515852,nan,nan,
800,-0.00847124,-0.01243,-0.00888414,-0.015575,-0.0125519,-0.00867395,-0.0181622,-0.0176442,-0.0150286,-0.0172504,-0.0183754,-0.000412908,-0.00366776,0.00387795,-0.00948829,0.000518005,0.0026156,-0.00222175,-0.00112498,-0.000903571,-0.00865946,nan,nan,