Folder: Figs_alphaMnO2_OER_Tafel_sleope/Figure_codes/Fig_S11

Note: README.md
# Figs_alphaMnO2_OER_Tafel_sleope
Figures and analyses of "A Non-Rate-Determining Redox Process Dictates the Oxygen Evolution Tafel Slope of MnO2"

File: 20230328_2-12_003_DPV+EIS_pH12_02_CV_C01.csv
mode,ox/red,error,"control changes","counter inc.",time/s,control/V,Ewe/V,<I>/mA,"cycle number",(Q-Qo)/C,"I Range",P/W,EC-Lab,ASCII,FILE,,,,,,,,,
2,0,0,1,0,30.0102,2.92817e-06,-0.000342359,-0.214516,1,0.0000000E+000,10,7.34415e-08,Nb,header,lines,:,57,,,,,,,
2,0,0,1,0,30.0652,0.000271739,-4.9687e-05,-0.101206,1,-5.57333e-06,10,5.02864e-09,,,,,,,,,,,,
2,0,0,1,0,30.1651,0.000771244,0.000406404,-0.00758158,1,-9.29723e-06,10,-3.08118e-09,Cyclic,Voltammetry,,,,,,,,,,
2,1,0,0,0,30.265,0.00127053,0.000929068,0.0345746,1,-6.44245e-06,10,3.21222e-08,,,,,,,,,,,,
2,1,0,1,0,30.3649,0.00177037,0.00143206,0.0585798,1,-4.02807e-07,10,8.38898e-08,Run,on,channel,:,1,(SN,65296),,,,,
2,1,0,1,0,30.4647,0.00226909,0.00196387,0.0813733,1,7.91003e-06,10,1.59806e-07,User,:,,,,,,,,,,
2,1,0,0,0,30.5646,0.00276871,0.00247302,0.0879276,1,1.78194e-05,10,2.17447e-07,CE,vs.,WE,compliance,from,-10,V,to,10,V,,
2,1,0,1,0,30.6645,0.00326822,0.00298547,0.0920571,1,2.81469e-05,10,2.74833e-07,Electrode,connection,:,standard,,,,,,,,
2,1,0,1,0,30.7644,0.0037675,0.00344541,0.0949122,1,3.88077e-05,10,3.27012e-07,Potential,control,:,Ewe,,,,,,,,
2,1,0,0,0,30.8642,0.00426689,0.00400213,0.0994856,1,4.98437e-05,10,3.98154e-07,Ewe,ctrl,range,:,min,=,-1.00,V,max,=,1.00,V
2,1,0,1,0,30.9641,0.00476607,0.00445674,0.101784,1,6.12589e-05,10,4.53624e-07,Safety,Limits,:,,,,,,,,,
2,1,0,1,0,31.064,0.00526568,0.00494589,0.106002,1,7.30325e-05,10,5.24272e-07,,Do,not,start,on,E,overload,,,,,
2,1,0,1,0,31.1639,0.0057653,0.00545933,0.107782,1,8.50413e-05,10,5.88419e-07,Acquisition,started,on,:,03/28/2023,18:34:47.663,,,,,,
2,1,0,0,0,31.2638,0.00626447,0.00597554,0.11212,1,9.73528e-05,10,6.6998e-07,Loaded,Setting,File,:,NONE,,,,,,,
2,1,0,1,0,31.3636,0.00676387,0.00643364,0.114724,1,0.00010999,10,7.38091e-07,Saved,on,:,,,,,,,,,
2,1,0,1,0,31.4635,0.00726315,0.00696054,0.117734,1,0.000122936,10,8.19491e-07,,File,:,20230328_2-12_003_DPV+EIS_pH12_02_CV_C01.mpr,,,,,,,,
2,1,0,0,0,31.5634,0.00776265,0.00744421,0.119745,1,0.000136163,10,8.9141e-07,,Directory,:,C:\Users\NakamuraT\Documents\EC-Lab\Data\Yatsuzuka\20230328_2-12_EIS_DPV_pH\,,,,,,,,
2,1,0,1,0,31.6633,0.00826227,0.0079693,0.12258,1,0.000149646,10,9.76876e-07,,Host,:,192.109.209.100,,,,,,,,
2,1,0,1,0,31.7631,0.008761,0.00847339,0.126082,1,0.000163398,10,1.06834e-06,Device,:,SP-50e,(SN,.003219),,,,,,,
2,1,0,0,0,31.863,0.00926084,0.0089521,0.126855,1,0.000177346,10,1.13562e-06,Address,:,192.109.209.128,,,,,,,,,
2,1,0,1,0,31.9629,0.00976012,0.00949815,0.129917,1,0.000191489,10,1.23397e-06,EC-Lab,for,windows,v11.43,(software),,,,,,,
2,1,0,1,0,32.0628,0.0102596,0.0099754,0.131153,1,0.000205878,10,1.3083e-06,Internet,server,v11.40,(firmware),,,,,,,,
2,1,0,1,0,32.1627,0.0107594,0.0104752,0.132702,1,0.000220422,10,1.39008e-06,Command,interpretor,v11.40,(firmware),,,,,,,,
2,1,0,1,0,32.2625,0.011258,0.0109973,0.13524,1,0.000235115,10,1.48727e-06,Electrode,material,:,,,,,,,,,
2,1,0,1,0,32.3624,0.0117578,0.011443,0.135228,1,0.00024998,10,1.54741e-06,Initial,state,:,,,,,,,,,
2,1,0,1,0,32.4623,0.0122572,0.0119572,0.136908,1,0.000264929,10,1.63704e-06,Electrolyte,:,,,,,,,,,,
2,1,0,0,0,32.5622,0.0127566,0.0124843,0.139314,1,0.000280105,10,1.73924e-06,Comments,:,,,,,,,,,,
2,1,0,1,0,32.6621,0.0132563,0.0129395,0.141072,1,0.000295456,10,1.8254e-06,Electrode,surface,area,:,0.001,cm2,,,,,,
2,1,0,1,0,32.7619,0.0137551,0.0134531,0.143422,1,0.000310975,10,1.92947e-06,Characteristic,mass,:,0.001,g,,,,,,,
2,1,0,0,0,32.8618,0.0142548,0.0139466,0.144377,1,0.000326673,10,2.01357e-06,Equivalent,Weight,:,0.000,g/eq.,,,,,,,
2,1,0,1,0,32.9617,0.0147542,0.0144599,0.145369,1,0.000342548,10,2.10202e-06,Density,:,0.000,g/cm3,,,,,,,,
2,1,0,1,0,33.0616,0.0152536,0.0149169,0.149075,1,0.000358656,10,2.22374e-06,Volume,(V),:,0.001,cm3,,,,,,,
2,1,0,1,0,33.1615,0.0157533,0.0154069,0.148598,1,0.000374914,10,2.28943e-06,Cycle,Definition,:,Charge/Discharge,alternance,,,,,,,
2,1,0,1,0,33.2613,0.016252,0.0159069,0.150167,1,0.000391202,10,2.3887e-06,Ei,(V),0.000,,,,,,,,,
2,1,0,0,0,36.1578,0.0307348,0.0304487,0.17628,1,0.000906864,10,5.36749e-06,,,,,,,,,,,,
2,1,0,1,0,39.0543,0.0452171,0.0448912,0.192181,1,0.00148099,10,8.62723e-06,,,,,,,,,,,,
2,1,0,1,0,41.9508,0.0596997,0.0593829,0.204934,1,0.00209359,10,1.21696e-05,,,,,,,,,,,,
2,1,0,1,0,44.8473,0.0741822,0.073901,0.215367,1,0.00273783,10,1.59158e-05,,,,,,,,,,,,
2,1,0,0,0,47.7438,0.0886645,0.0883649,0.228358,1,0.00341781,10,2.01788e-05,,,,,,,,,,,,
2,1,0,1,0,50.6403,0.103147,0.102866,0.257159,1,0.00415489,10,2.64529e-05,,,,,,,,,,,,
2,1,0,1,0,53.5368,0.117629,0.117337,0.307263,1,0.00499901,10,3.60534e-05,,,,,,,,,,,,
2,1,0,1,0,56.4332,0.132112,0.13179,0.378838,1,0.00601861,10,4.99269e-05,,,,,,,,,,,,
2,1,0,1,0,59.3297,0.146594,0.146265,0.475378,1,0.00728427,10,6.95312e-05,,,,,,,,,,,,
2,1,0,0,0,62.2262,0.161077,0.160744,0.666512,1,0.00893766,10,0.000107138,,,,,,,,,,,,
2,1,0,1,0,65.1227,0.175559,0.175263,1.02623,1,0.0114117,10,0.00017986,,,,,,,,,,,,
2,1,0,1,0,68.0192,0.190042,0.189749,1.19755,1,0.0147696,10,0.000227235,,,,,,,,,,,,
2,1,0,1,0,70.9157,0.204524,0.204261,0.854873,1,0.0179027,10,0.000174617,,,,,,,,,,,,
2,1,0,0,0,73.8122,0.219006,0.218691,0.459086,1,0.0197519,10,0.000100398,,,,,,,,,,,,
2,1,0,1,0,76.7087,0.233489,0.233223,0.317282,1,0.0208748,10,7.39974e-05,,,,,,,,,,,,
2,1,0,1,0,79.6051,0.247971,0.247669,0.257442,1,0.0217287,10,6.37606e-05,,,,,,,,,,,,
2,1,0,1,0,82.5016,0.262454,0.262139,0.229784,1,0.0224624,10,6.02354e-05,,,,,,,,,,,,
2,1,0,1,0,85.3981,0.276936,0.276631,0.214576,1,0.0231349,10,5.93584e-05,,,,,,,,,,,,
2,1,0,0,0,88.2946,0.291419,0.291162,0.205673,1,0.0237709,10,5.98842e-05,,,,,,,,,,,,
2,1,0,1,0,91.1911,0.305901,0.305599,0.197996,1,0.0243836,10,6.05075e-05,,,,,,,,,,,,
2,1,0,1,0,94.0876,0.320384,0.320075,0.194853,1,0.0249801,10,6.23677e-05,,,,,,,,,,,,
2,1,0,1,0,96.9841,0.334866,0.334558,0.191867,1,0.0255644,10,6.41907e-05,,,,,,,,,,,,
2,1,0,0,0,99.8806,0.349348,0.349074,0.188453,1,0.0261388,10,6.57841e-05,,,,,,,,,,,,
2,1,0,1,0,102.777,0.363831,0.363568,0.185677,1,0.0267047,10,6.75063e-05,,,,,,,,,,,,
2,1,0,1,0,105.673,0.378313,0.37809,0.182734,1,0.0272625,10,6.909e-05,,,,,,,,,,,,
2,1,0,1,0,108.57,0.392796,0.392493,0.181433,1,0.0278137,10,7.12112e-05,,,,,,,,,,,,
2,1,0,1,0,111.466,0.407278,0.407024,0.181093,1,0.0283606,10,7.37092e-05,,,,,,,,,,,,
2,1,0,0,0,114.363,0.421761,0.421477,0.180105,1,0.028904,10,7.59101e-05,,,,,,,,,,,,
2,1,0,1,0,117.259,0.436243,0.435984,0.179198,1,0.029445,10,7.81273e-05,,,,,,,,,,,,
2,1,0,1,0,120.156,0.450725,0.450462,0.178933,1,0.0299831,10,8.06026e-05,,,,,,,,,,,,
2,1,0,1,0,123.052,0.465208,0.464961,0.17975,1,0.0305205,10,8.35766e-05,,,,,,,,,,,,
2,1,0,0,0,125.949,0.47969,0.479424,0.180893,1,0.03106,10,8.67243e-05,,,,,,,,,,,,
2,1,0,1,0,128.845,0.494173,0.493892,0.182731,1,0.0316037,10,9.02496e-05,,,,,,,,,,,,
2,1,0,1,0,131.742,0.508655,0.508416,0.185346,1,0.0321545,10,9.42329e-05,,,,,,,,,,,,
2,1,0,1,0,134.638,0.523138,0.522852,0.188488,1,0.0327137,10,9.85514e-05,,,,,,,,,,,,
2,1,0,1,0,137.535,0.53762,0.537333,0.194584,1,0.0332857,10,0.000104557,,,,,,,,,,,,
2,1,0,0,0,140.431,0.552103,0.551812,0.20313,1,0.0338759,10,0.00011209,,,,,,,,,,,,
2,1,0,1,0,143.328,0.566585,0.56634,0.212695,1,0.0344914,10,0.000120458,,,,,,,,,,,,
2,1,0,1,0,146.224,0.581067,0.580823,0.225708,1,0.0351416,10,0.000131096,,,,,,,,,,,,
2,1,0,1,0,149.121,0.59555,0.595273,0.248316,1,0.0358426,10,0.000147816,,,,,,,,,,,,
2,1,0,0,0,152.017,0.610032,0.609766,0.283287,1,0.0366246,10,0.000172738,,,,,,,,,,,,
2,1,0,1,0,154.914,0.624515,0.624254,0.340287,1,0.0375357,10,0.000212426,,,,,,,,,,,,
2,1,0,1,0,157.81,0.638997,0.63879,0.435846,1,0.0386611,10,0.000278414,,,,,,,,,,,,
2,1,0,1,0,160.707,0.65348,0.653237,0.595136,1,0.040149,10,0.000388765,,,,,,,,,,,,
2,1,0,1,0,163.603,0.667962,0.667718,0.859904,1,0.0422405,10,0.000574173,,,,,,,,,,,,
2,1,0,0,0,166.5,0.682444,0.682189,1.26478,1,0.0452923,10,0.000862822,,,,,,,,,,,,
2,1,0,1,0,169.396,0.696927,0.696665,1.82567,1,0.0497431,10,0.00127188,,,,,,,,,,,,
2,1,0,1,0,172.293,0.711409,0.71117,2.52973,1,0.0560366,10,0.00179907,,,,,,,,,,,,
2,1,0,1,0,175.189,0.725892,0.725657,3.3314,1,0.0645207,10,0.00241746,,,,,,,,,,,,
2,1,0,0,0,178.086,0.740374,0.740119,4.17422,1,0.0753998,10,0.00308942,,,,,,,,,,,,
2,1,0,0,0,180.982,0.754857,0.754642,4.99924,1,0.088709,10,0.00377263,,,,,,,,,,,,
2,1,0,1,0,183.879,0.769339,0.769066,5.75737,1,0.104323,10,0.0044278,,,,,,,,,,,,
2,1,0,1,0,186.775,0.783822,0.783564,6.42067,1,0.121995,10,0.005031,,,,,,,,,,,,
2,1,0,1,0,189.672,0.798304,0.798053,6.96111,1,0.141413,10,0.00555534,,,,,,,,,,,,
2,1,0,0,0,192.568,0.812786,0.81255,7.43527,1,0.162282,10,0.00604153,,,,,,,,,,,,
2,1,0,1,0,195.465,0.827269,0.827058,7.91631,1,0.184537,10,0.00654724,,,,,,,,,,,,
2,1,0,1,0,198.361,0.841751,0.841521,8.38412,1,0.208148,10,0.00705541,,,,,,,,,,,,
2,1,0,0,0,201.168,0.844248,0.844037,8.0121,1,0.231752,10,0.00676251,,,,,,,,,,,,
2,1,0,1,0,204.065,0.829766,0.829586,7.2443,1,0.253762,10,0.00600977,,,,,,,,,,,,
2,1,0,1,0,206.961,0.815283,0.815032,6.51717,1,0.2737,10,0.0053117,,,,,,,,,,,,
2,1,0,1,0,209.858,0.800801,0.800542,5.77796,1,0.291488,10,0.0046255,,,,,,,,,,,,
2,1,0,0,0,212.754,0.786318,0.786094,5.00675,1,0.307111,10,0.00393577,,,,,,,,,,,,
2,1,0,1,0,215.651,0.771836,0.771636,4.2222,1,0.320453,10,0.00325801,,,,,,,,,,,,
2,1,0,1,0,218.547,0.757354,0.757099,3.45085,1,0.331543,10,0.00261264,,,,,,,,,,,,
2,1,0,1,0,221.444,0.742871,0.742633,2.7173,1,0.340452,10,0.00201796,,,,,,,,,,,,
2,1,0,1,0,224.34,0.728389,0.728156,2.03431,1,0.347306,10,0.00148129,,,,,,,,,,,,
2,1,0,0,0,227.237,0.713906,0.713645,1.42737,1,0.352283,10,0.00101863,,,,,,,,,,,,
2,1,0,1,0,230.133,0.699424,0.699189,0.922649,1,0.355644,10,0.000645106,,,,,,,,,,,,
2,1,0,1,0,233.03,0.684941,0.684714,0.535127,1,0.357709,10,0.000366409,,,,,,,,,,,,
2,1,0,1,0,235.926,0.670459,0.670182,0.261562,1,0.358822,10,0.000175294,,,,,,,,,,,,
2,1,0,0,0,238.823,0.655977,0.655727,0.0847195,1,0.35929,10,5.55529e-05,,,,,,,,,,,,
2,0,0,1,0,241.719,0.641494,0.641238,-0.0224549,1,0.359351,10,-1.4399e-05,,,,,,,,,,,,
2,0,0,1,0,244.615,0.627012,0.626747,-0.0831537,1,0.359176,10,-5.21164e-05,,,,,,,,,,,,
2,0,0,1,0,247.512,0.612529,0.612241,-0.116743,1,0.358866,10,-7.14747e-05,,,,,,,,,,,,
2,0,0,1,0,250.408,0.598047,0.597774,-0.13445,1,0.358484,10,-8.03704e-05,,,,,,,,,,,,
2,0,0,0,0,253.305,0.583564,0.583295,-0.14318,1,0.358066,10,-8.35162e-05,,,,,,,,,,,,
2,0,0,1,0,256.201,0.569082,0.568828,-0.147073,1,0.357629,10,-8.36591e-05,,,,,,,,,,,,
2,0,0,1,0,259.098,0.554599,0.5543,-0.148947,1,0.357183,10,-8.25614e-05,,,,,,,,,,,,
2,0,0,1,0,261.994,0.540117,0.539816,-0.151053,1,0.35673,10,-8.15409e-05,,,,,,,,,,,,
2,0,0,0,0,264.891,0.525635,0.52538,-0.152597,1,0.356273,10,-8.01713e-05,,,,,,,,,,,,
2,0,0,1,0,267.787,0.511152,0.510858,-0.155443,1,0.35581,10,-7.94095e-05,,,,,,,,,,,,
2,0,0,1,0,270.684,0.49667,0.496371,-0.157004,1,0.35534,10,-7.79325e-05,,,,,,,,,,,,
2,0,0,1,0,273.58,0.482187,0.481904,-0.160322,1,0.354862,10,-7.72599e-05,,,,,,,,,,,,
2,0,0,1,0,276.477,0.467705,0.467403,-0.165307,1,0.354372,10,-7.72648e-05,,,,,,,,,,,,
2,0,0,0,0,279.373,0.453222,0.452927,-0.167823,1,0.353871,10,-7.60118e-05,,,,,,,,,,,,
2,0,0,1,0,282.27,0.43874,0.438464,-0.173082,1,0.353356,10,-7.58903e-05,,,,,,,,,,,,
2,0,0,1,0,285.166,0.424258,0.424013,-0.179179,1,0.352824,10,-7.59744e-05,,,,,,,,,,,,
2,0,0,1,0,288.063,0.409775,0.409451,-0.184936,1,0.352274,10,-7.57223e-05,,,,,,,,,,,,
2,0,0,0,0,290.959,0.395293,0.395009,-0.19071,1,0.351703,10,-7.53322e-05,,,,,,,,,,,,
2,0,0,1,0,293.856,0.38081,0.380508,-0.19867,1,0.351112,10,-7.55955e-05,,,,,,,,,,,,
2,0,0,1,0,296.752,0.366328,0.366084,-0.207126,1,0.350497,10,-7.58255e-05,,,,,,,,,,,,
2,0,0,1,0,299.649,0.351845,0.351535,-0.214523,1,0.349861,10,-7.54125e-05,,,,,,,,,,,,
2,0,0,1,0,302.545,0.337363,0.337076,-0.22222,1,0.3492,10,-7.49051e-05,,,,,,,,,,,,
2,0,0,0,0,305.442,0.322881,0.322612,-0.231683,1,0.348513,10,-7.47436e-05,,,,,,,,,,,,
2,0,0,1,0,308.338,0.308398,0.308107,-0.24129,1,0.3478,10,-7.43432e-05,,,,,,,,,,,,
2,0,0,1,0,311.235,0.293916,0.293614,-0.252757,1,0.347058,10,-7.42131e-05,,,,,,,,,,,,
2,0,0,1,0,314.131,0.279433,0.279152,-0.265326,1,0.346281,10,-7.40663e-05,,,,,,,,,,,,
2,0,0,1,0,317.028,0.264951,0.264663,-0.282166,1,0.34546,10,-7.4679e-05,,,,,,,,,,,,
2,0,0,0,0,319.924,0.250468,0.250136,-0.305947,1,0.344579,10,-7.65284e-05,,,,,,,,,,,,
2,0,0,1,0,322.821,0.235986,0.23566,-0.347814,1,0.343604,10,-8.19659e-05,,,,,,,,,,,,
2,0,0,1,0,325.717,0.221503,0.221169,-0.425645,1,0.342462,10,-9.41394e-05,,,,,,,,,,,,
2,0,0,1,0,328.614,0.207021,0.206721,-0.598646,1,0.340975,10,-0.000123753,,,,,,,,,,,,
2,0,0,0,0,331.51,0.192539,0.192248,-0.940951,1,0.338744,10,-0.000180896,,,,,,,,,,,,
2,0,0,1,0,334.407,0.178056,0.17776,-1.24781,1,0.335476,10,-0.00022181,,,,,,,,,,,,
2,0,0,1,0,337.303,0.163574,0.163276,-1.18069,1,0.331795,10,-0.000192779,,,,,,,,,,,,
2,0,0,1,0,340.2,0.149091,0.14878,-0.809524,1,0.328893,10,-0.000120441,,,,,,,,,,,,
2,0,0,1,0,343.096,0.134609,0.134302,-0.639584,1,0.326796,10,-8.58975e-05,,,,,,,,,,,,
2,0,0,0,0,345.993,0.120126,0.119866,-0.550634,1,0.32504,10,-6.60025e-05,,,,,,,,,,,,
2,0,0,1,0,348.889,0.105644,0.105346,-0.49802,1,0.323491,10,-5.24646e-05,,,,,,,,,,,,
2,0,0,1,0,351.786,0.0911615,0.0908632,-0.475919,1,0.32205,10,-4.32435e-05,,,,,,,,,,,,
2,0,0,1,0,354.682,0.0766791,0.0763433,-0.468809,1,0.320651,10,-3.57904e-05,,,,,,,,,,,,
2,0,0,0,0,357.579,0.0621966,0.0618812,-0.473397,1,0.319252,10,-2.92944e-05,,,,,,,,,,,,
2,0,0,1,0,360.475,0.047714,0.0473619,-0.486491,1,0.317826,10,-2.30411e-05,,,,,,,,,,,,
2,0,0,1,0,363.372,0.0332318,0.0329067,-0.505078,1,0.316355,10,-1.66204e-05,,,,,,,,,,,,
2,0,0,1,0,366.268,0.0187489,0.0184305,-0.528818,1,0.314824,10,-9.74641e-06,,,,,,,,,,,,
2,0,0,1,0,369.164,0.00426734,0.00394213,-0.564369,1,0.313208,10,-2.22481e-06,,,,,,,,,,,,
2,0,0,1,0,370.013,2.92817e-06,-0.00047597,-0.626693,1,0.312709,10,2.98288e-07,,,,,,,,,,,,