Folder: Figs_alphaMnO2_OER_Tafel_sleope/Figure_codes/Fig_S2

Note: README.md
# Figs_alphaMnO2_OER_Tafel_sleope
Figures and analyses of "A Non-Rate-Determining Redox Process Dictates the Oxygen Evolution Tafel Slope of MnO2"

File: 20220924_003_MultiCV_0_850mV_1-84_C_02_CV_C01_0.csv
mode,ox/red,error,control changes,counter inc.,time/s,control/V,Ewe/V,<I>/mA,cycle number,(Q-Qo)/C,I Range,P/W,log(|I|),Tafel slope mV/dec,alpha_eff,E-IR/V,
2,0,0,1,0,30.0202,2.17368e-05,-0.000199204,-0.164905,1,0.0000000E+000,10,3.28498e-08,-3.78277, , ,9.59762e-05,
2,1,0,1,0,33.7314,0.018577,0.0184873,0.358004,1,0.00114167,10,6.61851e-06,-3.44611,0.471889,0.125029,0.0178465,
2,1,0,0,0,37.4524,0.0371823,0.0369352,0.385262,1,0.0025689,10,1.42297e-05,-3.41424,0.218168,0.270434,0.0362456,
2,1,0,1,0,41.1734,0.0557876,0.0555167,0.408017,1,0.0040883,10,2.26517e-05,-3.38932,1.32452,0.0445444,0.0547863,
2,1,0,1,0,44.8946,0.0743929,0.0742509,0.437592,1,0.00570345,10,3.24916e-05,-3.35893,-1.73169,-0.0340707,0.0734676,
2,1,0,0,0,48.6156,0.0929982,0.0928228,0.508237,1,0.00749428,10,4.7176e-05,-3.29393,0.176029,0.335172,0.0919131,
2,1,0,1,0,52.3366,0.111603,0.111471,0.682626,1,0.00969964,10,7.60932e-05,-3.16582,0.108859,0.541987,0.110249,
2,1,0,1,0,56.0578,0.130209,0.130005,1.111,1,0.0129564,10,0.000144435,-2.95429,0.0684367,0.86211,0.128016,
2,1,0,0,0,59.7788,0.148814,0.148663,1.85284,1,0.0185088,10,0.000275448,-2.73216,0.107685,0.547896,0.145346,
2,1,0,1,0,63.4998,0.167419,0.167168,2.01473,1,0.0260933,10,0.000336798,-2.69578,-0.206266,-0.286039,0.163562,
2,1,0,0,0,67.2208,0.186025,0.185826,1.15963,1,0.0321391,10,0.000215489,-2.93568,-0.0683865,-0.862744,0.18375,
2,1,0,0,0,70.942,0.20463,0.204407,0.733658,1,0.0355478,10,0.000149965,-3.13451,-0.148671,-0.396849,0.203094,
2,1,0,1,0,74.663,0.223235,0.22297,0.587377,1,0.0380075,10,0.000130967,-3.23108,-0.259372,-0.227473,0.221918,
2,1,0,0,0,78.384,0.241841,0.241647,0.520841,1,0.0400958,10,0.000125859,-3.2833,-0.597942,-0.0986718,0.240714,
2,1,0,0,0,82.1052,0.260446,0.260247,0.490467,1,0.0420077,10,0.000127643,-3.30939,-0.565572,-0.104319,0.259369,
2,1,0,1,0,85.8262,0.279051,0.278848,0.464805,1,0.0438208,10,0.00012961,-3.33273,-0.343929,-0.171547,0.278016,
2,1,0,0,0,89.5472,0.297656,0.297448,0.448443,1,0.0455678,10,0.000133389,-3.34829,-2.03808,-0.0289488,0.296646,
2,1,0,0,0,93.2684,0.316262,0.315982,0.439987,1,0.0472693,10,0.000139028,-3.35656,7.28324,0.00810079,0.315195,
2,1,0,1,0,96.9894,0.334867,0.334659,0.430349,1,0.0489374,10,0.00014402,-3.36618,-8.68029,-0.006797,0.333889,
2,1,0,0,0,100.71,0.353472,0.353298,0.42417,1,0.0505767,10,0.000149859,-3.37246,-2.86961,-0.0205603,0.352539,
2,1,0,1,0,104.431,0.372078,0.371832,0.41622,1,0.052187,10,0.000154764,-3.38068,-1.36162,-0.0433307,0.371087,
2,1,0,1,0,108.153,0.390683,0.390451,0.411852,1,0.05377,10,0.000160808,-3.38526,0.767936,0.0768293,0.389714,
2,1,0,0,0,111.874,0.409288,0.409147,0.4074,1,0.0553296,10,0.000166687,-3.38998,0.986383,0.0598145,0.408418,
2,1,0,1,0,115.595,0.427894,0.427672,0.405907,1,0.0568759,10,0.000173595,-3.39157,-39.0284,-0.00151172,0.426945,
2,1,0,1,0,119.316,0.446499,0.446167,0.400585,1,0.0584085,10,0.000178728,-3.3973,-0.939241,-0.0628167,0.44545,
2,1,0,0,0,123.037,0.465104,0.464882,0.403422,1,0.0599382,10,0.000187544,-3.39424,-59.9519,-0.000984123,0.46416,
2,1,0,1,0,126.758,0.483709,0.483502,0.403532,1,0.0614765,10,0.000195109,-3.39412,-0.666637,-0.0885039,0.48278,
2,1,0,1,0,130.479,0.502315,0.502093,0.410223,1,0.0630326,10,0.00020597,-3.38698,-3.72306,-0.0158472,0.501359,
2,1,0,0,0,134.2,0.52092,0.520722,0.425592,1,0.0646232,10,0.000221615,-3.37101,0.804881,0.0733027,0.519961,
2,1,0,1,0,137.921,0.539525,0.539399,0.447334,1,0.0662745,10,0.000241291,-3.34937,0.628123,0.0939306,0.538599,
2,1,0,0,0,141.642,0.558131,0.557914,0.483081,1,0.0680341,10,0.000269518,-3.31598,0.531321,0.111044,0.557049,
2,1,0,0,0,145.363,0.576736,0.576476,0.553772,1,0.0699925,10,0.000319236,-3.25667,0.233076,0.253136,0.575485,
2,1,0,1,0,149.084,0.595341,0.595182,0.697956,1,0.0723302,10,0.000415411,-3.15617,0.118076,0.499676,0.593933,
2,1,0,0,0,152.805,0.613947,0.613697,0.983346,1,0.0754302,10,0.000603476,-3.00729,0.100633,0.586289,0.611937,
2,1,0,0,0,156.526,0.632552,0.632355,1.52506,1,0.0800299,10,0.000964381,-2.81671,0.0879596,0.670763,0.629625,
2,1,0,1,0,160.247,0.651157,0.650974,2.46037,1,0.0873504,10,0.00160164,-2.609,0.0728446,0.809943,0.64657,
2,1,0,0,0,163.968,0.669762,0.669651,3.85876,1,0.0990101,10,0.00258402,-2.41355,0.0791094,0.745803,0.662744,
2,1,0,0,0,167.69,0.688368,0.688166,5.68853,1,0.1167,10,0.00391465,-2.245,0.10457,0.564214,0.677983,
2,1,0,1,0,171.411,0.706973,0.706843,7.85373,1,0.141857,10,0.00555135,-2.10492,0.114273,0.516307,0.692785,
2,1,0,0,0,175.132,0.725578,0.725396,10.2186,1,0.175487,10,0.00741251,-1.99061,0.139498,0.422947,0.707104,
2,1,0,1,0,178.853,0.744184,0.744015,12.6523,1,0.218079,10,0.00941354,-1.89783,0.146576,0.402521,0.721368,
2,1,0,1,0,182.574,0.762789,0.762654,15.1053,1,0.26977,10,0.0115201,-1.82087,0.204095,0.289081,0.735616,
2,1,0,0,0,186.295,0.781394,0.781188,17.6697,1,0.330721,10,0.0138033,-1.75277,0.212361,0.277829,0.749559,
2,1,0,1,0,190.016,0.799999,0.799789,20.4546,1,0.401641,10,0.0163593,-1.68921,0.226253,0.26077,0.763175,
2,1,0,1,0,193.737,0.818605,0.818313,23.4822,1,0.483378,10,0.0192158,-1.62926,0.219692,0.268558,0.77628,
2,1,0,0,0,197.458,0.83721,0.837018,26.5803,1,0.576547,10,0.0222482,-1.57544,0.258787,0.227987,0.789439,
2,1,0,0,0,201.16,0.844212,0.843995,27.2935,1,0.679256,10,0.0230355,-1.56394,0.181114,0.325761,0.795139,
2,1,0,1,0,204.881,0.825607,0.825509,23.7575,1,0.774055,10,0.0196121,-1.6242,0.192857,0.305926,0.782983,
2,1,0,1,0,208.602,0.807002,0.80686,20.3943,1,0.856123,10,0.0164553,-1.69049,0.172053,0.342918,0.770355,
2,1,0,0,0,212.323,0.788396,0.78826,17.1629,1,0.925936,10,0.0135288,-1.76541,0.154677,0.381441,0.757538,
2,1,0,1,0,216.044,0.769791,0.76964,14.037,1,0.98387,10,0.0108034,-1.85273,0.155446,0.379553,0.744514,
2,1,0,1,0,219.765,0.751186,0.750982,11.1223,1,1.03057,10,0.00835261,-1.95381,0.115871,0.509186,0.731073,
2,1,0,0,0,223.486,0.73258,0.732401,8.45147,1,1.06686,10,0.00618987,-2.07307,0.1126,0.52398,0.717273,
2,1,0,1,0,227.207,0.713975,0.713772,6.07487,1,1.09374,10,0.00433607,-2.21646,0.0827787,0.712744,0.702898,
2,1,0,0,0,230.928,0.69537,0.695104,4.05576,1,1.11243,10,0.00281917,-2.39193,0.0874697,0.674519,0.687844,
2,1,0,0,0,234.649,0.676764,0.676513,2.46265,1,1.12438,10,0.00166602,-2.6086,0.0636513,0.926925,0.672105,
2,1,0,1,0,238.37,0.658159,0.65796,1.30811,1,1.13121,10,0.000860685,-2.88336,0.0558748,1.05593,0.655619,
2,1,0,0,0,242.091,0.639554,0.63935,0.567699,1,1.13455,10,0.000362959,-3.24588,0.0404206,1.45965,0.638334,
2,1,0,0,0,245.812,0.620949,0.620778,0.160983,1,1.13579,10,9.99348e-05,-3.79322,0.020146,2.92862,0.62049,
2,0,0,1,0,249.533,0.602343,0.602206,-0.0439165,1,1.13592,10,-2.64468e-05,-4.35737,-0.0131393,-4.49034,0.602285,
2,0,0,0,0,253.254,0.583738,0.583596,-0.142716,1,1.13551,10,-8.32882e-05,-3.84553,-0.127887,-0.461346,0.583851,
2,0,0,0,0,256.976,0.565133,0.5649,-0.188289,1,1.13485,10,-0.000106365,-3.72517,-0.240872,-0.244944,0.565237,
2,0,0,1,0,260.697,0.546527,0.546328,-0.213354,1,1.13407,10,-0.000116561,-3.6709,-0.417796,-0.141217,0.54671,
2,0,0,0,0,264.418,0.527922,0.527775,-0.225497,1,1.13322,10,-0.000119012,-3.64686,-1.06053,-0.0556325,0.528179,
2,0,0,1,0,268.139,0.509317,0.509175,-0.234791,1,1.13232,10,-0.00011955,-3.62932,-1.11898,-0.0527265,0.509595,
2,0,0,1,0,271.86,0.490711,0.490593,-0.247732,1,1.13138,10,-0.000121536,-3.60602,-0.334139,-0.176573,0.491036,
2,0,0,0,0,275.581,0.472106,0.471954,-0.257487,1,1.1304,10,-0.000121522,-3.58924,0.739365,0.0797982,0.472415,
2,0,0,1,0,279.302,0.453501,0.453268,-0.270623,1,1.12939,10,-0.000122665,-3.56764,-0.881727,-0.0669141,0.453752,
2,0,0,1,0,283.023,0.434896,0.434715,-0.279891,1,1.12833,10,-0.000121673,-3.55301,-1.24645,-0.0473344,0.435216,
2,0,0,0,0,286.744,0.41629,0.416124,-0.293377,1,1.12722,10,-0.000122081,-3.53257,-1.09793,-0.0537377,0.416649,
2,0,0,1,0,290.465,0.397685,0.397428,-0.311271,1,1.12605,10,-0.000123708,-3.50686,-0.605032,-0.0975155,0.397985,
2,0,0,1,0,294.186,0.37908,0.378846,-0.330001,1,1.12482,10,-0.00012502,-3.48148,-1.08073,-0.0545926,0.379437,
2,0,0,0,0,297.907,0.360474,0.360293,-0.351386,1,1.12351,10,-0.000126602,-3.45422,-0.504712,-0.116898,0.360922,
2,0,0,1,0,301.628,0.341869,0.341693,-0.370564,1,1.12214,10,-0.000126619,-3.43114,-0.518129,-0.113871,0.342356,
2,0,0,0,0,305.349,0.323264,0.323073,-0.388139,1,1.12069,10,-0.000125397,-3.41101,-1.6329,-0.036132,0.323768,
2,0,0,0,0,309.07,0.304658,0.304482,-0.406078,1,1.11918,10,-0.000123644,-3.39139,-3.69664,-0.0159605,0.305209,
2,0,0,1,0,312.791,0.286053,0.285805,-0.426678,1,1.11759,10,-0.000121947,-3.3699,-0.451647,-0.130633,0.286569,
2,0,0,0,0,316.512,0.267448,0.267195,-0.450899,1,1.11591,10,-0.000120478,-3.34592,10.6448,0.00554264,0.268002,
2,0,0,0,0,320.234,0.248843,0.248671,-0.480027,1,1.11414,10,-0.000119369,-3.31873,-0.549126,-0.107443,0.24953,
2,0,0,1,0,323.955,0.230237,0.230042,-0.520415,1,1.11224,10,-0.000119717,-3.28365,-0.460296,-0.128178,0.230973,
2,0,0,0,0,327.676,0.211632,0.211412,-0.590774,1,1.11014,10,-0.000124897,-3.22858,-0.34675,-0.170151,0.21247,
2,0,0,0,0,331.397,0.193027,0.192726,-0.72218,1,1.10768,10,-0.000139183,-3.14135,-0.161416,-0.365515,0.194019,
2,0,0,1,0,335.118,0.174421,0.174154,-0.98658,1,1.10451,10,-0.000171817,-3.00587,-0.106358,-0.554731,0.17592,
2,0,0,0,0,338.839,0.155816,0.155582,-1.52443,1,1.09989,10,-0.000237174,-2.81689,-0.0892492,-0.661071,0.158311,
2,0,0,1,0,342.56,0.137211,0.137058,-2.11623,1,1.09297,10,-0.000290046,-2.67444,-0.213113,-0.276849,0.140846,
2,0,0,1,0,346.281,0.118605,0.118362,-1.98313,1,1.08493,10,-0.000234727,-2.70265,0.120552,0.489415,0.121911,
2,0,0,0,0,350.002,0.1,0.0997324,-1.19058,1,1.07907,10,-0.00011874,-2.92424,0.0930067,0.634363,0.101864,
2,0,0,1,0,353.723,0.0813949,0.0812559,-0.923854,1,1.07521,10,-7.50686e-05,-3.0344,0.413823,0.142573,0.0829096,
2,0,0,1,0,357.444,0.0627896,0.0625217,-0.843571,1,1.07191,10,-5.27415e-05,-3.07388,0.723554,0.0815419,0.0640317,
2,0,0,0,0,361.165,0.0441843,0.0439498,-0.815228,1,1.06881,10,-3.58291e-05,-3.08872,-7.93252,-0.00743774,0.045409,
2,0,0,1,0,364.886,0.025579,0.0253301,-0.825463,1,1.06572,10,-2.09091e-05,-3.0833,-4.85201,-0.0121599,0.0268077,
2,0,0,1,0,368.607,0.00697372,0.00673904,-0.85792,1,1.06256,10,-5.78156e-06,-3.06655,-0.751332,-0.0785272,0.00827471,
2,0,0,1,0,369.968,0.000171779,-0.00016103,-0.879208,1,1.06135,10,1.41579e-07,-3.05591, , ,0.00141275,