Folder: Figs_alphaMnO2_OER_Tafel_sleope/Figure_codes/Fig_1A

Note: README.md
# Figs_alphaMnO2_OER_Tafel_sleope
Figures and analyses of "A Non-Rate-Determining Redox Process Dictates the Oxygen Evolution Tafel Slope of MnO2"

File: 20230112_2-4_003_FTOsubstrate_fine_m.TXT
2theta,intensity,,,,
5,437.5,Sample,FTO,,
5.04,377.083,Comments,meas,,
5.08,418.75,Filename,C:\data\BCRT\Yatsuzuka\20230112_2-4_XRD_alphaMnO2\20230112_2-4_003_FTOsubstrate_fine.raw,,
5.12,420.833,Goniometer,Ultima+,theta-theta,goniometer
5.16,368.75,Attachment,Standard,sample,holder
5.2,375,Monochromater,Fixed,Monochromator,
5.24,381.25,ScanningMode,2Theta/Theta,,
5.28,387.5,ScanningType,Continuos,Scanning,
5.32,350,X-Ray,40kV/40mA,,
5.36,412.5,DivSlit,1,deg.,
5.4,425,DivH.L.Slit,10mm,,
5.44,320.833,SctSlit,1,deg.,
5.48,314.583,RecSlit,0.6mm,,
5.52,427.083,Monochro,RS,No,Use
5.56,358.333,Start,5,,
5.6,354.167,Stop,50,,
5.64,354.167,Step,0.04,,
5.68,343.75,Speed,5,,
5.72,322.917,Offset,0,,
5.76,325,TempUnit,Celsius,,
5.8,335.417,StartTime,2023/01/12,14:59:00,
5.84,310.417,StartTemp,0,,
5.88,333.333,StopTime,2023/01/12,15:08:10,
5.92,322.917,StopTemp,0,,
5.96,320.833,,,,
6.12,310.417,,,,
6.28,350,,,,
6.44,322.917,,,,
6.6,258.333,,,,
6.76,262.5,,,,
6.92,237.5,,,,
7.08,277.083,,,,
7.24,254.167,,,,
7.4,239.583,,,,
7.56,239.583,,,,
7.72,277.083,,,,
7.88,222.917,,,,
8.04,243.75,,,,
8.2,227.083,,,,
8.36,195.833,,,,
8.52,181.25,,,,
8.68,181.25,,,,
8.84,183.333,,,,
9,206.25,,,,
9.16,195.833,,,,
9.32,210.417,,,,
9.48,212.5,,,,
9.64,204.167,,,,
9.8,185.417,,,,
9.96,195.833,,,,
10.12,183.333,,,,
10.28,160.417,,,,
10.44,170.833,,,,
10.6,214.583,,,,
10.76,183.333,,,,
10.92,191.667,,,,
11.08,214.583,,,,
11.24,158.333,,,,
11.4,197.917,,,,
11.56,175,,,,
11.72,154.167,,,,
11.88,162.5,,,,
12.04,177.083,,,,
12.2,191.667,,,,
12.36,170.833,,,,
12.52,172.917,,,,
12.68,166.667,,,,
12.84,154.167,,,,
13,156.25,,,,
13.16,156.25,,,,
13.32,160.417,,,,
13.48,162.5,,,,
13.64,170.833,,,,
13.8,160.417,,,,
13.96,154.167,,,,
14.12,131.25,,,,
14.28,168.75,,,,
14.44,133.333,,,,
14.6,158.333,,,,
14.76,200,,,,
14.92,202.083,,,,
15.08,162.5,,,,
15.24,200,,,,
15.4,183.333,,,,
15.56,200,,,,
15.72,195.833,,,,
15.88,216.667,,,,
16.04,195.833,,,,
16.2,185.417,,,,
16.36,158.333,,,,
16.52,222.917,,,,
16.68,206.25,,,,
16.84,181.25,,,,
17,183.333,,,,
17.16,210.417,,,,
17.32,229.167,,,,
17.48,227.083,,,,
17.64,200,,,,
17.8,229.167,,,,
17.96,277.083,,,,
18.12,222.917,,,,
18.28,237.5,,,,
18.44,204.167,,,,
18.6,268.75,,,,
18.76,285.417,,,,
18.92,264.583,,,,
19.08,285.417,,,,
19.24,268.75,,,,
19.4,293.75,,,,
19.56,304.167,,,,
19.72,304.167,,,,
19.88,354.167,,,,
20.04,322.917,,,,
20.2,331.25,,,,
20.36,410.417,,,,
20.52,387.5,,,,
20.68,389.583,,,,
20.84,395.833,,,,
21,466.667,,,,
21.16,427.083,,,,
21.32,450,,,,
21.48,412.5,,,,
21.64,477.083,,,,
21.8,420.833,,,,
21.96,450,,,,
22.12,466.667,,,,
22.28,450,,,,
22.44,443.75,,,,
22.6,510.417,,,,
22.76,472.917,,,,
22.92,477.083,,,,
23.08,495.833,,,,
23.24,406.25,,,,
23.4,462.5,,,,
23.56,456.25,,,,
23.72,422.917,,,,
23.88,483.333,,,,
24.04,427.083,,,,
24.2,466.667,,,,
24.36,554.167,,,,
24.52,554.167,,,,
24.68,543.75,,,,
24.84,508.333,,,,
25,491.667,,,,
25.16,512.5,,,,
25.32,514.583,,,,
25.48,472.917,,,,
25.64,493.75,,,,
25.8,516.667,,,,
25.96,520.833,,,,
26.12,564.583,,,,
26.28,645.833,,,,
26.44,887.5,,,,
26.6,1150,,,,
26.76,772.917,,,,
26.92,618.75,,,,
27.08,520.833,,,,
27.24,510.417,,,,
27.4,464.583,,,,
27.56,422.917,,,,
27.72,456.25,,,,
27.88,385.417,,,,
28.04,333.333,,,,
28.2,372.917,,,,
28.36,383.333,,,,
28.52,393.75,,,,
28.68,356.25,,,,
28.84,356.25,,,,
29,318.75,,,,
29.16,404.167,,,,
29.32,312.5,,,,
29.48,322.917,,,,
29.64,397.917,,,,
29.8,350,,,,
29.96,339.583,,,,
30.12,354.167,,,,
30.28,341.667,,,,
30.44,375,,,,
30.6,291.667,,,,
30.76,329.167,,,,
30.92,289.583,,,,
31.08,331.25,,,,
31.24,735.417,,,,
31.4,706.25,,,,
31.56,443.75,,,,
31.72,439.583,,,,
31.88,414.583,,,,
32.04,360.417,,,,
32.2,427.083,,,,
32.36,337.5,,,,
32.52,377.083,,,,
32.68,333.333,,,,
32.84,322.917,,,,
33,352.083,,,,
33.16,379.167,,,,
33.32,360.417,,,,
33.48,441.667,,,,
33.64,539.583,,,,
33.8,760.417,,,,
33.96,587.5,,,,
34.12,450,,,,
34.28,360.417,,,,
34.44,354.167,,,,
34.6,312.5,,,,
34.76,295.833,,,,
34.92,325,,,,
35.08,275,,,,
35.24,308.333,,,,
35.4,252.083,,,,
35.56,225,,,,
35.72,281.25,,,,
35.88,222.917,,,,
36.04,239.583,,,,
36.2,237.5,,,,
36.36,241.667,,,,
36.52,260.417,,,,
36.68,252.083,,,,
36.84,279.167,,,,
37,260.417,,,,
37.16,262.5,,,,
37.32,314.583,,,,
37.48,408.333,,,,
37.64,560.417,,,,
37.8,1402.08,,,,
37.96,7295.83,,,,
38.12,5137.5,,,,
38.28,968.75,,,,
38.44,439.583,,,,
38.6,347.917,,,,
38.76,233.333,,,,
38.92,231.25,,,,
39.08,239.583,,,,
39.24,193.75,,,,
39.4,220.833,,,,
39.56,197.917,,,,
39.72,210.417,,,,
39.88,227.083,,,,
40.04,214.583,,,,
40.2,202.083,,,,
40.36,195.833,,,,
40.52,210.417,,,,
40.68,218.75,,,,
40.84,220.833,,,,
41,233.333,,,,
41.16,214.583,,,,
41.32,175,,,,
41.48,177.083,,,,
41.64,229.167,,,,
41.8,218.75,,,,
41.96,218.75,,,,
42.12,191.667,,,,
42.28,247.917,,,,
42.44,206.25,,,,
42.6,212.5,,,,
42.76,247.917,,,,
42.92,237.5,,,,
43.08,197.917,,,,
43.24,183.333,,,,
43.4,218.75,,,,
43.56,243.75,,,,
43.72,227.083,,,,
43.88,239.583,,,,
44.04,195.833,,,,
44.2,247.917,,,,
44.36,239.583,,,,
44.52,252.083,,,,
44.68,216.667,,,,
44.84,177.083,,,,
45,233.333,,,,
45.16,241.667,,,,
45.32,212.5,,,,
45.48,243.75,,,,
45.64,229.167,,,,
45.8,218.75,,,,
45.96,241.667,,,,
46.12,216.667,,,,
46.28,193.75,,,,
46.44,235.417,,,,
46.6,237.5,,,,
46.76,218.75,,,,
46.92,220.833,,,,
47.08,187.5,,,,
47.24,243.75,,,,
47.4,229.167,,,,
47.56,222.917,,,,
47.72,212.5,,,,
47.88,183.333,,,,
48.04,168.75,,,,
48.2,233.333,,,,
48.36,237.5,,,,
48.52,237.5,,,,
48.68,202.083,,,,
48.84,218.75,,,,
49,231.25,,,,
49.16,185.417,,,,
49.32,204.167,,,,
49.48,200,,,,
49.64,187.5,,,,
49.8,212.5,,,,
49.96,177.083,,,,
50,227.083,,,,

File: 20230224_2-6_BareFTO_superfine.TXT
2theta,intensity,,,,
5,404.167,Sample,alpha-MnO2_on_FTO,,
5.04,383.75,Comments,meas_very_fine,,
5.08,402.083,Filename,C:\data\BCRT\Yatsuzuka\20230224_2-6_XRD_afterCV60scans\20230224_2-6_BareFTO_superfine.raw,,
5.12,402.5,Goniometer,Ultima+,theta-theta,goniometer
5.16,379.583,Attachment,Standard,sample,holder
5.2,406.25,Monochromater,Fixed,Monochromator,
5.24,387.5,ScanningMode,2Theta/Theta,,
5.28,382.083,ScanningType,Continuos,Scanning,
5.32,377.5,X-Ray,40kV/40mA,,
5.36,372.5,DivSlit,1,deg.,
5.4,360.833,DivH.L.Slit,10mm,,
5.44,357.917,SctSlit,1,deg.,
5.48,365,RecSlit,0.6mm,,
5.52,367.083,Monochro,RS,No,Use
5.56,365.833,Start,5,,
5.6,362.917,Stop,50,,
5.64,354.583,Step,0.04,,
5.68,350.417,Speed,1,,
5.72,346.667,Offset,0,,
5.76,347.083,TempUnit,Celsius,,
5.8,347.917,StartTime,2023/02/24,15:32:43,
5.84,336.25,StartTemp,0,,
5.88,334.167,StopTime,2023/02/24,16:17:54,
5.92,318.75,StopTemp,0,,
5.96,350.833,,,,
6.12,303.75,,,,
6.28,305.417,,,,
6.44,315,,,,
6.6,293.75,,,,
6.76,305,,,,
6.92,262.083,,,,
7.08,282.917,,,,
7.24,259.583,,,,
7.4,232.917,,,,
7.56,247.5,,,,
7.72,225.417,,,,
7.88,235.417,,,,
8.04,232.5,,,,
8.2,216.667,,,,
8.36,234.583,,,,
8.52,221.667,,,,
8.68,225,,,,
8.84,199.583,,,,
9,207.917,,,,
9.16,201.25,,,,
9.32,192.083,,,,
9.48,193.75,,,,
9.64,189.583,,,,
9.8,190,,,,
9.96,184.583,,,,
10.12,177.5,,,,
10.28,184.167,,,,
10.44,172.917,,,,
10.6,162.5,,,,
10.76,183.333,,,,
10.92,178.75,,,,
11.08,181.667,,,,
11.24,158.75,,,,
11.4,177.083,,,,
11.56,165.833,,,,
11.72,152.083,,,,
11.88,190,,,,
12.04,164.167,,,,
12.2,170.417,,,,
12.36,158.75,,,,
12.52,163.75,,,,
12.68,168.333,,,,
12.84,169.583,,,,
13,167.917,,,,
13.16,163.75,,,,
13.32,162.5,,,,
13.48,166.667,,,,
13.64,179.167,,,,
13.8,167.5,,,,
13.96,173.75,,,,
14.12,176.667,,,,
14.28,167.917,,,,
14.44,168.333,,,,
14.6,170.833,,,,
14.76,164.583,,,,
14.92,163.75,,,,
15.08,179.583,,,,
15.24,159.583,,,,
15.4,180,,,,
15.56,184.583,,,,
15.72,187.083,,,,
15.88,192.083,,,,
16.04,202.5,,,,
16.2,205.833,,,,
16.36,207.917,,,,
16.52,219.167,,,,
16.68,206.25,,,,
16.84,199.583,,,,
17,213.75,,,,
17.16,229.583,,,,
17.32,213.333,,,,
17.48,224.167,,,,
17.64,235,,,,
17.8,246.667,,,,
17.96,249.167,,,,
18.12,262.917,,,,
18.28,256.25,,,,
18.44,262.5,,,,
18.6,288.75,,,,
18.76,269.167,,,,
18.92,288.75,,,,
19.08,289.583,,,,
19.24,302.5,,,,
19.4,328.333,,,,
19.56,339.583,,,,
19.72,346.25,,,,
19.88,356.667,,,,
20.04,336.667,,,,
20.2,368.333,,,,
20.36,361.25,,,,
20.52,387.083,,,,
20.68,396.25,,,,
20.84,381.667,,,,
21,404.167,,,,
21.16,437.917,,,,
21.32,420.833,,,,
21.48,425.833,,,,
21.64,429.583,,,,
21.8,440.833,,,,
21.96,452.083,,,,
22.12,434.167,,,,
22.28,474.167,,,,
22.44,449.167,,,,
22.6,488.75,,,,
22.76,480,,,,
22.92,459.583,,,,
23.08,460,,,,
23.24,475,,,,
23.4,499.583,,,,
23.56,490.833,,,,
23.72,452.917,,,,
23.88,494.583,,,,
24.04,483.75,,,,
24.2,474.583,,,,
24.36,516.25,,,,
24.52,534.167,,,,
24.68,526.667,,,,
24.84,498.333,,,,
25,495.833,,,,
25.16,470.417,,,,
25.32,499.583,,,,
25.48,502.083,,,,
25.64,518.75,,,,
25.8,513.333,,,,
25.96,556.667,,,,
26.12,583.75,,,,
26.28,694.583,,,,
26.44,964.167,,,,
26.6,1163.75,,,,
26.76,810.833,,,,
26.92,600.417,,,,
27.08,528.333,,,,
27.24,492.5,,,,
27.4,463.333,,,,
27.56,429.583,,,,
27.72,430,,,,
27.88,421.25,,,,
28.04,429.583,,,,
28.2,386.25,,,,
28.36,393.75,,,,
28.52,357.917,,,,
28.68,350,,,,
28.84,370.833,,,,
29,374.167,,,,
29.16,340,,,,
29.32,360.417,,,,
29.48,347.5,,,,
29.64,350.833,,,,
29.8,350.417,,,,
29.96,325,,,,
30.12,338.75,,,,
30.28,312.5,,,,
30.44,331.25,,,,
30.6,347.917,,,,
30.76,342.917,,,,
30.92,346.667,,,,
31.08,391.667,,,,
31.24,979.167,,,,
31.4,936.667,,,,
31.56,618.75,,,,
31.72,512.083,,,,
31.88,442.917,,,,
32.04,413.75,,,,
32.2,401.25,,,,
32.36,386.25,,,,
32.52,361.25,,,,
32.68,360,,,,
32.84,375.417,,,,
33,360.833,,,,
33.16,405.417,,,,
33.32,400,,,,
33.48,448.75,,,,
33.64,547.917,,,,
33.8,705.417,,,,
33.96,627.917,,,,
34.12,470,,,,
34.28,382.917,,,,
34.44,341.25,,,,
34.6,338.333,,,,
34.76,296.667,,,,
34.92,282.5,,,,
35.08,281.667,,,,
35.24,275.833,,,,
35.4,270.417,,,,
35.56,262.083,,,,
35.72,250.417,,,,
35.88,250.417,,,,
36.04,252.5,,,,
36.2,262.083,,,,
36.36,247.5,,,,
36.52,250.833,,,,
36.68,260,,,,
36.84,252.083,,,,
37,265.833,,,,
37.16,259.583,,,,
37.32,261.667,,,,
37.48,302.5,,,,
37.64,386.25,,,,
37.8,769.167,,,,
37.96,3005,,,,
38.12,1940,,,,
38.28,550,,,,
38.44,333.75,,,,
38.6,260,,,,
38.76,249.583,,,,
38.92,228.75,,,,
39.08,248.333,,,,
39.24,236.667,,,,
39.4,232.917,,,,
39.56,204.167,,,,
39.72,218.75,,,,
39.88,201.25,,,,
40.04,233.333,,,,
40.2,224.167,,,,
40.36,213.75,,,,
40.52,244.167,,,,
40.68,229.167,,,,
40.84,214.583,,,,
41,212.917,,,,
41.16,217.917,,,,
41.32,224.583,,,,
41.48,228.333,,,,
41.64,237.5,,,,
41.8,219.583,,,,
41.96,229.167,,,,
42.12,240,,,,
42.28,245.833,,,,
42.44,239.583,,,,
42.6,231.667,,,,
42.76,235.833,,,,
42.92,230.417,,,,
43.08,245.417,,,,
43.24,241.25,,,,
43.4,227.083,,,,
43.56,226.667,,,,
43.72,227.5,,,,
43.88,222.083,,,,
44.04,232.917,,,,
44.2,223.75,,,,
44.36,225.417,,,,
44.52,232.917,,,,
44.68,216.667,,,,
44.84,215.417,,,,
45,230.417,,,,
45.16,223.333,,,,
45.32,231.25,,,,
45.48,222.917,,,,
45.64,217.5,,,,
45.8,219.583,,,,
45.96,222.917,,,,
46.12,221.667,,,,
46.28,200.833,,,,
46.44,225.417,,,,
46.6,228.333,,,,
46.76,218.333,,,,
46.92,230,,,,
47.08,205,,,,
47.24,212.083,,,,
47.4,235.417,,,,
47.56,220.833,,,,
47.72,219.583,,,,
47.88,203.75,,,,
48.04,212.083,,,,
48.2,217.5,,,,
48.36,224.167,,,,
48.52,215.833,,,,
48.68,232.5,,,,
48.84,224.167,,,,
49,212.5,,,,
49.16,223.75,,,,
49.32,220.833,,,,
49.48,197.5,,,,
49.64,212.5,,,,
49.8,202.083,,,,
49.96,222.083,,,,
50,250.417,,,,

File: 20230315_2-7_003_pxrd_non-sprayed_wide.TXT
2theta,intensity,,,,
5,116.563,Sample,alpha-MnO2_on_FTO,,
5.08,106.771,Comments,meas_very_fine,,
5.16,113.646,Filename,C:\data\BCRT\Yatsuzuka\20230315_2-7_pxrd_non-sprayed\20230315_2-7_003_pxrd_non-sprayed_wide.raw,,
5.24,106.042,Goniometer,Ultima+,theta-theta,goniometer
5.32,102.708,Attachment,Standard,sample,holder
5.4,103.542,Monochromater,Fixed,Monochromator,
5.48,99.375,ScanningMode,2Theta/Theta,,
5.56,92.9167,ScanningType,Continuos,Scanning,
5.64,89.8958,X-Ray,40kV/40mA,,
5.72,81.875,DivSlit,1/2,deg.,
5.8,81.4583,DivH.L.Slit,10mm,,
5.88,82.2917,SctSlit,1/2,deg.,
5.96,80.2083,RecSlit,0.3mm,,
6.04,71.6667,Monochro,RS,No,Use
6.12,75.5208,Start,5,,
6.2,75.5208,Stop,80.04,,
6.28,75.7292,Step,0.08,,
6.36,78.2292,Speed,0.5,,
6.44,70.625,Offset,0,,
6.52,61.7708,TempUnit,Celsius,,
6.6,68.4375,StartTime,2023/03/15,12:39:40,
6.68,69.4792,StartTemp,0,,
6.76,61.875,StopTime,2023/03/15,15:10:04,
6.84,63.5417,StopTemp,0,,
6.92,58.6458,,,,
7.24,54.5833,,,,
7.56,48.3333,,,,
7.88,47.2917,,,,
8.2,39.4792,,,,
8.52,46.25,,,,
8.84,36.6667,,,,
9.16,41.0417,,,,
9.48,34.1667,,,,
9.8,33.125,,,,
10.12,31.9792,,,,
10.44,36.0417,,,,
10.76,32.6042,,,,
11.08,39.375,,,,
11.4,45.9375,,,,
11.72,58.125,,,,
12.04,84.0625,,,,
12.36,116.771,,,,
12.68,143.333,,,,
13,142.292,,,,
13.32,98.3333,,,,
13.64,76.4583,,,,
13.96,50.9375,,,,
14.28,37.5,,,,
14.6,34.4792,,,,
14.92,26.3542,,,,
15.24,27.6042,,,,
15.56,24.5833,,,,
15.88,27.5,,,,
16.2,28.4375,,,,
16.52,33.75,,,,
16.84,40.2083,,,,
17.16,54.375,,,,
17.48,81.875,,,,
17.8,117.188,,,,
18.12,133.438,,,,
18.44,130.104,,,,
18.76,104.479,,,,
19.08,71.9792,,,,
19.4,50.9375,,,,
19.72,39.7917,,,,
20.04,33.0208,,,,
20.36,26.6667,,,,
20.68,23.3333,,,,
21,24.375,,,,
21.32,23.0208,,,,
21.64,20.625,,,,
21.96,16.9792,,,,
22.28,19.8958,,,,
22.6,17.9167,,,,
22.92,16.7708,,,,
23.24,14.8958,,,,
23.56,18.8542,,,,
23.88,17.7083,,,,
24.2,18.4375,,,,
24.52,20.8333,,,,
24.84,23.5417,,,,
25.16,28.75,,,,
25.48,28.125,,,,
25.8,31.5625,,,,
26.12,31.875,,,,
26.44,30.2083,,,,
26.76,30.9375,,,,
27.08,31.25,,,,
27.4,41.1458,,,,
27.72,61.9792,,,,
28.04,85.1042,,,,
28.36,123.021,,,,
28.68,150.625,,,,
29,158.229,,,,
29.32,118.021,,,,
29.64,82.7083,,,,
29.96,57.3958,,,,
30.28,37.8125,,,,
30.6,24.1667,,,,
30.92,22.0833,,,,
31.24,18.125,,,,
31.56,16.6667,,,,
31.88,16.1458,,,,
32.2,15.625,,,,
32.52,15.4167,,,,
32.84,16.6667,,,,
33.16,16.4583,,,,
33.48,14.1667,,,,
33.8,16.5625,,,,
34.12,15.7292,,,,
34.44,19.375,,,,
34.76,19.2708,,,,
35.08,22.6042,,,,
35.4,23.2292,,,,
35.72,34.0625,,,,
36.04,42.3958,,,,
36.36,54.6875,,,,
36.68,73.125,,,,
37,101.563,,,,
37.32,175.938,,,,
37.64,272.813,,,,
37.96,222.5,,,,
38.28,108.542,,,,
38.6,64.6875,,,,
38.92,47.7083,,,,
39.24,40.7292,,,,
39.56,37.0833,,,,
39.88,32.3958,,,,
40.2,26.1458,,,,
40.52,28.75,,,,
40.84,35.3125,,,,
41.16,41.6667,,,,
41.48,55.8333,,,,
41.8,83.6458,,,,
42.12,100.938,,,,
42.44,78.2292,,,,
42.76,45.1042,,,,
43.08,29.0625,,,,
43.4,18.4375,,,,
43.72,15.3125,,,,
44.04,13.3333,,,,
44.36,13.9583,,,,
44.68,13.2292,,,,
45,13.4375,,,,
45.32,17.7083,,,,
45.64,15.625,,,,
45.96,19.5833,,,,
46.28,22.2917,,,,
46.6,21.0417,,,,
46.92,25.9375,,,,
47.24,23.9583,,,,
47.56,25.2083,,,,
47.88,22.3958,,,,
48.2,19.1667,,,,
48.52,25.7292,,,,
48.84,27.2917,,,,
49.16,42.1875,,,,
49.48,68.4375,,,,
49.8,90,,,,
50.12,102.188,,,,
50.44,84.8958,,,,
50.76,57.3958,,,,
51.08,39.5833,,,,
51.4,25.3125,,,,
51.72,19.2708,,,,
52.04,19.2708,,,,
52.36,20.4167,,,,
52.68,18.75,,,,
53,16.7708,,,,
53.32,16.9792,,,,
53.64,16.9792,,,,
53.96,17.7083,,,,
54.28,20.2083,,,,
54.6,19.2708,,,,
54.92,21.9792,,,,
55.24,28.6458,,,,
55.56,32.6042,,,,
55.88,45.8333,,,,
56.2,49.1667,,,,
56.52,51.25,,,,
56.84,47.3958,,,,
57.16,38.75,,,,
57.48,34.4792,,,,
57.8,32.0833,,,,
58.12,25.5208,,,,
58.44,22.0833,,,,
58.76,28.2292,,,,
59.08,36.7708,,,,
59.4,45.5208,,,,
59.72,66.4583,,,,
60.04,84.375,,,,
60.36,98.4375,,,,
60.68,85.7292,,,,
61,64.7917,,,,
61.32,40.3125,,,,
61.64,28.3333,,,,
61.96,21.9792,,,,
62.28,16.9792,,,,
62.6,15.1042,,,,
62.92,12.5,,,,
63.24,9.89583,,,,
63.56,9.89583,,,,
63.88,10.7292,,,,
64.2,11.4583,,,,
64.52,11.25,,,,
64.84,15.3125,,,,
65.16,26.7708,,,,
65.48,73.9583,,,,
65.8,45.8333,,,,
66.12,23.4375,,,,
66.44,20.7292,,,,
66.76,24.1667,,,,
67.08,27.1875,,,,
67.4,28.4375,,,,
67.72,24.1667,,,,
68.04,27.1875,,,,
68.36,41.7708,,,,
68.68,47.9167,,,,
69,53.4375,,,,
69.32,63.2292,,,,
69.64,68.75,,,,
69.96,63.5417,,,,
70.28,49.5833,,,,
70.6,34.2708,,,,
70.92,26.7708,,,,
71.24,24.5833,,,,
71.56,20,,,,
71.88,19.375,,,,
72.2,18.125,,,,
72.52,27.2917,,,,
72.84,33.9583,,,,
73.16,40.5208,,,,
73.48,34.1667,,,,
73.8,24.4792,,,,
74.12,17.2917,,,,
74.44,13.75,,,,
74.76,13.0208,,,,
75.08,11.4583,,,,
75.4,9.79167,,,,
75.72,10.4167,,,,
76.04,11.1458,,,,
76.36,10.8333,,,,
76.68,12.2917,,,,
77,13.6458,,,,
77.32,18.75,,,,
77.64,19.8958,,,,
77.96,18.75,,,,
78.28,18.8542,,,,
78.6,20.625,,,,
78.92,20.3125,,,,
79.24,18.6458,,,,
79.56,16.3542,,,,
79.88,13.0208,,,,
80.04,13.125,,,,

File: PDF_card_alphaMnO2_00-044-0141.csv
index,2theta,d value,intensity,h,k,l
1,12.78,6.919,37.0,1,1,0
2,18.11,4.895,53.0,2,0,0
3,25.71,3.462,5.0,2,2,0
4,28.84,3.093,82.0,3,1,0
5,36.70,2.447,24.0,4,0,0
6,37.52,2.395,100.0,2,1,1
7,39.01,2.307,9.0,3,3,0
8,41.23,2.188,5.0,4,2,0
9,41.97,2.151,28.0,3,0,1
10,46.04,1.970,2.0,3,2,1
11,47.37,1.917,8.0,5,1,0
12,49.86,1.827,50.0,4,1,1
13,52.86,1.731,1.0,4,4,0
14,56.37,1.631,29.0,6,0,0
15,56.93,1.616,10.0,4,3,1
16,60.27,1.534,58.0,5,2,1
17,65.11,1.431,15.0,0,0,2
18,66.69,1.401,1.0,1,1,2
19,67.65,1.384,1.0,7,1,0
20,68.18,1.374,5.0,2,0,2
21,69.71,1.348,35.0,5,4,1
22,71.19,1.323,1.0,2,2,2
23,72.71,1.299,8.0,3,1,2
24,73.70,1.284,3.0,7,3,0
25,77.16,1.235,4.0,4,0,2
26,78.59,1.216,10.0,3,3,2
27,83.82,1.153,2.0,6,6,0
28,84.35,1.147,3.0,5,1,2
29,87.15,1.117,2.0,7,4,1