Folder: Figs_alphaMnO2_OER_Tafel_sleope/Figure_codes/Fig_S3_S4 (part 6)

File: 20221101_1-115_002_TrumpetPlot_ParaChange_14_CV_C01_1.csv
mode,ox/red,error,control changes,counter inc.,time/s,control/V,Ewe/V,<I>/mA,cycle number,(Q-Qo)/C,I Range,P/W,log(|I|),Tafel slope mV/dec,alpha_eff,E-IR/V,
2,1,0,1,0,2447.92,2.44065e-05,-0.000840681,21.7769,2,0.0000000E+000,10,-1.83075e-05,-1.662, , ,-0.0182622,
2,1,0,1,0,2447.94,0.00908291,0.00872419,25.8951,2,0.000363781,10,0.000225914,-1.58678,0.115261,0.511881,-0.0119919,
2,1,0,1,0,2447.95,0.0186824,0.0183643,28.6115,2,0.000802167,10,0.000525431,-1.54346,0.261264,0.225825,-0.00452487,
2,1,0,1,0,2447.97,0.0282792,0.0279928,30.02,2,0.00127272,10,0.000840346,-1.52259,0.62956,0.0937163,0.00397681,
2,1,0,1,0,2447.98,0.0378898,0.0375556,30.6698,2,0.00175916,10,0.00115182,-1.51329,1.42781,0.0413219,0.0130198,
2,1,0,1,0,2448,0.0474865,0.0471427,31.0082,2,0.00225289,10,0.00146181,-1.50852,2.55015,0.0231359,0.0223361,
2,1,0,1,0,2448.02,0.057086,0.056732,31.3272,2,0.00275145,10,0.00177725,-1.50408,1.60463,0.0367686,0.0316702,
2,1,0,1,0,2448.03,0.0666828,0.0663764,31.9056,2,0.00325674,10,0.00211778,-1.49613,0.828637,0.0712013,0.0408519,
2,1,0,1,0,2448.05,0.0762823,0.0759391,32.9066,2,0.00377467,10,0.0024989,-1.48272,0.527946,0.111754,0.0496138,
2,1,0,1,0,2448.06,0.0858818,0.0855549,34.3279,2,0.00431231,10,0.00293692,-1.46435,0.38687,0.152506,0.0580926,
2,1,0,1,0,2448.08,0.0954841,0.0951261,36.3596,2,0.00487724,10,0.00345875,-1.43938,0.283755,0.207926,0.0660384,
2,1,0,1,0,2448.1,0.105086,0.104791,38.8385,2,0.00547877,10,0.00406991,-1.41074,0.258306,0.228412,0.0737199,
2,1,0,1,0,2448.11,0.114686,0.114342,41.6325,2,0.00612225,10,0.00476033,-1.38057,0.23401,0.252126,0.0810357,
2,1,0,1,0,2448.13,0.124285,0.123945,44.769,2,0.00681318,10,0.00554888,-1.34902,0.212987,0.277012,0.0881296,
2,1,0,1,0,2448.14,0.133882,0.133572,48.3056,2,0.0075576,10,0.00645229,-1.316,0.189379,0.311545,0.0949277,
2,1,0,1,0,2448.16,0.143482,0.143152,52.4543,2,0.00836353,10,0.00750893,-1.28022,0.163162,0.361604,0.101189,
2,1,0,1,0,2448.18,0.153084,0.152765,57.2733,2,0.0092412,10,0.00874933,-1.24205,0.143441,0.411318,0.106946,
2,1,0,1,0,2448.19,0.162689,0.16238,62.6624,2,0.0102006,10,0.0101751,-1.20299,0.134322,0.439242,0.11225,
2,1,0,1,0,2448.21,0.172286,0.171914,68.1601,2,0.0112478,10,0.0117177,-1.16647,0.154913,0.380859,0.117386,
2,1,0,1,0,2448.22,0.181885,0.181577,73.193,2,0.0123803,10,0.0132901,-1.13553,0.227915,0.258869,0.123022,
2,1,0,1,0,2448.24,0.191482,0.191144,76.7509,2,0.0135834,10,0.0146705,-1.11492,0.594826,0.0991886,0.129743,
2,1,0,1,0,2448.26,0.201081,0.200742,77.2903,2,0.0148212,10,0.0155154,-1.11187,-1.09466,-0.0538982,0.138909,
2,1,0,1,0,2448.27,0.210681,0.210391,72.8912,2,0.0160296,10,0.0153357,-1.13732,-0.354241,-0.166553,0.152078,
2,1,0,1,0,2448.29,0.220289,0.220066,62.988,2,0.0171219,10,0.0138615,-1.20074,-0.230103,-0.256407,0.169676,
2,1,0,1,0,2448.3,0.229886,0.229631,49.6978,2,0.0180241,10,0.0114122,-1.30366,-0.171894,-0.343235,0.189873,
2,1,0,1,0,2448.32,0.239485,0.239257,36.922,2,0.0187127,10,0.00883383,-1.43271,-0.140983,-0.418489,0.209719,
2,1,0,1,0,2448.34,0.249085,0.2488,27.6642,2,0.0192228,10,0.00688287,-1.55808,-0.139807,-0.422009,0.226669,
2,1,0,1,0,2448.35,0.258681,0.25843,22.705,2,0.0196202,10,0.00586766,-1.64388,-0.197853,-0.298201,0.240266,
2,1,0,1,0,2448.37,0.268281,0.268001,20.7058,2,0.0199645,10,0.00554919,-1.68391,-0.455094,-0.129644,0.251436,
2,1,0,1,0,2448.38,0.277889,0.277611,20.1508,2,0.0202902,10,0.00559409,-1.69571,-1.81346,-0.0325344,0.261491,
2,1,0,1,0,2448.4,0.287488,0.28717,20.0653,2,0.0206117,10,0.00576215,-1.69755,-103.234,-0.000571515,0.271118,
2,1,0,1,0,2448.42,0.297085,0.296835,20.0971,2,0.020933,10,0.00596551,-1.69687,-23.8323,-0.00247564,0.280757,
2,1,0,1,0,2448.43,0.296846,0.29674,9.43469,2,0.0211069,10,0.00279965,-2.02527,-0.00655,-9.00764,0.289192,
2,0,0,1,0,2448.44,0.287247,0.287007,-6.68367,2,0.0211034,10,-0.00191826,-2.17499,-0.00225577,-26.1552,0.292354,
2,0,0,1,0,2448.46,0.27765,0.277387,-11.9827,2,0.0209463,10,-0.00332385,-1.92144,-0.0596988,-0.988294,0.286973,
2,0,0,1,0,2448.47,0.268039,0.267739,-13.9637,2,0.0207363,10,-0.00373862,-1.855,-0.20384,-0.289443,0.27891,
2,0,0,1,0,2448.49,0.258443,0.258159,-14.9129,2,0.0205046,10,-0.00384991,-1.82644,-0.410083,-0.143873,0.27009,
2,0,0,1,0,2448.51,0.248843,0.24853,-15.6073,2,0.0202603,10,-0.00387889,-1.80667,-0.49014,-0.120374,0.261016,
2,0,0,1,0,2448.52,0.239247,0.238981,-16.2426,2,0.0200056,10,-0.00388166,-1.78935,-0.519804,-0.113504,0.251975,
2,0,0,1,0,2448.54,0.229647,0.229366,-16.9407,2,0.0197403,10,-0.00388562,-1.77107,-0.470649,-0.125359,0.242919,
2,0,0,1,0,2448.55,0.220047,0.219804,-17.7062,2,0.0194631,10,-0.00389191,-1.75187,-0.416667,-0.1416,0.233969,
2,0,0,1,0,2448.57,0.21044,0.210189,-18.6958,2,0.0191718,10,-0.00392965,-1.72826,-0.350165,-0.168492,0.225145,
2,0,0,1,0,2448.59,0.200843,0.200542,-19.8867,2,0.0188634,10,-0.00398812,-1.70144,-0.302789,-0.194855,0.216452,
2,0,0,1,0,2448.6,0.191243,0.190945,-21.4134,2,0.0185336,10,-0.0040888,-1.66931,-0.228799,-0.257869,0.208076,
2,0,0,1,0,2448.62,0.181644,0.181392,-23.397,2,0.0181757,10,-0.00424403,-1.63084,-0.182737,-0.322868,0.20011,
2,0,0,1,0,2448.63,0.172047,0.171793,-26.0437,2,0.0177808,10,-0.00447413,-1.5843,-0.138994,-0.424479,0.192628,
2,0,0,1,0,2448.65,0.162448,0.162165,-29.5581,2,0.0173366,10,-0.00479329,-1.52932,-0.109148,-0.540549,0.185812,
2,0,0,1,0,2448.67,0.152845,0.152602,-34.1099,2,0.0168282,10,-0.00520525,-1.46712,-0.0850544,-0.693673,0.17989,
2,0,0,1,0,2448.68,0.14324,0.143021,-39.7921,2,0.0162378,10,-0.00569113,-1.4002,-0.0689897,-0.8552,0.174855,
2,0,0,1,0,2448.7,0.133644,0.133502,-46.2257,2,0.0155493,10,-0.00617124,-1.33512,-0.0660557,-0.893186,0.170483,
2,0,0,1,0,2448.71,0.124044,0.12388,-53.2316,2,0.0147533,10,-0.00659434,-1.27383,-0.0704036,-0.838025,0.166465,
2,0,0,1,0,2448.73,0.114447,0.114277,-60.0137,2,0.013846,10,-0.00685819,-1.22175,-0.0906356,-0.650958,0.162288,
2,0,0,1,0,2448.75,0.104848,0.104639,-66.2763,2,0.0128337,10,-0.00693509,-1.17864,-0.140367,-0.420328,0.15766,
2,0,0,1,0,2448.76,0.0952427,0.0950105,-71.1503,2,0.0117316,10,-0.00676003,-1.14782,-0.26292,-0.224403,0.151931,
2,0,0,1,0,2448.78,0.0856404,0.0853513,-74.0302,2,0.0105669,10,-0.00631857,-1.13059,-0.876527,-0.0673111,0.144575,
2,0,0,1,0,2448.79,0.0760437,0.0757779,-74.2494,2,0.00937682,10,-0.00562647,-1.12931,1.45442,0.040566,0.135177,
2,0,0,1,0,2448.81,0.0664442,0.0661335,-71.5624,2,0.0082069,10,-0.00473268,-1.14531,0.530136,0.111292,0.123383,
2,0,0,1,0,2448.83,0.0568446,0.0565061,-66.6041,2,0.00709988,10,-0.00376354,-1.1765,0.384058,0.153623,0.109789,
2,0,0,1,0,2448.84,0.0472479,0.0469296,-60.6934,2,0.00608182,10,-0.00284831,-1.21686,0.337306,0.174915,0.0954843,
2,0,0,1,0,2448.86,0.0376456,0.037353,-54.9273,2,0.00515795,10,-0.0020517,-1.26021,0.320762,0.183937,0.0812949,
2,0,0,1,0,2448.87,0.0280406,0.0277426,-49.5341,2,0.00432324,10,-0.0013742,-1.3051,0.299746,0.196834,0.0673698,
2,0,0,1,0,2448.89,0.018441,0.0181268,-44.4746,2,0.00357208,10,-0.000806183,-1.35189,0.286284,0.206089,0.0537065,
2,0,0,1,0,2448.91,0.00884431,0.0085418,-40.0248,2,0.00289774,10,-0.000341883,-1.39767,0.298292,0.197793,0.0405616,
2,0,0,1,0,2448.92,-0.000755207,-0.00112487,-36.8587,2,0.00228525,10,4.14613e-05,-1.43346,0.405508,0.145496,0.0283621,
2,0,0,1,0,2448.94,-0.010352,-0.0106611,-35.0048,2,0.00171243,10,0.00037319,-1.45587,0.711011,0.0829804,0.0173427,
2,0,0,1,0,2448.95,-0.0199515,-0.0202801,-34.316,2,0.00115901,10,0.000695931,-1.4645,3.18612,0.0185178,0.00717274,
2,0,0,1,0,2448.97,-0.0295593,-0.0298789,-34.4134,2,0.000609815,10,0.00102823,-1.46327,-2.2809,-0.025867,-0.00234816,
2,0,0,1,0,2448.99,-0.0391588,-0.0394756,-34.9735,2,5.52027e-05,10,0.0013806,-1.45626,-1.06298,-0.0555042,-0.0114968,
2,0,0,1,0,2449,-0.0487556,-0.0491009,-35.7744,2,-0.000510334,10,0.00175655,-1.44643,-0.82366,-0.0716315,-0.0204814,
2,0,0,1,0,2449.02,-0.0583551,-0.0586954,-36.7222,2,-0.00109012,10,0.00215543,-1.43507,-0.716131,-0.0823871,-0.0293176,
2,0,0,1,0,2449.03,-0.0679546,-0.0682762,-37.741,2,-0.00168597,10,0.00257681,-1.42319,-0.714518,-0.0825732,-0.0380834,
2,0,0,1,0,2449.05,-0.0775514,-0.0778697,-38.8565,2,-0.00229907,10,0.00302574,-1.41054,-0.676759,-0.0871802,-0.0467845,
2,0,0,1,0,2449.07,-0.0871592,-0.0874579,-40.0783,2,-0.0029305,10,0.00350516,-1.39709,-0.653368,-0.0903014,-0.0553953,
2,0,0,1,0,2449.08,-0.0967587,-0.0971108,-41.3676,2,-0.00358182,10,0.00401724,-1.38334,-0.600553,-0.0982429,-0.0640167,
2,0,0,1,1,2449.09,-0.0979573,-0.0984681,-34.1635,2,-0.00394229,10,0.00336401,-1.46644,0.0334713,1.7627,-0.0711373,
2,0,0,1,1,2449.11,-0.0883577,-0.0888014,-7.96403,2,-0.00425902,10,0.000707218,-2.09887,0.00541705,10.8915,-0.0824302,
2,1,0,1,1,2449.12,-0.0787554,-0.0792323,8.36732,2,-0.00424468,10,-0.000662962,-2.07741,-0.000845492,-69.7819,-0.0859262,
2,1,0,1,1,2449.14,-0.0691532,-0.0696356,18.9868,2,-0.00401946,10,-0.00132215,-1.72155,0.0130099,4.535,-0.084825,
2,1,0,1,1,2449.16,-0.0595536,-0.0599446,26.0063,2,-0.00365478,10,-0.00155894,-1.58492,0.05575,1.0583,-0.0807496,
2,1,0,1,1,2449.17,-0.0499541,-0.0503755,30.3326,2,-0.00320103,10,-0.00152802,-1.51809,0.139109,0.424128,-0.0746415,
2,1,0,1,1,2449.19,-0.0403574,-0.0407226,32.9618,2,-0.00269258,10,-0.00134229,-1.48199,0.303204,0.194589,-0.067092,
2,1,0,1,1,2449.2,-0.0307579,-0.031127,34.3902,2,-0.00215233,10,-0.00107046,-1.46357,0.721389,0.0817867,-0.0586391,
2,1,0,1,1,2449.22,-0.0211611,-0.0215345,35.0097,2,-0.0015961,10,-0.000753917,-1.45581,2.24683,0.0262592,-0.0495423,
2,1,0,1,1,2449.24,-0.0115505,-0.0118922,35.098,2,-0.00103463,10,-0.000417394,-1.45472,-5.16586,-0.0114211,-0.0399706,
2,1,0,1,1,2449.25,-0.00195376,-0.00228708,34.8034,2,-0.000475253,10,-7.9598e-05,-1.45838, , ,-0.0301298,
2,1,0,1,1,2449.25,-7.54729e-05,-0.000325324,34.6171,2,-0.000367539,10,-1.12618e-05,-1.46071, , ,-0.028019,

File: 20221101_1-115_002_TrumpetPlot_ParaChange_15_CV_C01_1.csv
mode,ox/red,error,control changes,counter inc.,time/s,control/V,Ewe/V,<I>/mA,cycle number,(Q-Qo)/C,I Range,P/W,log(|I|),Tafel slope mV/dec,alpha_eff,E-IR/V,
2,1,0,0,0,2449.36,2.44065e-05,-0.00112699,33.2134,2,0.0000000E+000,10,-3.74312e-05,-1.47869, , ,-0.0276977,
2,1,0,1,0,2449.37,0.0121015,0.0117633,36.9252,2,0.00053322,10,0.000434363,-1.43268,0.258832,0.227947,-0.0177769,
2,1,0,1,0,2449.39,0.0249027,0.0246091,39.5025,2,0.00114705,10,0.000972121,-1.40338,0.560803,0.105206,-0.00699295,
2,1,0,1,0,2449.4,0.0377094,0.03737,40.7108,2,0.00179028,10,0.00152136,-1.39029,1.48586,0.0397076,0.00480136,
2,1,0,1,0,2449.42,0.0505051,0.0501744,41.1996,2,0.00244624,10,0.00206717,-1.38511,3.06284,0.0192631,0.0172147,
2,1,0,1,0,2449.43,0.0633063,0.0629725,41.6604,2,0.00310886,10,0.00262346,-1.38028,1.86375,0.0316566,0.0296442,
2,1,0,1,0,2449.45,0.0761019,0.0757652,42.6397,2,0.00378225,10,0.0032306,-1.37019,0.814973,0.072395,0.0416535,
2,1,0,1,0,2449.47,0.0889087,0.088577,44.4845,2,0.00447827,10,0.0039403,-1.35179,0.492934,0.119691,0.0529894,
2,1,0,1,0,2449.48,0.101702,0.101333,47.356,2,0.00521136,10,0.00479871,-1.32462,0.313775,0.188033,0.0634479,
2,1,0,1,0,2449.5,0.114506,0.11417,51.2122,2,0.0059997,10,0.00584689,-1.29063,0.263956,0.223522,0.0732002,
2,1,0,1,0,2449.51,0.127301,0.126931,55.8357,2,0.00685568,10,0.00708728,-1.25309,0.224709,0.262562,0.0822623,
2,1,0,1,0,2449.53,0.140105,0.139758,61.2798,2,0.007792,10,0.00856432,-1.21268,0.194044,0.304055,0.0907337,
2,1,0,1,0,2449.55,0.152904,0.152549,67.7296,2,0.00882325,10,0.0103321,-1.16922,0.158428,0.37241,0.0983656,
2,1,0,1,0,2449.56,0.165705,0.165338,75.3056,2,0.00996719,10,0.0124509,-1.12317,0.13868,0.425441,0.105093,
2,1,0,1,0,2449.58,0.178506,0.178156,83.4825,2,0.0112382,10,0.0148729,-1.0784,0.150207,0.392791,0.11137,
2,1,0,1,0,2449.59,0.191302,0.19094,91.1395,2,0.0126377,10,0.0174022,-1.04029,0.232424,0.253846,0.118029,
2,1,0,1,0,2449.61,0.204108,0.203814,96.2552,2,0.0141425,10,0.0196181,-1.01658,0.890965,0.0662204,0.126809,
2,1,0,1,0,2449.63,0.216904,0.216669,95.481,2,0.0156866,10,0.0206878,-1.02008,-0.730088,-0.0808122,0.140284,
2,1,0,1,0,2449.64,0.229705,0.229546,85.735,2,0.017148,10,0.0196802,-1.06684,-0.332087,-0.177664,0.160958,
2,1,0,1,0,2449.66,0.242501,0.242313,68.2605,2,0.0183852,10,0.0165404,-1.16583,-0.229349,-0.25725,0.187704,
2,1,0,1,0,2449.67,0.255308,0.255093,49.3956,2,0.0193217,10,0.0126005,-1.30631,-0.177017,-0.333301,0.215576,
2,1,0,1,0,2449.69,0.268101,0.267893,35.4045,2,0.0199896,10,0.00948461,-1.45094,-0.16688,-0.353548,0.239569,
2,1,0,1,0,2449.71,0.280905,0.280616,28.245,2,0.0204901,10,0.00792598,-1.54906,-0.24328,-0.242519,0.25802,
2,1,0,1,0,2449.72,0.2937,0.293417,25.6202,2,0.020917,10,0.00751739,-1.59142,-0.580678,-0.101605,0.272921,
2,1,0,1,0,2449.73,0.298983,0.299001,21.5205,2,0.0211465,10,0.00643464,-1.66715,-0.0117447,-5.02352,0.281785,
2,0,0,1,0,2449.75,0.286187,0.286012,-7.43818,2,0.0212122,10,-0.00212741,-2.12853,5.54808e-05,1063.43,0.291963,
2,0,0,1,0,2449.76,0.273386,0.273167,-16.6256,2,0.0210055,10,-0.00454158,-1.77922,-0.0583932,-1.01039,0.286468,
2,0,0,1,0,2449.78,0.260585,0.260369,-19.8303,2,0.0207096,10,-0.00516321,-1.70267,-0.246487,-0.239364,0.276234,
2,0,0,1,0,2449.8,0.247783,0.247522,-21.2598,2,0.0203795,10,-0.00526227,-1.67244,-0.490992,-0.120165,0.26453,
2,0,0,1,0,2449.81,0.234982,0.234771,-22.3136,2,0.0200305,10,-0.00523858,-1.65143,-0.607483,-0.097122,0.252622,
2,0,0,1,0,2449.83,0.222187,0.221937,-23.4045,2,0.0196647,10,-0.00519433,-1.6307,-0.533562,-0.110578,0.240661,
2,0,0,1,0,2449.84,0.20938,0.209145,-24.7941,2,0.0192796,10,-0.00518556,-1.60565,-0.414384,-0.14238,0.22898,
2,0,0,1,0,2449.86,0.196587,0.196382,-26.6323,2,0.0188688,10,-0.0052301,-1.57459,-0.310491,-0.190022,0.217688,
2,0,0,1,0,2449.88,0.183783,0.183567,-29.2387,2,0.0184227,10,-0.00536727,-1.53404,-0.220251,-0.267876,0.206958,
2,0,0,1,0,2449.89,0.170987,0.170798,-32.9827,2,0.0179261,10,-0.00563337,-1.48171,-0.157713,-0.374096,0.197184,
2,0,0,1,0,2449.91,0.158183,0.15797,-38.3109,2,0.0173573,10,-0.00605198,-1.41668,-0.111243,-0.53037,0.188619,
2,0,0,1,0,2449.92,0.145385,0.145191,-45.5388,2,0.0166886,10,-0.00661183,-1.34162,-0.0788247,-0.748496,0.181622,
2,0,0,1,0,2449.94,0.132584,0.132369,-54.6138,2,0.0158886,10,-0.00722915,-1.2627,-0.0671219,-0.878998,0.17606,
2,0,0,1,0,2449.96,0.119782,0.119679,-64.6492,2,0.014935,10,-0.00773713,-1.18944,-0.0648708,-0.9095,0.171398,
2,0,0,1,0,2449.97,0.106987,0.106932,-74.7023,2,0.0138181,10,-0.00798803,-1.12667,-0.0881911,-0.669002,0.166693,
2,0,0,1,0,2449.99,0.0941801,0.0939946,-83.8396,2,0.0125461,10,-0.00788047,-1.07655,-0.156212,-0.377691,0.161066,
2,0,0,1,0,2450,0.0813844,0.0811224,-90.3931,2,0.0111474,10,-0.0073329,-1.04386,-0.385396,-0.153089,0.153437,
2,0,0,1,0,2450.02,0.0685832,0.0683413,-93.119,2,0.0096731,10,-0.00636387,-1.03096,-7.61449,-0.00774839,0.142836,
2,0,0,1,0,2450.04,0.0557876,0.0555125,-91.0031,2,0.0081939,10,-0.00505181,-1.04094,0.783479,0.0753051,0.128315,
2,0,0,1,0,2450.05,0.0429808,0.0426901,-84.8634,2,0.00678334,10,-0.00362282,-1.07128,0.496364,0.118864,0.110581,
2,0,0,1,0,2450.07,0.030188,0.0299026,-76.9419,2,0.00548859,10,-0.00230076,-1.11384,0.421054,0.140125,0.0914561,
2,0,0,1,0,2450.08,0.017384,0.0171078,-68.8612,2,0.00432307,10,-0.00117806,-1.16203,0.38035,0.15512,0.0721967,
2,0,0,1,0,2450.1,0.00458834,0.00428744,-61.0264,2,0.00328527,10,-0.000261647,-1.21448,0.356041,0.165711,0.0531086,
2,0,0,1,0,2450.12,-0.00821564,-0.00852651,-54.1849,2,0.00236572,10,0.000462008,-1.26612,0.36962,0.159623,0.0348214,
2,0,0,1,0,2450.13,-0.0210196,-0.0213076,-49.5305,2,0.00153989,10,0.00105538,-1.30513,0.53275,0.110746,0.0183168,
2,0,0,1,0,2450.15,-0.0338153,-0.0341216,-47.3889,2,0.000767427,10,0.00161698,-1.32432,1.2991,0.0454162,0.00378956,
2,0,0,1,0,2450.16,-0.0466193,-0.0469207,-47.0385,2,1.39057e-05,10,0.00220708,-1.32755,-6.63433,-0.00889313,-0.00928989,
2,0,0,1,0,2450.18,-0.0594121,-0.0597293,-47.6741,2,-0.000742765,10,0.00284754,-1.32172,-1.32769,-0.0444382,-0.02159,
2,0,0,1,0,2450.2,-0.0722189,-0.0725316,-48.9195,2,-0.00151512,10,0.00354821,-1.31052,-0.906471,-0.0650876,-0.033396,
2,0,0,1,0,2450.21,-0.0850146,-0.0852925,-50.4875,2,-0.00231037,10,0.0043062,-1.29682,-0.77426,-0.0762018,-0.0449026,
2,0,0,1,0,2450.23,-0.0978158,-0.0981203,-52.3436,2,-0.00313312,10,0.00513597,-1.28114,-0.6906,-0.0854329,-0.0562454,
2,0,0,1,0,2450.24,-0.110611,-0.110907,-54.4492,2,-0.00398737,10,0.00603878,-1.26401,-0.611997,-0.0964058,-0.0673473,
2,0,0,1,0,2450.26,-0.123418,-0.123712,-56.88,2,-0.00487792,10,0.00703675,-1.24504,-0.539049,-0.109452,-0.0782081,
2,0,0,1,0,2450.28,-0.136214,-0.136526,-59.6063,2,-0.00580981,10,0.00813782,-1.22471,-0.502626,-0.117384,-0.0888411,
2,0,0,1,0,2450.29,-0.149015,-0.14929,-62.6154,2,-0.00678798,10,0.00934787,-1.20332,-0.476454,-0.123832,-0.0991979,
2,0,0,1,0,2450.31,-0.161816,-0.162138,-65.8068,2,-0.00781573,10,0.0106698,-1.18173,-0.473746,-0.124539,-0.109493,
2,0,0,1,0,2450.32,-0.174615,-0.17486,-69.1857,2,-0.00889583,10,0.0120978,-1.15998,-0.462677,-0.127519,-0.119511,
2,0,0,1,0,2450.34,-0.187419,-0.187683,-72.7904,2,-0.0100314,10,0.0136615,-1.13793,-0.43369,-0.136042,-0.129451,
2,0,0,1,0,2450.36,-0.199647,-0.199902,-76.4991,2,-0.0111736,10,0.0152923,-1.11634,0.586698,0.100563,-0.138703,
2,0,0,1,1,2450.37,-0.192535,-0.192973,-52.3573,2,-0.0118248,10,0.0101035,-1.28102,0.053681,1.09909,-0.151087,
2,0,0,1,1,2450.38,-0.179739,-0.180139,-22.4494,2,-0.0124061,10,0.00404401,-1.64879,0.0142414,4.14284,-0.162179,
2,0,0,1,1,2450.4,-0.166932,-0.167309,-0.772174,2,-0.0125811,10,0.000129191,-3.11228,0.0156733,3.76437,-0.166691,
2,1,0,1,1,2450.41,-0.154139,-0.15465,15.4268,2,-0.0124562,10,-0.00238574,-1.81172,0.0030536,19.3214,-0.166991,
2,1,0,1,1,2450.43,-0.141335,-0.141775,27.9636,2,-0.0121034,10,-0.00396454,-1.55341,0.0241528,2.44278,-0.164146,
2,1,0,1,1,2450.45,-0.12854,-0.128891,37.2032,2,-0.011577,10,-0.00479516,-1.42942,0.0701969,0.840493,-0.158654,
2,1,0,1,1,2450.46,-0.115736,-0.11608,43.9077,2,-0.0109243,10,-0.00509683,-1.35746,0.148192,0.398133,-0.151207,
2,1,0,1,1,2450.48,-0.102932,-0.103238,48.5903,2,-0.0101815,10,-0.00501636,-1.31345,0.284751,0.207198,-0.14211,
2,1,0,1,1,2450.49,-0.0901362,-0.090462,51.6812,2,-0.00937725,10,-0.00467518,-1.28667,0.517908,0.11392,-0.131807,
2,1,0,1,1,2450.51,-0.0773322,-0.0777085,53.647,2,-0.00853324,10,-0.00416883,-1.27045,0.950593,0.0620665,-0.120626,
2,1,0,1,1,2450.53,-0.0645393,-0.0648956,54.7462,2,-0.00766506,10,-0.00355279,-1.26165,1.88715,0.0312641,-0.108693,
2,1,0,1,1,2450.54,-0.0517325,-0.0520997,55.3046,2,-0.00678372,10,-0.00288135,-1.25724,5.07456,0.0116266,-0.0963433,
2,1,0,1,1,2450.56,-0.0389369,-0.0392942,55.4024,2,-0.00589747,10,-0.00217699,-1.25647,-15.2404,-0.00387129,-0.0836161,
2,1,0,1,1,2450.57,-0.0261357,-0.0265036,55.1392,2,-0.00501275,10,-0.00146139,-1.25854,-3.86471,-0.0152663,-0.070615,
2,1,0,1,1,2450.59,-0.01334,-0.0136737,54.5202,2,-0.00413514,10,-0.000745494,-1.26344,-2.23214,-0.026432,-0.0572899,
2,1,0,1,1,2450.61,-0.000774628,-0.00112858,53.6424,2,-0.00328561,10,-6.05399e-05,-1.27049, , ,-0.0440425,
2,1,0,0,1,2450.61,-0.000125413,-0.000478022,53.6218,2,-0.00324271,10,-2.56324e-05,-1.27066, , ,-0.0433754,