Folder: Figs_alphaMnO2_OER_Tafel_sleope/Figure_codes/Fig_S3_S4 (part 4)

File: 20221101_1-115_002_TrumpetPlot_ParaChange_10_CV_C01_1.csv
mode,ox/red,error,control changes,counter inc.,time/s,control/V,Ewe/V,<I>/mA,cycle number,(Q-Qo)/C,I Range,P/W,log(|I|),Tafel slope mV/dec,alpha_eff,E-IR/V,
2,0,0,0,0,2426.02,2.44065e-05,0.00015186,-5.21505,2,0.0000000E+000,11,-7.91954e-07,-2.28274, , ,0.0043239,
2,1,0,1,0,2426.1,0.00679123,0.0064826,3.054,2,5.23049e-05,11,1.97978e-05,-2.51513,0.026275,2.24548,0.0040394,
2,1,0,1,0,2426.19,0.0137828,0.0134969,3.48049,2,0.000346374,11,4.69757e-05,-2.45836,0.446609,0.132107,0.0107125,
2,1,0,1,0,2426.28,0.0207743,0.0204815,3.54622,2,0.000653812,11,7.26319e-05,-2.45023,0.909095,0.0648997,0.0176445,
2,1,0,1,0,2426.37,0.0277659,0.0274898,3.61139,2,0.000966957,11,9.92764e-05,-2.44233,0.51791,0.11392,0.0246007,
2,1,0,1,0,2426.45,0.0347503,0.0344794,3.71459,2,0.00128695,11,0.000128077,-2.43009,0.496976,0.118718,0.0315077,
2,1,0,1,0,2426.54,0.0417437,0.0414326,3.82793,2,0.00161603,11,0.000158601,-2.41704,0.496396,0.118857,0.0383703,
2,1,0,1,0,2426.63,0.0487352,0.0484608,3.97954,2,0.00195664,11,0.000192852,-2.40017,0.342807,0.172108,0.0452772,
2,1,0,1,0,2426.71,0.0557268,0.0554615,4.19419,2,0.00231304,11,0.000232616,-2.37735,0.325672,0.181164,0.0521061,
2,1,0,1,0,2426.8,0.0627183,0.0624719,4.45888,2,0.00269063,11,0.000278555,-2.35077,0.225325,0.261844,0.0589048,
2,1,0,1,0,2426.89,0.0697116,0.0694436,4.80716,2,0.0030957,11,0.000333827,-2.31811,0.193314,0.305203,0.0655979,
2,1,0,1,0,2426.98,0.0767032,0.0763682,5.20783,2,0.00353332,11,0.000397712,-2.28334,0.207534,0.284291,0.0722019,
2,1,0,1,0,2427.06,0.0836947,0.0834053,5.62948,2,0.00400738,11,0.000469529,-2.24953,0.200267,0.294606,0.0789017,
2,1,0,1,0,2427.15,0.0906863,0.0904052,6.07091,2,0.00451892,11,0.000548842,-2.21675,0.205927,0.28651,0.0855485,
2,1,0,1,0,2427.24,0.0976779,0.0974048,6.48772,2,0.00506787,11,0.000631935,-2.18791,0.228253,0.258485,0.0922146,
2,1,0,1,0,2427.33,0.104671,0.104394,6.96074,2,0.00565502,11,0.000726656,-2.15734,0.197,0.299492,0.0988249,
2,1,0,1,0,2427.41,0.111663,0.111373,7.52799,2,0.00628703,11,0.000838417,-2.12332,0.172061,0.342903,0.105351,
2,1,0,1,0,2427.5,0.118654,0.118387,8.32557,2,0.00697759,11,0.000985639,-2.07959,0.131775,0.447735,0.111726,
2,1,0,1,0,2427.59,0.125646,0.125349,9.38705,2,0.00774985,11,0.00117666,-2.02747,0.107969,0.546453,0.11784,
2,1,0,1,0,2427.68,0.132639,0.132391,10.6791,2,0.00862577,11,0.00141382,-1.97146,0.113213,0.521142,0.123848,
2,1,0,1,0,2427.76,0.139631,0.139353,11.9589,2,0.00961586,11,0.00166651,-1.92231,0.138473,0.426076,0.129786,
2,1,0,1,0,2427.85,0.146622,0.146369,12.993,2,0.0107098,11,0.00190178,-1.88629,0.233737,0.25242,0.135974,
2,1,0,1,0,2427.94,0.153614,0.153344,13.4692,2,0.0118723,11,0.00206543,-1.87066,4.35903,0.0135351,0.142569,
2,1,0,1,0,2428.03,0.160607,0.160295,12.9757,2,0.0130379,11,0.00207994,-1.88687,-0.201922,-0.292192,0.149914,
2,1,0,1,0,2428.11,0.167599,0.167297,11.007,2,0.0140975,11,0.00184143,-1.95833,-0.0863147,-0.683545,0.158492,
2,1,0,1,0,2428.2,0.17459,0.174351,8.08231,2,0.0149324,11,0.00140915,-2.09246,-0.062445,-0.944832,0.167885,
2,1,0,1,0,2428.29,0.181582,0.181326,5.97988,2,0.0155365,11,0.00108431,-2.22331,-0.0812271,-0.726359,0.176542,
2,1,0,1,0,2428.38,0.188573,0.188312,5.03544,2,0.0160118,11,0.000948233,-2.29796,-0.136482,-0.432291,0.184284,
2,1,0,1,0,2428.46,0.195567,0.195265,4.53758,2,0.0164287,11,0.000886032,-2.34318,-0.188651,-0.312746,0.191635,
2,1,0,1,0,2428.55,0.202558,0.202299,4.20831,2,0.0168102,11,0.000851336,-2.37589,-0.239769,-0.24607,0.198932,
2,1,0,1,0,2428.64,0.20955,0.209295,3.96393,2,0.0171669,11,0.00082963,-2.40187,-0.256819,-0.229733,0.206124,
2,1,0,1,0,2428.72,0.216541,0.216288,3.76442,2,0.0175048,11,0.000814201,-2.4243,-0.420474,-0.140318,0.213277,
2,1,0,1,0,2428.81,0.223535,0.223246,3.6429,2,0.0178292,11,0.000813262,-2.43855,-0.576575,-0.102328,0.220332,
2,1,0,1,0,2428.9,0.230526,0.230242,3.53624,2,0.0181433,11,0.00081419,-2.45146,-0.519926,-0.113478,0.227413,
2,1,0,1,0,2428.99,0.237518,0.237232,3.45981,2,0.0184496,11,0.000820776,-2.46095,-1.47293,-0.0400562,0.234464,
2,1,0,1,0,2429.07,0.244509,0.244235,3.40192,2,0.0187496,11,0.000830866,-2.46828,-1.02237,-0.0577091,0.241513,
2,1,0,1,0,2429.16,0.251503,0.251266,3.33413,2,0.0190443,11,0.000837753,-2.47702,-1.73727,-0.0339613,0.248599,
2,1,0,1,0,2429.25,0.258494,0.258212,3.30805,2,0.0193345,11,0.000854179,-2.48043,-2.72811,-0.0216267,0.255566,
2,1,0,1,0,2429.34,0.265479,0.26523,3.25634,2,0.0196203,11,0.000863679,-2.48727,-0.75807,-0.0778292,0.262625,
2,1,0,1,0,2429.42,0.27247,0.272224,3.20669,2,0.0199027,11,0.000872941,-2.49394,-1.12731,-0.052337,0.269659,
2,1,0,1,0,2429.51,0.279462,0.279207,3.17773,2,0.0201815,11,0.000887246,-2.49788,-1.32727,-0.0444522,0.276665,
2,1,0,1,0,2429.6,0.286446,0.286165,3.12517,2,0.0204568,11,0.000894314,-2.50513,-0.801117,-0.0736472,0.283665,
2,1,0,1,0,2429.69,0.29344,0.293135,3.08507,2,0.0207292,11,0.000904341,-2.51074,-4.52326,-0.0130437,0.290667,
2,1,0,0,0,2429.77,0.299962,0.299766,3.06317,2,0.020981,11,0.000918232,-2.51383,-0.00115822,-50.9401,0.297315,
2,0,0,1,0,2429.85,0.293745,0.293456,-1.35557,2,0.0209363,11,-0.0003978,-2.86788,-0.0942042,-0.626299,0.294541,
2,0,0,1,0,2429.93,0.286753,0.286512,-1.53955,2,0.0208094,11,-0.000441102,-2.8126,-0.120276,-0.49054,0.287744,
2,0,0,1,0,2430.02,0.27976,0.279477,-1.71935,2,0.020666,11,-0.000480519,-2.76464,-0.175034,-0.337078,0.280853,
2,0,0,1,0,2430.11,0.272768,0.272488,-1.8568,2,0.0205092,11,-0.000505956,-2.73123,-0.266743,-0.221187,0.273973,
2,0,0,1,0,2430.2,0.265777,0.265492,-1.98085,2,0.0203407,11,-0.000525899,-2.70315,-0.251099,-0.234967,0.267076,
2,0,0,1,0,2430.28,0.258785,0.25852,-2.10044,2,0.0201623,11,-0.000543007,-2.67769,-0.314386,-0.187667,0.260201,
2,0,0,1,0,2430.37,0.251793,0.251494,-2.19174,2,0.0199743,11,-0.00055121,-2.65921,-0.330084,-0.178742,0.253248,
2,0,0,1,0,2430.46,0.2448,0.244477,-2.31455,2,0.0197776,11,-0.000565854,-2.63553,-0.271708,-0.217145,0.246328,
2,0,0,1,0,2430.55,0.237809,0.237514,-2.41031,2,0.0195719,11,-0.000572482,-2.61793,-0.485891,-0.121426,0.239442,
2,0,0,1,0,2430.63,0.230817,0.230512,-2.50015,2,0.0193574,11,-0.000576314,-2.60203,-0.402435,-0.146607,0.232512,
2,0,0,1,0,2430.72,0.223825,0.223516,-2.6256,2,0.0191334,11,-0.000586864,-2.58077,-0.338577,-0.174259,0.225616,
2,0,0,1,0,2430.81,0.216832,0.216516,-2.74851,2,0.0188987,11,-0.000595098,-2.5609,-0.440934,-0.133807,0.218715,
2,0,0,1,0,2430.9,0.209841,0.209541,-2.88745,2,0.0186522,11,-0.000605041,-2.53949,-0.248901,-0.237042,0.211851,
2,0,0,1,0,2430.98,0.202849,0.202564,-3.07828,2,0.018391,11,-0.00062355,-2.51169,-0.249514,-0.236459,0.205027,
2,0,0,1,0,2431.07,0.195857,0.19554,-3.29457,2,0.0181124,11,-0.00064422,-2.4822,-0.193458,-0.304975,0.198176,
2,0,0,1,0,2431.16,0.188864,0.188576,-3.60302,2,0.0178107,11,-0.000679442,-2.44333,-0.143475,-0.411222,0.191458,
2,0,0,1,0,2431.24,0.18188,0.181575,-4.01585,2,0.0174794,11,-0.000729178,-2.39622,-0.129163,-0.456787,0.184787,
2,0,0,1,0,2431.33,0.174888,0.17457,-4.5507,2,0.0171065,11,-0.000794414,-2.34192,-0.101321,-0.582308,0.17821,
2,0,0,1,0,2431.42,0.167897,0.167602,-5.34814,2,0.016676,11,-0.000896361,-2.2718,-0.0801429,-0.736185,0.171881,
2,0,0,1,0,2431.51,0.160905,0.160581,-6.43884,2,0.0161637,11,-0.00103395,-2.19119,-0.0708451,-0.832802,0.165732,
2,0,0,1,0,2431.59,0.153921,0.153637,-7.90477,2,0.0155402,11,-0.00121446,-2.10211,-0.0615281,-0.958912,0.159961,
2,0,0,1,0,2431.68,0.146927,0.146597,-9.64075,2,0.0147742,11,-0.00141331,-2.01589,-0.0724242,-0.814645,0.15431,
2,0,0,1,0,2431.77,0.139936,0.139627,-11.3028,2,0.013858,11,-0.00157818,-1.94681,-0.0991832,-0.594859,0.148669,
2,0,0,1,0,2431.86,0.132944,0.132656,-12.6168,2,0.0128085,11,-0.0016737,-1.89905,-0.17361,-0.339841,0.142749,
2,0,0,1,0,2431.94,0.125953,0.125661,-13.3204,2,0.0116691,11,-0.00167386,-1.87548,-0.733996,-0.0803819,0.136318,
2,0,0,1,0,2432.03,0.118959,0.118667,-13.1588,2,0.0105046,11,-0.00156152,-1.88078,0.35702,0.165257,0.129194,
2,0,0,1,0,2432.12,0.111968,0.111678,-12.0611,2,0.0093956,11,-0.00134696,-1.91861,0.152058,0.38801,0.121327,
2,0,0,1,0,2432.21,0.104976,0.104694,-10.3634,2,0.00841456,11,-0.00108498,-1.9845,0.118125,0.499472,0.112984,
2,0,0,1,0,2432.29,0.0979846,0.0977184,-8.88404,2,0.0075768,11,-0.000868134,-2.05139,0.139956,0.421562,0.104826,
2,0,0,1,0,2432.38,0.0909931,0.0906639,-8.00214,2,0.00684291,11,-0.000725506,-2.09679,0.216138,0.272974,0.0970656,
2,0,0,1,0,2432.47,0.0839997,0.083693,-7.45774,2,0.00616956,11,-0.000624161,-2.12739,0.267007,0.220968,0.0896592,
2,0,0,1,0,2432.56,0.0770082,0.0766855,-7.06114,2,0.00553571,11,-0.000541487,-2.15113,0.313752,0.188046,0.0823344,
2,0,0,1,0,2432.64,0.0700166,0.0697026,-6.67028,2,0.00493585,11,-0.000464936,-2.17586,0.256669,0.229868,0.0750389,
2,0,0,1,0,2432.73,0.0630251,0.0627426,-6.22635,2,0.00437186,11,-0.000390657,-2.20577,0.230496,0.25597,0.0677237,
2,0,0,1,0,2432.82,0.0560317,0.0557471,-5.81051,2,0.00384544,11,-0.000323919,-2.23579,0.260561,0.226435,0.0603955,
2,0,0,1,0,2432.91,0.0490402,0.0487366,-5.48669,2,0.00335228,11,-0.000267403,-2.26069,0.287259,0.20539,0.0531259,
2,0,0,1,0,2432.99,0.0420486,0.0417844,-5.2389,2,0.00288418,11,-0.000218904,-2.28076,0.51088,0.115487,0.0459755,
2,0,0,1,0,2433.08,0.0350571,0.0347739,-5.11766,2,0.00243178,11,-0.000177961,-2.29093,1.62685,0.0362663,0.038868,
2,0,0,1,0,2433.17,0.0280637,0.0277416,-5.05604,2,0.00198785,11,-0.000140263,-2.29619,2.55654,0.0230781,0.0317864,
2,0,0,1,0,2433.25,0.0210722,0.0207501,-5.04294,2,0.00154656,11,-0.000104642,-2.29732,-2.05928,-0.0286507,0.0247845,
2,0,0,1,0,2433.34,0.0140806,0.0137887,-5.09966,2,0.00110387,11,-7.03178e-05,-2.29246,-1.29793,-0.0454569,0.0178685,
2,0,0,1,0,2433.43,0.00708909,0.00678675,-5.1481,2,0.000656516,11,-3.49388e-05,-2.28835,-1.88633,-0.0312776,0.0109052,
2,0,0,1,0,2433.52,0.000199195,-0.000157355,-5.27053,2,0.000207612,11,8.29346e-07,-2.27815, , ,0.00405907,

File: 20221101_1-115_002_TrumpetPlot_ParaChange_11_CV_C01_1.csv
mode,ox/red,error,control changes,counter inc.,time/s,control/V,Ewe/V,<I>/mA,cycle number,(Q-Qo)/C,I Range,P/W,log(|I|),Tafel slope mV/dec,alpha_eff,E-IR/V,
2,0,0,1,0,2433.62,2.44065e-05,0.000609955,-6.1318,2,0.0000000E+000,11,-3.74012e-06,-2.21241, , ,0.00551539,
2,1,0,1,0,2433.71,0.00928821,0.00894721,4.04629,2,9.71758e-05,11,3.6203e-05,-2.39294,0.0492317,1.19842,0.00571018,
2,1,0,1,0,2433.81,0.0187767,0.0184836,4.40317,2,0.000506342,11,8.13864e-05,-2.35623,3.8229,0.0154333,0.014961,
2,1,0,1,0,2433.9,0.0282653,0.0280042,4.49655,2,0.00092851,11,0.000125922,-2.34712,0.967874,0.0609584,0.0244069,
2,1,0,1,0,2434,0.0377538,0.0374601,4.62355,2,0.00136142,11,0.000173198,-2.33502,0.737791,0.0799684,0.0337613,
2,1,0,1,0,2434.09,0.0472424,0.046947,4.85456,2,0.00181075,11,0.000227907,-2.31385,0.370071,0.159429,0.0430634,
2,1,0,1,0,2434.19,0.0567309,0.0564499,5.17586,2,0.00228593,11,0.000292177,-2.28602,0.265185,0.222486,0.0523092,
2,1,0,1,0,2434.28,0.0662262,0.0659359,5.66765,2,0.00279951,11,0.000373701,-2.2466,0.192799,0.306017,0.0614017,
2,1,0,1,0,2434.38,0.075708,0.0754036,6.30117,2,0.00336581,11,0.000475131,-2.20058,0.194738,0.30297,0.0703627,
2,1,0,1,0,2434.47,0.0851965,0.0848879,7.00216,2,0.00399571,11,0.000594399,-2.15477,0.205228,0.287485,0.0792862,
2,1,0,1,0,2434.57,0.094685,0.0944011,7.70638,2,0.00469359,11,0.000727491,-2.11315,0.244589,0.241221,0.088236,
2,1,0,1,0,2434.66,0.104174,0.103899,8.43639,2,0.00545943,11,0.000876536,-2.07384,0.21113,0.279449,0.0971502,
2,1,0,1,0,2434.76,0.113662,0.113384,9.39191,2,0.0063037,11,0.00106489,-2.02725,0.177027,0.333282,0.10587,
2,1,0,1,0,2434.85,0.123151,0.122896,10.8101,2,0.00725726,11,0.00132852,-1.96617,0.115594,0.510407,0.114248,
2,1,0,1,0,2434.95,0.132639,0.132347,12.7458,2,0.00837044,11,0.00168687,-1.89463,0.107884,0.546884,0.12215,
2,1,0,1,0,2435.04,0.142128,0.14186,14.7954,2,0.00967865,11,0.00209887,-1.82987,0.138692,0.425403,0.130023,
2,1,0,1,0,2435.13,0.151616,0.151288,16.3025,2,0.0111618,11,0.00246638,-1.78774,0.370598,0.159202,0.138246,
2,1,0,1,0,2435.23,0.161105,0.16084,16.2905,2,0.0127247,11,0.00262016,-1.78807,-0.315038,-0.187279,0.147807,
2,1,0,1,0,2435.32,0.170593,0.170339,13.3237,2,0.0141568,11,0.00226955,-1.87537,-0.0870719,-0.677601,0.15968,
2,1,0,1,0,2435.42,0.180082,0.179799,8.55308,2,0.0151893,11,0.00153784,-2.06788,-0.0639348,-0.922815,0.172957,
2,1,0,1,0,2435.51,0.18957,0.189276,6.14253,2,0.0158646,11,0.00116263,-2.21165,-0.122543,-0.481462,0.184362,
2,1,0,1,0,2435.61,0.199059,0.198779,5.37649,2,0.0164045,11,0.00106874,-2.2695,-0.231268,-0.255115,0.194478,
2,1,0,1,0,2435.7,0.208547,0.208316,4.92663,2,0.0168911,11,0.0010263,-2.30745,-0.299388,-0.197069,0.204375,
2,1,0,1,0,2435.8,0.218036,0.217754,4.60381,2,0.0173425,11,0.0010025,-2.33688,-0.389078,-0.151641,0.214071,
2,1,0,1,0,2435.89,0.227525,0.227271,4.41104,2,0.0177699,11,0.0010025,-2.35546,-0.481216,-0.122606,0.223742,
2,1,0,1,0,2435.99,0.237013,0.236734,4.25874,2,0.0181805,11,0.00100819,-2.37072,-0.744965,-0.0791983,0.233327,
2,1,0,1,0,2436.08,0.246502,0.246253,4.14255,2,0.0185793,11,0.00102012,-2.38273,-1.29543,-0.0455448,0.242939,
2,1,0,1,0,2436.18,0.25599,0.255717,4.04615,2,0.0189686,11,0.00103467,-2.39296,-1.68437,-0.035028,0.25248,
2,1,0,1,0,2436.27,0.265479,0.265204,4.00817,2,0.0193501,11,0.00106298,-2.39705,-1.25171,-0.0471357,0.261998,
2,1,0,1,0,2436.37,0.274967,0.274692,3.92177,2,0.0197251,11,0.00107728,-2.40652,-1.05336,-0.0560115,0.271554,
2,1,0,1,0,2436.46,0.284456,0.284238,3.84774,2,0.0200938,11,0.00109368,-2.41479,-1.3392,-0.0440562,0.28116,
2,1,0,1,0,2436.56,0.293944,0.293663,3.77924,2,0.0204568,11,0.00110982,-2.4226,-1.00836,-0.0585107,0.290639,
2,0,0,1,0,2436.64,0.29774,0.297453,-0.761789,2,0.0207069,11,-0.000226596,-3.11817,0.0020244,29.1445,0.298062,
2,0,0,1,0,2436.74,0.288251,0.287956,-1.91502,2,0.0205488,11,-0.000551441,-2.71783,-0.154875,-0.380951,0.289488,
2,0,0,1,0,2436.83,0.278763,0.278481,-2.16295,2,0.0203546,11,-0.000602342,-2.66495,-0.221932,-0.265847,0.280211,
2,0,0,1,0,2436.93,0.269274,0.269028,-2.39817,2,0.0201374,11,-0.000645175,-2.62012,-0.30993,-0.190366,0.270947,
2,0,0,1,0,2437.02,0.259786,0.259524,-2.57732,2,0.0199012,11,-0.000668876,-2.58883,-0.331313,-0.17808,0.261586,
2,0,0,1,0,2437.12,0.250297,0.250004,-2.74983,2,0.0196481,11,-0.000687469,-2.56069,-0.35448,-0.166441,0.252204,
2,0,0,1,0,2437.21,0.240808,0.240516,-2.90506,2,0.0193792,11,-0.000698715,-2.53684,-0.338887,-0.174099,0.24284,
2,0,0,1,0,2437.31,0.23132,0.231022,-3.10817,2,0.0190947,11,-0.000718055,-2.50749,-0.370515,-0.159238,0.233508,
2,0,0,1,0,2437.4,0.221831,0.221552,-3.28356,2,0.018793,11,-0.00072748,-2.48365,-0.351423,-0.167889,0.224179,
2,0,0,1,0,2437.5,0.212343,0.212068,-3.50055,2,0.0184716,11,-0.000742353,-2.45586,-0.316901,-0.186178,0.214868,
2,0,0,1,0,2437.59,0.202854,0.202554,-3.77495,2,0.018126,11,-0.000764629,-2.42309,-0.270315,-0.218264,0.205574,
2,0,0,1,0,2437.69,0.193366,0.193045,-4.18986,2,0.0177487,11,-0.000808831,-2.3778,-0.185637,-0.317824,0.196397,
2,0,0,1,0,2437.78,0.183877,0.183568,-4.74583,2,0.0173266,11,-0.000871184,-2.32369,-0.136788,-0.431324,0.187365,
2,0,0,1,0,2437.88,0.174389,0.174122,-5.60339,2,0.0168379,11,-0.000975673,-2.25155,-0.10028,-0.588352,0.178605,
2,0,0,1,0,2437.97,0.1649,0.164567,-6.95781,2,0.0162463,11,-0.00114502,-2.15753,-0.0785321,-0.751285,0.170133,
2,0,0,1,0,2438.06,0.155412,0.15513,-9.01619,2,0.0154944,11,-0.00139868,-2.04498,-0.0633852,-0.930816,0.162343,
2,0,0,1,0,2438.16,0.145923,0.1457,-11.6853,2,0.0145142,11,-0.00170254,-1.93236,-0.0724338,-0.814537,0.155048,
2,0,0,1,0,2438.25,0.136435,0.136144,-14.2943,2,0.0132778,11,-0.00194609,-1.84484,-0.109217,-0.540207,0.14758,
2,0,0,1,0,2438.35,0.126946,0.126596,-16.0307,2,0.0118279,11,-0.00202942,-1.79505,-0.298663,-0.197547,0.13942,
2,0,0,1,0,2438.44,0.117458,0.117109,-16.2533,2,0.0102809,11,-0.00190342,-1.78906,0.536671,0.109937,0.130112,
2,0,0,1,0,2438.54,0.107969,0.107664,-14.4662,2,0.00880813,11,-0.00155749,-1.83965,0.14676,0.402016,0.119237,
2,0,0,1,0,2438.63,0.0984804,0.0981706,-11.7324,2,0.00756807,11,-0.00115177,-1.93061,0.128497,0.459156,0.107557,
2,0,0,1,0,2438.73,0.0889919,0.0886511,-9.89582,2,0.00655226,11,-0.000877275,-2.00455,0.185998,0.317207,0.0965677,
2,0,0,1,0,2438.82,0.0795034,0.0791845,-8.97636,2,0.00566168,11,-0.000710789,-2.0469,0.287945,0.2049,0.0863656,
2,0,0,1,0,2438.92,0.0700148,0.0697394,-8.30743,2,0.00484228,11,-0.000579355,-2.08053,0.267984,0.220163,0.0763854,
2,0,0,1,0,2439.01,0.0605263,0.0602188,-7.58348,2,0.00408772,11,-0.000456668,-2.12013,0.246724,0.239134,0.0662856,
2,0,0,1,0,2439.11,0.0510378,0.0507411,-6.92181,2,0.0033999,11,-0.00035122,-2.15978,0.279639,0.210987,0.0562785,
2,0,0,1,0,2439.2,0.0415583,0.0412247,-6.47402,2,0.00276688,11,-0.00026689,-2.18883,0.563713,0.104663,0.0464039,
2,0,0,1,0,2439.3,0.0320607,0.0317986,-6.27056,2,0.00216419,11,-0.000199395,-2.20269,1.04839,0.056277,0.0368151,
2,0,0,1,0,2439.39,0.0225722,0.0222663,-6.1946,2,0.00157437,11,-0.000137931,-2.20799,6.87709,0.00857921,0.0272219,
2,0,0,1,0,2439.49,0.0130836,0.0127997,-6.24439,2,0.000984565,11,-7.99263e-05,-2.20451,-2.70807,-0.0217867,0.0177952,
2,0,0,1,0,2439.58,0.00359509,0.00333467,-6.36632,2,0.000386735,11,-2.12296e-05,-2.19611,-0.464679,-0.126969,0.00842772,
2,0,0,1,0,2439.68,-0.00589345,-0.00620132,-6.55119,2,-0.000227454,11,4.0626e-05,-2.18368,-0.950852,-0.0620496,-0.000960362,
2,0,0,1,0,2439.77,-0.015382,-0.0157101,-6.73908,2,-0.000858311,11,0.000105872,-2.1714,-0.568535,-0.103775,-0.0103189,
2,0,0,1,0,2439.87,-0.024866,-0.0252026,-7.00966,2,-0.00151034,11,0.000176662,-2.1543,-0.553448,-0.106604,-0.0195949,
2,0,0,1,0,2439.96,-0.0343591,-0.0347203,-7.29031,2,-0.00218808,11,0.000253122,-2.13725,-0.492325,-0.119839,-0.028888,
2,0,0,1,0,2440.06,-0.0438476,-0.0441884,-7.59761,2,-0.00289376,11,0.000335726,-2.11932,-0.572511,-0.103055,-0.0381104,
2,0,0,1,0,2440.15,-0.0533361,-0.0537055,-7.94005,2,-0.00363091,11,0.000426425,-2.10018,-0.466825,-0.126386,-0.0473535,
2,0,0,1,0,2440.25,-0.0628247,-0.063179,-8.38448,2,-0.0044051,11,0.000529723,-2.07652,-0.373086,-0.15814,-0.0564714,
2,0,0,1,0,2440.34,-0.0723132,-0.0726833,-8.91179,2,-0.00522476,11,0.000647738,-2.05004,-0.316917,-0.186169,-0.0655539,
2,0,0,1,0,2440.44,-0.0818018,-0.0821427,-9.56034,2,-0.0061008,11,0.000785312,-2.01953,-0.270008,-0.218512,-0.0744944,
2,0,0,1,0,2440.53,-0.0912903,-0.0916165,-10.2705,2,-0.00704122,11,0.000940948,-1.98841,-0.298714,-0.197513,-0.0834001,
2,0,0,1,1,2440.62,-0.0997301,-0.100174,-9.98827,2,-0.00799001,11,0.00100057,-2.00051,0.0103276,5.71283,-0.0921834,
2,1,0,1,1,2440.72,-0.0902416,-0.0906092,2.84766,2,-0.00810912,11,-0.000258024,-2.54551,0.0104208,5.66177,-0.0928873,
2,1,0,1,1,2440.81,-0.080753,-0.0810343,4.71876,2,-0.00772994,11,-0.000382382,-2.32617,0.105312,0.560239,-0.0848094,
2,1,0,1,1,2440.91,-0.0712645,-0.0716049,5.28851,2,-0.00725176,11,-0.000378683,-2.27667,0.31087,0.18979,-0.0758357,
2,1,0,1,1,2441,-0.061776,-0.0620971,5.58652,2,-0.00673395,11,-0.000346907,-2.25286,0.485942,0.121414,-0.0665663,
2,1,0,1,1,2441.1,-0.0522874,-0.0526329,5.76557,2,-0.00619347,11,-0.000303458,-2.23916,1.08979,0.0541388,-0.0572453,
2,1,0,1,1,2441.19,-0.0427989,-0.043097,5.8519,2,-0.00564169,11,-0.000252199,-2.2327,1.22268,0.0482547,-0.0477785,
2,1,0,1,1,2441.29,-0.0333194,-0.0336557,5.86354,2,-0.00508592,11,-0.000197341,-2.23184,-8.20791,-0.00718819,-0.0383465,
2,1,0,1,1,2441.38,-0.0238218,-0.0241476,5.84083,2,-0.00453021,11,-0.000141042,-2.23353,261.141,0.000225931,-0.0288202,
2,1,0,1,1,2441.48,-0.0143333,-0.014636,5.79378,2,-0.0039782,11,-8.47981e-05,-2.23704,-1.11182,-0.0530662,-0.0192711,
2,1,0,1,1,2441.57,-0.00484471,-0.00518886,5.71935,2,-0.00343229,11,-2.96769e-05,-2.24265,-1.6559,-0.0356302,-0.00976433,
2,1,0,0,1,2441.62,-2.55332e-05,-0.000401673,5.6739,2,-0.00315839,11,-2.27905e-06,-2.24612, , ,-0.00494079,