Folder: Figs_alphaMnO2_OER_Tafel_sleope/Figure_codes/Fig_S3_S4 (part 10)

File: 20221101_1-115_003_TrumpetPlot_ParaChange_from10_every3_12_CV_C01_16.csv
mode,ox/red,error,control changes,counter inc.,time/s,control/V,Ewe/V,<I>/mA,cycle number,(Q-Qo)/C,I Range,P/W,log(|I|),Tafel slope mV/dec,alpha_eff,dI/d(E-IR),E-IR/V,
2,1,0,1,0,32718.6,2.44065e-05,-0.000363498,17.3266,17,0.0000000E+000,10,-6.29819e-06,-1.76129, , , ,-0.000363498,
2,1,0,1,0,32718.6,0.0104008,0.0100741,20.8556,17,0.000332449,10,0.000210101,-1.68078,0.200629,0.294075,238.108,0.0100741,
2,1,0,1,0,32718.6,0.0212099,0.020834,23.0176,17,0.000728575,10,0.000479549,-1.63794,0.309064,0.190899,171.079,0.020834,
2,1,0,1,0,32718.7,0.0320052,0.0316756,24.6771,17,0.00115858,10,0.000781662,-1.60771,0.398873,0.147917,142.375,0.0316756,
2,1,0,1,0,32718.7,0.0428033,0.0424515,26.1393,17,0.00161638,10,0.00110965,-1.58271,0.468312,0.125984,128.472,0.0424515,
2,1,0,1,0,32718.7,0.0535986,0.0532803,27.5057,17,0.00209935,10,0.00146551,-1.56058,0.505996,0.116602,125.166,0.0532803,
2,1,0,1,0,32718.7,0.0644077,0.0640286,28.8968,17,0.0026071,10,0.00185022,-1.53915,0.514001,0.114786,129.447,0.0640286,
2,1,0,1,0,32718.7,0.075203,0.0748267,30.3375,17,0.00314026,10,0.00227005,-1.51802,0.510734,0.11552,136.787,0.07482674,
2,1,0,1,0,32718.8,0.0860011,0.0856376,31.8403,17,0.00369982,10,0.00272672,-1.49702,0.51388,0.114813,142.664,0.0856376,
2,1,0,1,0,32718.8,0.0968075,0.0964378,33.428,17,0.00428729,10,0.00322372,-1.47589,0.526502,0.11206,146.105,0.0964378,
2,1,0,1,0,32718.8,0.107606,0.107179,34.9721,17,0.00490316,10,0.00374827,-1.45628,0.532001,0.110902,151.507,0.107179,
2,1,0,1,0,32718.8,0.118401,0.118045,36.6819,17,0.00554806,10,0.0043301,-1.43555,0.524553,0.112477,161.062,0.118045,
2,1,0,1,0,32718.8,0.129207,0.128864,38.4951,17,0.00622462,10,0.00496063,-1.4146,0.507674,0.116216,174.683,0.128864,
2,1,0,1,0,32718.8,0.140005,0.139671,40.4926,17,0.00693553,10,0.00565562,-1.39262,0.485893,0.121426,191.916,0.1396706,
2,1,0,1,0,32718.9,0.150803,0.150455,42.5446,17,0.00768327,10,0.00640104,-1.37116,0.529384,0.11145,185.026,0.150455,
2,1,0,1,0,32718.9,0.161604,0.161229,44.4437,17,0.00846681,10,0.0071656,-1.35219,0.645619,0.0913852,158.349,0.161229,
2,1,0,1,0,32718.9,0.172405,0.172078,45.9706,17,0.00928146,10,0.00791052,-1.33752,0.927434,0.0636164,113.943,0.172078,
2,1,0,1,0,32718.9,0.183203,0.182857,46.7976,17,0.0101178,10,0.00855726,-1.32978,3.69806,0.0159543,29.0609,0.182857,
2,1,0,1,0,32718.9,0.194001,0.193688,46.4805,17,0.0109591,10,0.00900269,-1.33273,-1.19044,-0.0495613,-89.6395,0.193688,
2,1,0,1,0,32718.9,0.204808,0.204478,44.8533,17,0.0117828,10,0.00917154,-1.34821,-0.499627,-0.118088,-206.136,0.2044784,
2,1,0,1,0,32719,0.215603,0.215249,42.0725,17,0.0125664,10,0.00905606,-1.376,-0.328158,-0.179791,-294.68,0.215249,
2,1,0,1,0,32719,0.226401,0.226078,38.601,17,0.0132928,10,0.00872684,-1.4134,-0.266782,-0.221154,-332.983,0.226078,
2,1,0,1,0,32719,0.237207,0.236889,35.0595,17,0.0139552,10,0.0083052,-1.45519,-0.256276,-0.230221,-315.237,0.236889,
2,1,0,1,0,32719,0.248005,0.247704,31.9005,17,0.0145568,10,0.00790188,-1.4962,-0.276315,-0.213525,-266.201,0.247704,
2,1,0,1,0,32719,0.258801,0.258516,29.2916,17,0.0151065,10,0.00757235,-1.53326,-0.312459,-0.188825,-216.231,0.258516,
2,1,0,1,0,32719.1,0.26961,0.269289,27.2242,17,0.0156142,10,0.00733119,-1.56504,-0.366537,-0.160966,-171.213,0.269289,
2,1,0,1,0,32719.1,0.280405,0.280083,25.5835,17,0.0160887,10,0.00716552,-1.59204,-0.439536,-0.134232,-134.17,0.280083,
2,1,0,1,0,32719.1,0.291203,0.290885,24.2929,17,0.016537,10,0.00706642,-1.61452,-0.519413,-0.11359,-107.761,0.290885,
2,1,0,0,0,32719.1,0.300012,0.299727,23.4223,17,0.0168874,10,0.00702032,-1.63037,0.00200677,29.4005,23269.3,0.299727,
2,1,0,1,0,32719.1,0.290842,0.29056,10.1497,17,0.017126,10,0.00294911,-1.99355,0.0239721,2.46119,972.466,0.2905601,
2,1,0,1,0,32719.1,0.280047,0.27977,2.29852,17,0.0172311,10,0.000643057,-2.63855,0.00612144,9.63826,564.071,0.2797704,
2,0,0,1,0,32719.2,0.269244,0.268919,-2.62009,17,0.0172247,10,-0.000704594,-2.58168,-0.0120434,-4.89894,370.901,0.268919,
2,0,0,1,0,32719.2,0.258443,0.25818,-5.9347,17,0.0171458,10,-0.00153222,-2.2266,-0.051089,-1.15485,259.183,0.25818,
2,0,0,1,0,32719.2,0.247645,0.247346,-8.31134,17,0.0170161,10,-0.00205578,-2.08033,-0.0990578,-0.595612,191.626,0.247346,
2,0,0,1,0,32719.2,0.236849,0.236576,-10.13,17,0.016849,10,-0.00239651,-1.99439,-0.155708,-0.378913,149.199,0.236576,
2,0,0,1,0,32719.2,0.22604,0.225741,-11.5809,17,0.016653,10,-0.00261427,-1.93626,-0.221917,-0.265866,119.799,0.225741,
2,0,0,1,0,32719.2,0.215245,0.214919,-12.762,17,0.0164334,10,-0.00274279,-1.89408,-0.283758,-0.207923,103.462,0.214919,
2,0,0,1,0,32719.3,0.204447,0.204122,-13.8135,17,0.0161939,10,-0.00281964,-1.8597,-0.354301,-0.166525,89.6337,0.204122,
2,0,0,1,0,32719.3,0.19364,0.193319,-14.7635,17,0.0159368,10,-0.00285406,-1.83081,-0.405495,-0.145501,83.6786,0.193319,
2,0,0,1,0,32719.3,0.182842,0.182504,-15.648,17,0.0156631,10,-0.00285582,-1.80554,-0.422987,-0.139484,85.1826,0.182504,
2,0,0,1,0,32719.3,0.172047,0.171728,-16.5876,17,0.0153729,10,-0.00284855,-1.78022,-0.41902,-0.140805,91.2053,0.171728,
2,0,0,1,0,32719.3,0.161241,0.16093,-17.664,17,0.0150649,10,-0.00284266,-1.75291,-0.374798,-0.157418,108.592,0.16093,
2,0,0,1,0,32719.4,0.150443,0.150112,-18.9988,17,0.0147355,10,-0.00285196,-1.72127,-0.300006,-0.196663,146.127,0.150112,
2,0,0,1,0,32719.4,0.139645,0.139308,-20.8606,17,0.0143775,10,-0.00290605,-1.68067,-0.232844,-0.253388,206.985,0.139308,
2,0,0,1,0,32719.4,0.128849,0.128554,-23.4931,17,0.0139794,10,-0.00302014,-1.62906,-0.189217,-0.311812,286.737,0.128554,
2,0,0,1,0,32719.4,0.118043,0.117762,-26.9262,17,0.0135259,10,-0.00317087,-1.56982,-0.182909,-0.322565,339.039,0.117762,
2,0,0,1,0,32719.4,0.107245,0.10691,-30.6837,17,0.013007,10,-0.00328041,-1.51309,-0.204947,-0.287879,343.878,0.1069104,
2,0,0,1,0,32719.4,0.0964468,0.0961579,-34.2761,17,0.012422,10,-0.00329591,-1.46501,-0.245152,-0.240667,321.055,0.0961579,
2,0,0,1,0,32719.5,0.0856404,0.0854096,-37.4678,17,0.0117753,10,-0.00320011,-1.42634,-0.325893,-0.181041,264.006,0.0854096,
2,0,0,1,0,32719.5,0.0748451,0.0745998,-39.9828,17,0.0110771,10,-0.00298271,-1.39813,-0.446228,-0.132219,205.915,0.0745998,
2,0,0,1,0,32719.5,0.0640471,0.0637614,-41.8439,17,0.0103394,10,-0.00266803,-1.37837,-0.710194,-0.0830758,135.372,0.0637614,
2,0,0,1,0,32719.5,0.0532407,0.0528869,-42.9349,17,0.00957546,10,-0.00227069,-1.36719,-1.3788,-0.0427907,71.5802,0.0528869,
2,0,0,1,0,32719.5,0.0424426,0.0421461,-43.4283,17,0.00879747,10,-0.00183033,-1.36223,-3.60394,-0.016371,27.7223,0.0421461,
2,0,0,1,0,32719.6,0.0316473,0.0313363,-43.5286,17,0.0080143,10,-0.00136403,-1.36122,25.8919,0.00227871,-3.86974,0.0313363,
2,0,0,1,0,32719.6,0.0208437,0.0205254,-43.3568,17,0.00723197,10,-0.000889917,-1.36294,3.53615,0.0166848,-28.2215,0.0205254,
2,0,0,1,0,32719.6,0.0100429,0.00972839,-42.9565,17,0.00645478,10,-0.000417898,-1.36697,2.07756,0.0283987,-47.5878,0.00972839,
2,0,0,1,0,32719.6,-0.000755208,-0.00113653,-42.3635,17,0.00568661,10,4.81476e-05,-1.37301,1.44513,0.0408268,-67.4295,-0.001136535,
2,0,0,1,0,32719.6,-0.0115505,-0.01194,-41.4401,17,0.00493207,10,0.000494793,-1.38258,0.971406,0.0607367,-98.1765,-0.01194,
2,0,0,1,0,32719.6,-0.0223597,-0.0227784,-40.3123,17,0.00419626,10,0.000918249,-1.39456,0.826054,0.0714239,-112.294,-0.0227784,
2,0,0,1,0,32719.7,-0.033155,-0.0335404,-39.0949,17,0.00348184,10,0.00131126,-1.40788,0.854892,0.0690146,-105.328,-0.0335404,
2,0,0,1,0,32719.7,-0.043953,-0.0444001,-38.0039,17,0.0027884,10,0.00168738,-1.42017,0.960894,0.0614011,-91.1068,-0.0444001,
2,0,0,1,0,32719.7,-0.0547594,-0.0551579,-37.1521,17,0.00211263,10,0.00204923,-1.43002,1.27894,0.0461318,-66.9168,-0.0551579,
2,0,0,1,0,32719.7,-0.0655575,-0.0659073,-36.5803,17,0.00144957,10,0.00241091,-1.43675,2.31513,0.0254845,-36.411,-0.0659073,
2,0,0,1,0,32719.7,-0.0763528,-0.0767224,-36.2919,17,0.000794137,10,0.0027844,-1.44019,6.34995,0.00929141,-13.1737,-0.0767224,
2,0,0,1,0,32719.8,-0.0871592,-0.0875576,-36.2818,17,0.000141339,10,0.00317675,-1.44031,-10.0645,-0.00586217,8.30576,-0.0875576,
2,0,0,1,0,32719.8,-0.0979573,-0.0983069,-36.486,17,-0.000513308,10,0.00358683,-1.43787,-5.00898,-0.0117789,16.7429,-0.0983069,
2,0,0,1,1,32719.8,-0.0955546,-0.096008,-27.1304,17,-0.000875126,10,0.00260473,-1.56654,-0.0370758,-1.59134,1715.88,-0.096008,
2,0,0,1,1,32719.8,-0.0847538,-0.0852067,-13.9432,17,-0.00123367,10,0.00118805,-1.85564,-0.0323104,-1.82604,982.722,-0.0852067,
2,0,0,1,1,32719.8,-0.0739557,-0.0743587,-4.97182,17,-0.00139896,10,0.000369698,-2.30348,-0.0138155,-4.27055,715.565,-0.0743587,
2,1,0,1,1,32719.8,-0.0631604,-0.0636125,1.81902,17,-0.00142404,10,-0.000115712,-2.74016,0.014806,3.98488,556.985,-0.0636125,
2,1,0,1,1,32719.9,-0.0523512,-0.0528759,7.20897,17,-0.00134044,10,-0.000381181,-2.14213,0.0353249,1.67021,448.583,-0.05287591,
2,1,0,1,1,32719.9,-0.0415559,-0.0420025,11.5657,17,-0.00116981,10,-0.000485787,-1.93683,0.0727041,0.811508,360.637,-0.0420025,
2,1,0,1,1,32719.9,-0.0307579,-0.0311482,15.0859,17,-0.000928556,10,-0.000469898,-1.82143,0.118688,0.497102,290.417,-0.0311482,
2,1,0,1,1,32719.9,-0.0199515,-0.0203458,17.9265,17,-0.000630322,10,-0.00036473,-1.7465,0.174632,0.337853,235.138,-0.0203458,
2,1,0,1,1,32719.9,-0.0091534,-0.00956253,20.1903,17,-0.000286419,10,-0.00019307,-1.69486,0.243984,0.241819,189.97,-0.00956253,
2,1,0,0,1,32719.9,-7.54729e-05,-0.00042076,21.665,17,3.06259e-05,10,-9.11576e-06,-1.66424, , , ,-0.00042076,

File: 20221101_1-115_003_TrumpetPlot_ParaChange_from10_every3_13_CV_C01_16.csv
mode,ox/red,error,control changes,counter inc.,time/s,control/V,Ewe/V,<I>/mA,cycle number,(Q-Qo)/C,I Range,P/W,log(|I|),Tafel slope mV/dec,alpha_eff,dI/d(E-IR),E-IR/V,
2,1,0,1,0,32719.9,2.44065e-05,-0.000306236,21.0525,17,0.0000000E+000,10,-6.44703e-06,-1.6767, , , ,-0.000306236,
2,1,0,1,0,32720,0.0122624,0.0118821,25.4767,17,0.00035756,10,0.000302716,-1.59386,0.222645,0.264996,261.621,0.0118821,
2,1,0,1,0,32720,0.0250636,0.0247172,28.3641,17,0.00078957,10,0.000701081,-1.54723,0.324108,0.182038,200.866,0.0247172,
2,1,0,1,0,32720,0.0378704,0.0375036,30.7188,17,0.0012628,10,0.00115207,-1.5126,0.410627,0.143683,171.959,0.0375036,
2,1,0,1,0,32720,0.0506632,0.0503239,32.7995,17,0.00177133,10,0.0016506,-1.48413,0.471533,0.125124,160.127,0.0503239,
2,1,0,1,0,32720,0.0634672,0.0631347,34.8219,17,0.00231263,10,0.00219847,-1.45815,0.509375,0.115828,157.427,0.0631347,
2,1,0,1,0,32720,0.0762629,0.0759031,36.8748,17,0.00288651,10,0.00279891,-1.43327,0.519082,0.113662,163.606,0.0759031,
2,1,0,1,0,32720.1,0.0890668,0.0887064,39.0298,17,0.0034939,10,0.00346219,-1.4086,0.523294,0.112747,171.72,0.0887064,
2,1,0,1,0,32720.1,0.10186,0.101458,41.2394,17,0.00413617,10,0.00418405,-1.38469,0.537137,0.109842,176.834,0.1014578,
2,1,0,1,0,32720.1,0.114666,0.114277,43.5561,17,0.00481478,10,0.00497747,-1.36095,0.547102,0.107841,183.302,0.114277,
2,1,0,1,0,32720.1,0.127462,0.127038,45.8957,17,0.0055306,10,0.00583049,-1.33823,0.535628,0.110151,197.724,0.127038,
2,1,0,1,0,32720.1,0.140263,0.139941,48.6431,17,0.00628733,10,0.00680717,-1.31298,0.518313,0.113831,216.079,0.139941,
2,1,0,1,0,32720.1,0.153064,0.152723,51.4401,17,0.00708823,10,0.00785609,-1.2887,0.550546,0.107166,214.972,0.152723,
2,1,0,1,0,32720.1,0.165866,0.165504,54.0833,17,0.0079331,10,0.00895102,-1.26694,0.647364,0.0911388,192.136,0.165504,
2,1,0,1,0,32720.2,0.178667,0.1783,56.2812,17,0.00881711,10,0.0100349,-1.24964,0.891415,0.0661869,145.12,0.1783,
2,1,0,1,0,32720.2,0.191463,0.191096,57.6445,17,0.0097303,10,0.0110156,-1.23924,2.32252,0.0254034,56.982,0.191096,
2,1,0,1,0,32720.2,0.204269,0.203944,57.6423,17,0.0106547,10,0.0117558,-1.23926,-2.10612,-0.0280135,-62.7975,0.203944,
2,1,0,1,0,32720.2,0.217062,0.216737,56.0513,17,0.0115662,10,0.0121484,-1.25141,-0.701168,-0.0841453,-183.434,0.216737,
2,1,0,1,0,32720.2,0.229866,0.229506,53.0254,17,0.0124402,10,0.0121697,-1.27552,-0.434674,-0.135734,-280.121,0.229506,
2,1,0,1,0,32720.2,0.242662,0.242364,49.0206,17,0.0132571,10,0.0118808,-1.30962,-0.343294,-0.171864,-328.503,0.242364,
2,1,0,1,0,32720.3,0.255466,0.255126,44.7784,17,0.0140072,10,0.0114241,-1.34893,-0.318395,-0.185304,-323.965,0.255126,
2,1,0,1,0,32720.3,0.268259,0.267995,40.8308,17,0.0146911,10,0.0109424,-1.38901,-0.328583,-0.179559,-286.53,0.267995,
2,1,0,1,0,32720.3,0.281065,0.280729,37.4986,17,0.0153167,10,0.0105269,-1.42598,-0.36697,-0.160776,-235.624,0.280729,
2,1,0,1,0,32720.3,0.293861,0.293519,34.7789,17,0.0158939,10,0.0102082,-1.45868,-0.418708,-0.14091,-191.9,0.2935186,
2,1,0,1,0,32720.3,0.298983,0.298854,31.0776,17,0.0161985,10,0.00928765,-1.50755,0.0317552,1.85797,1927.96,0.298854,
2,1,0,1,0,32720.3,0.286187,0.285883,13.501,17,0.016534,10,0.0038597,-1.86963,0.0317992,1.85539,967.113,0.285883,
2,1,0,1,0,32720.4,0.273386,0.273125,3.77722,17,0.0166653,10,0.00103165,-2.42283,0.00836409,7.05397,614.526,0.273125,
2,0,0,1,0,32720.4,0.260585,0.260342,-2.69826,17,0.0166701,10,-0.000702468,-2.56892,-0.00965335,-6.11187,419.768,0.260342,
2,0,0,1,0,32720.4,0.247783,0.247485,-7.2686,17,0.0165879,10,-0.00179887,-2.13855,-0.052147,-1.13142,306.197,0.247485,
2,0,0,1,0,32720.4,0.234982,0.234686,-10.661,17,0.0164429,10,-0.00250199,-1.9722,-0.104517,-0.5645,231.039,0.234686,
2,0,0,1,0,32720.4,0.222187,0.221898,-13.2649,17,0.0162503,10,-0.00294345,-1.8773,-0.16455,-0.358553,184.408,0.221898,
2,0,0,1,0,32720.4,0.20938,0.209089,-15.3967,17,0.0160201,10,-0.00321929,-1.81257,-0.233592,-0.252577,151.22,0.209089,
2,0,0,1,0,32720.4,0.196587,0.196296,-17.1902,17,0.0157588,10,-0.00337438,-1.76472,-0.302507,-0.195037,130.553,0.196296,
2,0,0,1,0,32720.5,0.183783,0.183481,-18.8006,17,0.0154706,10,-0.00344957,-1.72583,-0.348939,-0.169084,123.931,0.183481,
2,0,0,1,0,32720.5,0.170987,0.17066,-20.3526,17,0.0151572,10,-0.00347337,-1.69138,-0.376965,-0.156513,124.429,0.17066,
2,0,0,1,0,32720.5,0.158183,0.15789,-22.0468,17,0.014818,10,-0.00348098,-1.65665,-0.349789,-0.168673,145.455,0.1578905,
2,0,0,1,0,32720.5,0.145385,0.145098,-24.1593,17,0.0144487,10,-0.00350547,-1.61691,-0.291085,-0.20269,191.794,0.145098,
2,0,0,1,0,32720.5,0.132584,0.132275,-27.0682,17,0.0140399,10,-0.00358046,-1.56754,-0.234973,-0.251093,266.184,0.132275,
2,0,0,1,0,32720.5,0.119782,0.11949,-31.0685,17,0.013576,10,-0.00371238,-1.50768,-0.203501,-0.289925,351.907,0.11949,
2,0,0,1,0,32720.6,0.106987,0.106756,-35.8492,17,0.0130407,10,-0.0038271,-1.44552,-0.214398,-0.275189,384.486,0.106756,
2,0,0,1,0,32720.6,0.0941801,0.0939851,-40.5892,17,0.0124277,10,-0.00381478,-1.39159,-0.259493,-0.227366,359.927,0.0939851,
2,0,0,1,0,32720.6,0.0813844,0.0811775,-44.9953,17,0.0117415,10,-0.00365261,-1.34683,-0.331805,-0.177815,311.391,0.0811775,
2,0,0,1,0,32720.6,0.0685832,0.0683572,-48.5393,17,0.0109915,10,-0.00331801,-1.31391,-0.465369,-0.126781,239.561,0.0683572,
2,0,0,1,0,32720.6,0.0557876,0.0555114,-51.1871,17,0.0101923,10,-0.00284147,-1.29084,-0.693434,-0.0850839,169.507,0.0555114,
2,0,0,1,0,32720.6,0.0429808,0.0426583,-52.8937,17,0.00935836,10,-0.00225635,-1.2766,-1.18338,-0.0498573,102.736,0.0426583,
2,0,0,1,0,32720.7,0.030188,0.0298676,-53.8488,17,0.00850338,10,-0.00160834,-1.26882,-2.3471,-0.0251374,52.7777,0.02986763,
2,0,0,1,0,32720.7,0.017384,0.0170908,-54.276,17,0.00763745,10,-0.00092762,-1.26539,-8.22986,-0.00716902,15.1736,0.0170908,
2,0,0,1,0,32720.7,0.00458834,0.00428214,-54.258,17,0.00676845,10,-0.000232341,-1.26554,7.96084,0.00741127,-15.6853,0.004282143,
2,0,0,1,0,32720.7,-0.00821564,-0.00856469,-53.8621,17,0.00590259,10,0.000461312,-1.26872,2.42538,0.0243261,-51.0777,-0.00856469,
2,0,0,1,0,32720.7,-0.0210196,-0.0213755,-53.0031,17,0.00504722,10,0.00113297,-1.2757,1.47658,0.0399572,-82.5614,-0.0213755,
2,0,0,1,0,32720.7,-0.0338153,-0.0342064,-51.7779,17,0.00420869,10,0.00177114,-1.28586,1.18682,0.0497128,-100.44,-0.0342064,
2,0,0,1,0,32720.8,-0.0466193,-0.0470097,-50.4524,17,0.00339083,10,0.00237175,-1.29712,1.1196,0.0526973,-103.785,-0.04700974,
2,0,0,1,0,32720.8,-0.0594121,-0.0597802,-49.2171,17,0.00259381,10,0.00294221,-1.30788,1.30998,0.0450387,-86.5625,-0.0597802,
2,0,0,1,0,32720.8,-0.0722189,-0.0725486,-48.2701,17,0.00181441,10,0.00350193,-1.31632,1.85986,0.0317229,-59.8103,-0.0725486,
2,0,0,1,0,32720.8,-0.0850146,-0.0853318,-47.6726,17,0.00104736,10,0.00406799,-1.32173,3.47086,0.0169987,-31.6623,-0.0853318,
2,0,0,1,0,32720.8,-0.0978158,-0.0981574,-47.4462,17,0.000286782,10,0.0046572,-1.3238,33.5015,0.00176112,-3.26496,-0.0981574,
2,0,0,1,0,32720.8,-0.110611,-0.110976,-47.5674,17,-0.000473056,10,0.00527882,-1.32269,-5.18102,-0.0113877,21.1628,-0.1109756,
2,0,0,1,0,32720.8,-0.123418,-0.123765,-48.023,17,-0.00123754,10,0.00594357,-1.31855,-2.42995,-0.0242804,45.5264,-0.123765,
2,0,0,1,0,32720.9,-0.136214,-0.13657,-48.7136,17,-0.00201114,10,0.0066528,-1.31235,-1.84896,-0.0319099,60.6772,-0.1365696,
2,0,0,1,0,32720.9,-0.149015,-0.149332,-49.5599,17,-0.0027973,10,0.00740086,-1.30487,-1.64068,-0.0359608,69.5508,-0.149332,
2,0,0,1,0,32720.9,-0.161816,-0.162191,-50.4441,17,-0.0035975,10,0.00818159,-1.29719,-1.71365,-0.0344295,67.7709,-0.162191,
2,0,0,1,0,32720.9,-0.174615,-0.174964,-51.2679,17,-0.00441154,10,0.00897002,-1.29015,-1.91869,-0.0307502,61.5183,-0.174964,
2,0,0,1,0,32720.9,-0.187419,-0.187737,-52.0133,17,-0.00523803,10,0.00976484,-1.28389,-2.27668,-0.025915,52.5824,-0.187737,
2,0,0,1,0,32720.9,-0.199647,-0.200031,-52.6105,17,-0.00603865,10,0.0105237,-1.27893,0.222865,0.264734,-526.134,-0.200031,
2,0,0,1,1,32721,-0.192535,-0.192966,-38.3718,17,-0.00649245,10,0.00740446,-1.41599,-0.0621107,-0.949917,1460.82,-0.192966,
2,0,0,1,1,32721,-0.179739,-0.180162,-24.6397,17,-0.00698714,10,0.00443913,-1.60836,-0.0641802,-0.919287,884.945,-0.180162,
2,0,0,1,1,32721,-0.166932,-0.167351,-14.8844,17,-0.00729894,10,0.00249092,-1.82727,-0.0500927,-1.17782,675.174,-0.167351,
2,0,0,1,1,32721,-0.154139,-0.154541,-7.07497,17,-0.00747179,10,0.00109338,-2.15028,-0.0271681,-2.17166,557.672,-0.154541,
2,0,0,1,1,32721,-0.141335,-0.141757,-0.47013,17,-0.00753006,10,6.66443e-05,-3.32778,-0.0771246,-0.764996,480.033,-0.1417571,
2,1,0,1,1,32721,-0.12854,-0.129011,5.26698,17,-0.0074902,10,-0.000679499,-2.27844,0.0255455,2.3096,421.668,-0.129011,
2,1,0,1,1,32721,-0.115736,-0.116218,10.3962,17,-0.00736376,10,-0.00120823,-1.98312,0.0608352,0.969833,383.733,-0.116218,
2,1,0,1,1,32721.1,-0.102932,-0.103381,15.0492,17,-0.0071591,10,-0.0015558,-1.82249,0.0995833,0.592469,344.376,-0.103381,
2,1,0,1,1,32721.1,-0.0901361,-0.0905575,19.267,17,-0.00688344,10,-0.00174477,-1.71519,0.140376,0.420301,314.232,-0.0905575,
2,1,0,1,1,32721.1,-0.0773322,-0.0777308,23.1121,17,-0.00654353,10,-0.00179652,-1.63616,0.186333,0.316638,284.35,-0.07773079,
2,1,0,1,1,32721.1,-0.0645393,-0.0649296,26.5873,17,-0.00614519,10,-0.0017263,-1.57533,0.234817,0.25126,259.898,-0.06492956,
2,1,0,1,1,32721.1,-0.0517325,-0.052175,29.7383,17,-0.00569384,10,-0.0015516,-1.52668,0.292815,0.201492,233.31,-0.052175,
2,1,0,1,1,32721.1,-0.0389369,-0.0393112,32.5402,17,-0.00519483,10,-0.00127919,-1.48758,0.363065,0.162505,206.065,-0.0393112,
2,1,0,1,1,32721.2,-0.0261357,-0.026581,35.0151,17,-0.00465354,10,-0.000930737,-1.45574,0.445613,0.132402,180.707,-0.026581,
2,1,0,1,1,32721.2,-0.01334,-0.0137649,37.1528,17,-0.00407545,10,-0.000511405,-1.43001,0.561164,0.105139,152.259,-0.0137649,
2,1,0,1,1,32721.2,-0.000774628,-0.00114449,38.9267,17,-0.00347767,10,-4.45511e-05,-1.40975, , , ,-0.001144488,
2,1,0,0,1,32721.2,-0.000125413,-0.000497109,39.0376,17,-0.0034465,10,-1.94059e-05,-1.40852, , , ,-0.000497109,