Folder: Figs_alphaMnO2_OER_Tafel_sleope/Figure_codes/Fig_S3_S4 (part 11)

File: 20221101_1-115_003_TrumpetPlot_ParaChange_from10_every3_14_CV_C01_16.csv
mode,ox/red,error,control changes,counter inc.,time/s,control/V,Ewe/V,<I>/mA,cycle number,(Q-Qo)/C,I Range,P/W,log(|I|),Tafel slope mV/dec,alpha_eff,dI/d(E-IR),E-IR/V,
2,1,0,1,0,32721.2,2.44065e-05,-0.000344411,38.2826,17,0.0000000E+000,10,-1.31849e-05,-1.417, , , ,-0.000344411,
2,1,0,1,0,32721.2,0.0133084,0.0129531,42.3408,17,0.000533259,10,0.000548444,-1.37324,0.425856,0.138544,228.074,0.0129531,
2,1,0,1,0,32721.2,0.0273414,0.0269589,45.0902,17,0.00114652,10,0.00121558,-1.34592,0.591893,0.0996802,174.979,0.0269589,
2,1,0,1,0,32721.2,0.0413245,0.040968,47.2911,17,0.00179383,10,0.00193742,-1.32522,0.747633,0.0789158,145.435,0.040968,
2,1,0,1,0,32721.2,0.0553076,0.054942,49.1751,17,0.00246942,10,0.00270178,-1.30825,0.861292,0.0685017,131.438,0.054942,
2,1,0,1,0,32721.3,0.0693407,0.0689436,50.9412,17,0.0031706,10,0.00351207,-1.29293,0.93332,0.0632152,125.665,0.0689436,
2,1,0,1,0,32721.3,0.0833238,0.082906,52.6886,17,0.0038963,10,0.0043682,-1.27828,0.979095,0.0602597,123.9,0.082906,
2,1,0,1,0,32721.3,0.0973069,0.0969002,54.4445,17,0.0046463,10,0.00527568,-1.26405,0.88844,0.0664085,141.413,0.0969002,
2,1,0,1,0,32721.3,0.11134,0.110961,56.5566,17,0.00542378,10,0.00627559,-1.24752,0.876237,0.0673334,148.617,0.110961,
2,1,0,1,0,32721.3,0.125323,0.124971,58.6851,17,0.00623053,10,0.00733395,-1.23147,0.852981,0.0691692,158.484,0.124971,
2,1,0,1,0,32721.3,0.139306,0.138911,61.0344,17,0.00706844,10,0.00847837,-1.21443,0.781869,0.0754602,179.921,0.138911,
2,1,0,1,0,32721.3,0.153339,0.152956,63.7028,17,0.00794169,10,0.00974375,-1.19584,0.749735,0.0786944,195.709,0.152956,
2,1,0,1,0,32721.4,0.167322,0.166956,66.4647,17,0.00885331,10,0.0110967,-1.17741,0.792966,0.0744042,192.894,0.1669559,
2,1,0,1,0,32721.4,0.181305,0.180965,69.0211,17,0.00980243,10,0.0124904,-1.16102,0.946337,0.0623457,167.727,0.180965,
2,1,0,1,0,32721.4,0.195338,0.194941,71.0392,17,0.010784,10,0.0138485,-1.1485,1.51464,0.0389531,107.739,0.1949411,
2,1,0,1,0,32721.4,0.209322,0.208964,71.9707,17,0.0117866,10,0.0150393,-1.14284,9.66887,0.00610205,17.0826,0.208964,
2,1,0,1,0,32721.4,0.223305,0.222959,71.4707,17,0.0127924,10,0.015935,-1.14587,-1.86815,-0.031582,-87.8074,0.222959,
2,1,0,1,0,32721.4,0.237338,0.237007,69.4929,17,0.0137808,10,0.0164703,-1.15806,-0.810957,-0.0727535,-196.656,0.237007,
2,1,0,1,0,32721.4,0.251321,0.251054,66.0981,17,0.014731,10,0.0165942,-1.17981,-0.540219,-0.109215,-280.966,0.251054,
2,1,0,1,0,32721.5,0.265304,0.265011,61.7362,17,0.0156263,10,0.0163608,-1.20946,-0.431873,-0.136614,-328.711,0.265011,
2,1,0,1,0,32721.5,0.279337,0.279047,57.0094,17,0.0164572,10,0.0159083,-1.24405,-0.385723,-0.152959,-340.219,0.279047,
2,1,0,1,0,32721.5,0.29332,0.292992,52.3946,17,0.0172221,10,0.0153512,-1.28071,-0.385081,-0.153214,-314.969,0.292992,
2,1,0,1,0,32721.5,0.298714,0.298605,46.963,17,0.0176281,10,0.0140234,-1.32824,0.043605,1.35305,2169.1,0.298605,
2,1,0,1,0,32721.5,0.28473,0.284521,25.2385,17,0.0181133,10,0.00718088,-1.59794,0.0505396,1.1674,1152.93,0.284521,
2,1,0,1,0,32721.5,0.270747,0.270489,12.1303,17,0.0183679,10,0.00328111,-1.91613,0.0343994,1.71514,779.232,0.270489,
2,1,0,1,0,32721.5,0.256714,0.256472,2.8902,17,0.0184685,10,0.000741257,-2.53907,0.0199863,2.95202,562.419,0.256472,
2,0,0,1,0,32721.6,0.242731,0.242458,-3.90029,17,0.0184585,10,-0.000945655,-2.4089,-0.0112046,-5.2657,423.124,0.242458,
2,0,0,1,0,32721.6,0.228748,0.228431,-9.07246,17,0.0183657,10,-0.00207243,-2.04227,-0.0607331,-0.971463,327.501,0.228431,
2,0,0,1,0,32721.6,0.214715,0.21442,-13.1565,17,0.0182084,10,-0.00282102,-1.88086,-0.114242,-0.516446,260.619,0.21442,
2,0,0,1,0,32721.6,0.200732,0.200405,-16.4678,17,0.018,10,-0.00330024,-1.78336,-0.172951,-0.341138,217.313,0.200405,
2,0,0,1,0,32721.6,0.186735,0.186419,-19.2992,17,0.0177491,10,-0.00359773,-1.71446,-0.230991,-0.255421,191.491,0.186419,
2,0,0,1,0,32721.6,0.172716,0.172404,-21.8629,17,0.0174604,10,-0.00376925,-1.66029,-0.281919,-0.20928,178.239,0.172404,
2,0,0,1,0,32721.6,0.158733,0.158421,-24.3918,17,0.0171365,10,-0.00386416,-1.61276,-0.294988,-0.200008,190.654,0.158421,
2,0,0,1,0,32721.6,0.144719,0.144413,-27.3216,17,0.0167751,10,-0.00394559,-1.56349,-0.269838,-0.21865,233.809,0.144413,
2,0,0,1,0,32721.7,0.130717,0.130445,-31.0308,17,0.0163673,10,-0.00404781,-1.50821,-0.235046,-0.251015,305.316,0.130445,
2,0,0,1,0,32721.7,0.116733,0.116431,-35.8998,17,0.0158996,10,-0.00417984,-1.44491,-0.216138,-0.272973,382.92,0.116431,
2,0,0,1,0,32721.7,0.102703,0.102408,-41.5978,17,0.0153574,10,-0.00425994,-1.38093,-0.232454,-0.253813,410.956,0.102408,
2,0,0,1,0,32721.7,0.0887173,0.0884265,-47.249,17,0.0147344,10,-0.00417807,-1.32561,-0.282047,-0.209185,384.273,0.0884265,
2,0,0,1,0,32721.7,0.0747342,0.0745277,-52.1657,17,0.0140367,10,-0.00388779,-1.28261,-0.367204,-0.160674,326.443,0.0745277,
2,0,0,1,0,32721.7,0.0607011,0.0604805,-56.4406,17,0.0132751,10,-0.00341356,-1.24841,-0.498508,-0.118353,259.54,0.0604805,
2,0,0,1,0,32721.7,0.046718,0.046516,-59.4768,17,0.0124623,10,-0.00276662,-1.22565,-0.730159,-0.0808044,187.128,0.046516,
2,0,0,1,0,32721.8,0.0327349,0.0324762,-61.7156,17,0.0116129,10,-0.00200429,-1.2096,-1.08898,-0.0541792,130.155,0.0324762,
2,0,0,1,0,32721.8,0.0187018,0.0183909,-63.1962,17,0.0107379,10,-0.00116223,-1.19931,-1.79348,-0.0328969,80.9631,0.0183909,
2,0,0,1,0,32721.8,0.00471873,0.00440091,-63.9681,17,0.00984689,10,-0.000281518,-1.19404,-3.89851,-0.015134,37.747,0.00440091,
2,0,0,1,0,32721.8,-0.00926438,-0.00961555,-64.243,17,0.00894851,10,0.000617731,-1.19217,38.8645,0.00151809,-3.80047,-0.009615548,
2,0,0,1,0,32721.8,-0.0232974,-0.0236278,-63.9708,17,0.00805071,10,0.00151149,-1.19402,3.86222,0.0152762,-38.0683,-0.0236278,
2,0,0,1,0,32721.8,-0.0372805,-0.0376294,-63.1384,17,0.00716057,10,0.00237586,-1.19971,2.02139,0.0291879,-71.8653,-0.0376294,
2,0,0,1,0,32721.8,-0.0512637,-0.0516278,-62.0162,17,0.00628447,10,0.00320176,-1.20749,1.64873,0.0357852,-86.5626,-0.0516278,
2,0,0,1,0,32721.9,-0.0652967,-0.0656687,-60.8357,17,0.00542495,10,0.003995,-1.21584,1.72075,0.0342874,-81.3797,-0.0656687,
2,0,0,1,0,32721.9,-0.0792798,-0.0796448,-59.7005,17,0.00458151,10,0.00475483,-1.22402,1.92219,0.0306941,-71.5834,-0.0796448,
2,0,0,1,0,32721.9,-0.0932629,-0.0936433,-58.8525,17,0.00375201,10,0.00551114,-1.23024,2.69129,0.0219226,-50.3928,-0.0936433,
2,0,0,1,0,32721.9,-0.107296,-0.107652,-58.3577,17,0.0029322,10,0.00628234,-1.2339,5.28755,0.0111583,-25.4171,-0.1076523,
2,0,0,1,0,32721.9,-0.121279,-0.121625,-58.0848,17,0.00211753,10,0.00706458,-1.23594,16.7346,0.00352563,-7.99965,-0.121625,
2,0,0,1,0,32721.9,-0.135262,-0.135656,-58.1311,17,0.0013043,10,0.0078858,-1.23559,-12.7676,-0.00462108,10.4905,-0.135656,
2,0,0,1,0,32721.9,-0.149295,-0.149686,-58.4438,17,0.00048855,10,0.0087482,-1.23326,-4.90116,-0.012038,27.4517,-0.149686,
2,0,0,1,0,32722,-0.163278,-0.163604,-58.8492,17,-0.000332373,10,0.00962794,-1.23026,-4.03568,-0.0146196,33.5858,-0.163604,
2,0,0,1,0,32722,-0.177261,-0.177583,-59.3427,17,-0.00115977,10,0.0105382,-1.22663,-3.72022,-0.0158593,36.7367,-0.177583,
2,0,0,1,0,32722,-0.191295,-0.191663,-59.9282,17,-0.00199458,10,0.011486,-1.22237,-3.38675,-0.0174208,40.7105,-0.191663,
2,0,0,0,1,32722,-0.199984,-0.200532,-59.8689,17,-0.00255324,10,0.0120056,-1.2228,-0.0367268,-1.60646,3287.03,-0.200532,
2,0,0,1,1,32722,-0.186686,-0.187135,-37.591,17,-0.0031647,10,0.00703459,-1.42492,-0.0736447,-0.801144,1191.4,-0.187135,
2,0,0,1,1,32722,-0.172667,-0.173107,-24.081,17,-0.0035894,10,0.0041686,-1.61832,-0.0666794,-0.884831,827.552,-0.173107,
2,0,0,1,1,32722,-0.158684,-0.159147,-13.8441,17,-0.0038512,10,0.00220324,-1.85874,-0.0469969,-1.2554,659.005,-0.159147,
2,0,0,1,1,32722,-0.14467,-0.14515,-5.36609,17,-0.00398345,10,0.00077889,-2.27034,-0.0167332,-3.52593,558.244,-0.14515,
2,1,0,1,1,32722.1,-0.130668,-0.13112,1.85824,17,-0.00400603,10,-0.000243653,-2.7309,0.0381443,1.54676,483.976,-0.13112,
2,1,0,1,1,32722.1,-0.116685,-0.117177,8.23948,17,-0.00393383,10,-0.000965476,-2.0841,0.0405882,1.45362,433.102,-0.117177,
2,1,0,1,1,32722.1,-0.102654,-0.103152,14.091,17,-0.00377673,10,-0.00145351,-1.85106,0.0801264,0.736337,394.203,-0.103152,
2,1,0,1,1,32722.1,-0.0886685,-0.08911,19.3323,17,-0.00354175,10,-0.0017227,-1.71372,0.122861,0.480218,358.261,-0.08911,
2,1,0,1,1,32722.1,-0.0746854,-0.0751158,24.1257,17,-0.00323644,10,-0.00181223,-1.61752,0.168703,0.349727,327.122,-0.0751158,
2,1,0,1,1,32722.1,-0.0606523,-0.0610994,28.5751,17,-0.00286708,10,-0.00174592,-1.54401,0.21799,0.270655,299.81,-0.0610994,
2,1,0,1,1,32722.1,-0.0466692,-0.0470713,32.5161,17,-0.00243881,10,-0.00153057,-1.4879,0.275395,0.214238,270.919,-0.0470713,
2,1,0,1,1,32722.2,-0.0326861,-0.0330558,36.0962,17,-0.00195765,10,-0.00119319,-1.44254,0.341441,0.172797,242.837,-0.0330558,
2,1,0,1,1,32722.2,-0.018653,-0.0190118,39.3669,17,-0.00142887,10,-0.000748437,-1.40487,0.415996,0.141828,217.186,-0.0190118,
2,1,0,1,1,32722.2,-0.00466992,-0.00505262,42.1652,17,-0.000857551,10,-0.000213045,-1.37505, , , ,-0.00505262,
2,1,0,0,1,32722.2,-0.000175352,-0.000573459,42.9835,17,-0.00066591,10,-2.46493e-05,-1.3667, , , ,-0.000573459,