Folder: Figs_alphaMnO2_OER_Tafel_sleope/Figure_codes/Fig_S3_S4 (part 3)

File: 20221101_1-115_002_TrumpetPlot_ParaChange_08_CV_C01_1.csv
mode,ox/red,error,control changes,counter inc.,time/s,control/V,Ewe/V,<I>/mA,cycle number,(Q-Qo)/C,I Range,P/W,log(|I|),Tafel slope mV/dec,alpha_eff,E-IR/V,
2,0,0,0,0,2400.82,2.44065e-05,-0.000229887,-2.18636,2,0.0000000E+000,11,5.02616e-07,-2.66028, , ,0.0015192,
2,1,0,1,0,2400.99,0.00679123,0.0065436,1.71581,2,0.000186835,11,1.12276e-05,-2.76553,0.213516,0.276325,0.00517095,
2,1,0,1,0,2401.16,0.0137828,0.0134579,1.80272,2,0.000495539,11,2.42608e-05,-2.74407,0.342409,0.172309,0.0120157,
2,1,0,1,0,2401.34,0.0207743,0.0205083,1.86431,2,0.000816414,11,3.82338e-05,-2.72948,0.452392,0.130418,0.0190169,
2,1,0,1,0,2401.51,0.0277659,0.0274839,1.90758,2,0.00114662,11,5.24277e-05,-2.71952,0.525555,0.112262,0.0259578,
2,1,0,1,0,2401.69,0.0347548,0.0345068,1.95347,2,0.00148511,11,6.74079e-05,-2.70919,0.520384,0.113378,0.032944,
2,1,0,1,0,2401.86,0.0417472,0.0414999,2.02913,2,0.00183356,11,8.42086e-05,-2.69269,0.474283,0.124398,0.0398766,
2,1,0,1,0,2402.04,0.0487388,0.0484619,2.10935,2,0.00219457,11,0.000102223,-2.67585,0.429184,0.13747,0.0467744,
2,1,0,1,0,2402.21,0.0557303,0.0554652,2.21966,2,0.00257301,11,0.000123114,-2.65371,0.317314,0.185936,0.0536895,
2,1,0,1,0,2402.39,0.0627219,0.062474,2.37079,2,0.00297471,11,0.000148113,-2.62511,0.223227,0.264305,0.0605774,
2,1,0,1,0,2402.56,0.0697152,0.06946,2.56101,2,0.00340675,11,0.000177888,-2.59159,0.202974,0.290678,0.0674111,
2,1,0,1,0,2402.73,0.0767068,0.0764144,2.78242,2,0.00387443,11,0.000212617,-2.55558,0.204299,0.288792,0.0741885,
2,1,0,1,0,2402.91,0.0836983,0.0834397,2.99997,2,0.00438108,11,0.000250317,-2.52288,0.210986,0.279639,0.0810397,
2,1,0,1,0,2403.08,0.0906899,0.0903965,3.22395,2,0.00492672,11,0.000291434,-2.49161,0.210192,0.280695,0.0878174,
2,1,0,1,0,2403.26,0.0976823,0.0974108,3.45144,2,0.00551136,11,0.000336207,-2.462,0.210917,0.27973,0.0946496,
2,1,0,1,0,2403.43,0.104675,0.104393,3.70765,2,0.00613673,11,0.000387052,-2.4309,0.192824,0.305979,0.101427,
2,1,0,1,0,2403.61,0.111666,0.111398,4.04122,2,0.00681328,11,0.000450184,-2.39349,0.149934,0.393508,0.108165,
2,1,0,1,0,2403.78,0.118658,0.118358,4.54775,2,0.00756246,11,0.000538261,-2.3422,0.116036,0.508463,0.11472,
2,1,0,1,0,2403.96,0.12565,0.125418,5.2324,2,0.008415,11,0.000656236,-2.2813,0.106087,0.556146,0.121232,
2,1,0,1,0,2404.13,0.132639,0.132376,5.98921,2,0.00939515,11,0.00079283,-2.22263,0.119371,0.494256,0.127585,
2,1,0,1,0,2404.31,0.139631,0.139356,6.64984,2,0.0105038,11,0.000926698,-2.17719,0.19183,0.307564,0.134037,
2,1,0,1,0,2404.48,0.146622,0.146358,7.01609,2,0.0117057,11,0.00102686,-2.15391,0.802088,0.0735581,0.140745,
2,1,0,1,0,2404.66,0.153614,0.153311,6.88291,2,0.0129308,11,0.00105523,-2.16223,-0.241553,-0.244252,0.147805,
2,1,0,1,0,2404.83,0.160603,0.160318,6.02266,2,0.0140705,11,0.000965542,-2.22021,-0.0889139,-0.663563,0.1555,
2,1,0,1,0,2405.01,0.167595,0.167344,4.63198,2,0.0150049,11,0.000775134,-2.33423,-0.0655348,-0.900286,0.163638,
2,1,0,1,0,2405.18,0.174587,0.174329,3.55728,2,0.0157133,11,0.000620138,-2.44888,-0.0796521,-0.740721,0.171484,
2,1,0,1,0,2405.36,0.181578,0.181324,2.96779,2,0.0162784,11,0.00053813,-2.52757,-0.112886,-0.522649,0.178949,
2,1,0,1,0,2405.53,0.18857,0.188332,2.59832,2,0.0167628,11,0.000489347,-2.58531,-0.156908,-0.376017,0.186253,
2,1,0,1,0,2405.71,0.195563,0.195292,2.36038,2,0.0171957,11,0.000460962,-2.62702,-0.180469,-0.326926,0.193403,
2,1,0,1,0,2405.88,0.202555,0.202306,2.19987,2,0.0175937,11,0.000445047,-2.6576,-0.238886,-0.24698,0.200546,
2,1,0,1,0,2406.06,0.209546,0.209295,2.08586,2,0.0179682,11,0.00043656,-2.68072,-0.293186,-0.201237,0.207627,
2,1,0,1,0,2406.23,0.216538,0.216271,1.98674,2,0.0183252,11,0.000429675,-2.70186,-0.4182,-0.141081,0.214682,
2,1,0,1,0,2406.41,0.22353,0.223257,1.92989,2,0.0186696,11,0.000430861,-2.71447,-0.57299,-0.102969,0.221713,
2,1,0,1,0,2406.58,0.230523,0.230261,1.88982,2,0.0190043,11,0.000435153,-2.72358,-0.92195,-0.0639948,0.228749,
2,1,0,1,0,2406.76,0.237514,0.237269,1.84935,2,0.0193314,11,0.000438794,-2.73298,-0.982792,-0.0600331,0.23579,
2,1,0,1,0,2406.93,0.244506,0.244228,1.81242,2,0.0196521,11,0.000442643,-2.74174,-2.20323,-0.0267789,0.242778,
2,1,0,1,0,2407.1,0.251498,0.251257,1.78545,2,0.0199676,11,0.000448607,-2.74825,-1.61053,-0.036634,0.249828,
2,1,0,1,0,2407.28,0.258491,0.258259,1.76895,2,0.0202783,11,0.000456847,-2.75228,-1.41161,-0.0417964,0.256844,
2,1,0,1,0,2407.45,0.265479,0.265271,1.73928,2,0.0205846,11,0.00046138,-2.75963,-0.885617,-0.0666202,0.263879,
2,1,0,1,0,2407.63,0.27247,0.272223,1.71291,2,0.0208874,11,0.000466294,-2.76627,-0.994082,-0.0593512,0.270853,
2,1,0,1,0,2407.8,0.279462,0.279196,1.69854,2,0.0211862,11,0.000474224,-2.76993,-1.1099,-0.0531581,0.277837,
2,1,0,1,0,2407.98,0.286451,0.286215,1.68032,2,0.0214816,11,0.000480934,-2.77461,-1.19226,-0.049486,0.284871,
2,1,0,1,0,2408.15,0.293443,0.293242,1.65327,2,0.0217737,11,0.000484807,-2.78166,-1.42363,-0.0414433,0.291919,
2,1,0,0,0,2408.32,0.300012,0.299727,1.643,2,0.022044,11,0.000492453,-2.78436,-0.00268117,-22.0053,0.298413,
2,0,0,1,0,2408.47,0.293693,0.293395,-0.617048,2,0.0219848,11,-0.000181039,-3.20968,-0.0605717,-0.974052,0.293888,
2,0,0,1,0,2408.65,0.286701,0.286457,-0.757641,2,0.021863,11,-0.000217031,-3.12054,-0.101697,-0.580156,0.287063,
2,0,0,1,0,2408.82,0.279708,0.279449,-0.856737,2,0.0217205,11,-0.000239414,-3.06715,-0.149746,-0.394,0.280134,
2,0,0,1,0,2409,0.27272,0.27243,-0.935813,2,0.0215627,11,-0.000254944,-3.02881,-0.181209,-0.325592,0.273179,
2,0,0,1,0,2409.17,0.265728,0.265432,-1.0096,2,0.0213917,11,-0.000267979,-2.99585,-0.242084,-0.243717,0.26624,
2,0,0,1,0,2409.35,0.258737,0.258486,-1.07421,2,0.0212096,11,-0.000277668,-2.96891,-0.214226,-0.275409,0.259346,
2,0,0,1,0,2409.52,0.251749,0.251457,-1.12155,2,0.0210171,11,-0.000282022,-2.95018,-0.306044,-0.192783,0.252354,
2,0,0,1,0,2409.7,0.244756,0.244456,-1.18588,2,0.0208148,11,-0.000289896,-2.92596,-0.296753,-0.198819,0.245404,
2,0,0,1,0,2409.87,0.237764,0.237459,-1.24354,2,0.0206027,11,-0.00029529,-2.90534,-0.439438,-0.134262,0.238454,
2,0,0,1,0,2410.05,0.230772,0.230474,-1.29941,2,0.0203808,11,-0.00029948,-2.88626,-0.442922,-0.133206,0.231514,
2,0,0,1,0,2410.22,0.223781,0.223487,-1.349,2,0.0201486,11,-0.000301484,-2.86999,-0.35401,-0.166662,0.224566,
2,0,0,1,0,2410.4,0.216788,0.216487,-1.42989,2,0.0199046,11,-0.000309552,-2.8447,-0.309116,-0.190867,0.217631,
2,0,0,1,0,2410.57,0.209796,0.209526,-1.50435,2,0.0196477,11,-0.000315201,-2.82265,-0.292916,-0.201423,0.210729,
2,0,0,1,0,2410.75,0.202804,0.202544,-1.60412,2,0.0193749,11,-0.000324905,-2.79476,-0.241619,-0.244186,0.203828,
2,0,0,1,0,2410.92,0.195813,0.195445,-1.72154,2,0.019083,11,-0.000336467,-2.76408,-0.178515,-0.330504,0.196822,
2,0,0,1,0,2411.1,0.18882,0.18849,-1.89707,2,0.018766,11,-0.000357578,-2.72192,-0.145147,-0.406484,0.190007,
2,0,0,1,0,2411.27,0.181828,0.181558,-2.12883,2,0.0184155,11,-0.000386505,-2.67186,-0.120867,-0.488141,0.183261,
2,0,0,1,0,2411.45,0.174836,0.174551,-2.43301,2,0.0180185,11,-0.000424685,-2.61386,-0.0985811,-0.598492,0.176498,
2,0,0,1,0,2411.62,0.167845,0.167559,-2.89518,2,0.0175548,11,-0.000485112,-2.53832,-0.0771473,-0.764771,0.169875,
2,0,0,1,0,2411.8,0.160853,0.160574,-3.57239,2,0.0169922,11,-0.000573633,-2.44704,-0.0661553,-0.891841,0.163432,
2,0,0,1,0,2411.97,0.15386,0.153576,-4.48271,2,0.01629,11,-0.000688438,-2.34846,-0.065197,-0.904949,0.157162,
2,0,0,1,0,2412.15,0.146872,0.146579,-5.51991,2,0.0154151,11,-0.000809105,-2.25807,-0.0814958,-0.723963,0.150995,
2,0,0,1,0,2412.32,0.13988,0.139579,-6.3981,2,0.0143689,11,-0.000893039,-2.19395,-0.131317,-0.449294,0.144697,
2,0,0,1,0,2412.49,0.132889,0.13259,-6.92596,2,0.0131965,11,-0.000918312,-2.15952,-0.383721,-0.153758,0.138131,
2,0,0,1,0,2412.67,0.125901,0.125594,-6.94785,2,0.0119754,11,-0.000872612,-2.15815,0.438416,0.134575,0.131153,
2,0,0,1,0,2412.84,0.118908,0.118612,-6.41662,2,0.0107988,11,-0.000761087,-2.19269,0.14633,0.403197,0.123745,
2,0,0,1,0,2413.02,0.111916,0.111607,-5.55104,2,0.00975007,11,-0.000619533,-2.25563,0.11348,0.519916,0.116047,
2,0,0,1,0,2413.19,0.104924,0.104608,-4.79923,2,0.00884938,11,-0.000502039,-2.31883,0.138853,0.424909,0.108448,
2,0,0,1,0,2413.37,0.0979329,0.0976124,-4.3184,2,0.0080558,11,-0.000421529,-2.36468,0.203577,0.289817,0.101067,
2,0,0,1,0,2413.54,0.0909405,0.0906051,-4.0259,2,0.00732792,11,-0.000364767,-2.39514,0.294627,0.200253,0.0938258,
2,0,0,1,0,2413.72,0.083948,0.0836161,-3.81041,2,0.0066434,11,-0.000318612,-2.41903,0.287857,0.204963,0.0866644,
2,0,0,1,0,2413.89,0.0769565,0.0766682,-3.61007,2,0.00599483,11,-0.000276777,-2.44248,0.26367,0.223764,0.0795562,
2,0,0,1,0,2414.07,0.0699649,0.0696474,-3.38477,2,0.00538294,11,-0.000235741,-2.47047,0.238826,0.247041,0.0723552,
2,0,0,1,0,2414.24,0.0629725,0.0626778,-3.16131,2,0.00480929,11,-0.000198144,-2.50013,0.245693,0.240137,0.0652069,
2,0,0,1,0,2414.42,0.05598,0.055646,-2.97303,2,0.00427253,11,-0.000165437,-2.5268,0.29396,0.200708,0.0580244,
2,0,0,1,0,2414.59,0.0489885,0.0487032,-2.82672,2,0.00376536,11,-0.00013767,-2.54872,0.388993,0.151674,0.0509646,
2,0,0,1,0,2414.77,0.0419969,0.0417138,-2.72761,2,0.00327938,11,-0.000113779,-2.56422,0.661925,0.089134,0.0438959,
2,0,0,1,0,2414.94,0.0350054,0.0347345,-2.68114,2,0.00280583,11,-9.31279e-05,-2.57168,4.74215,0.0124416,0.0368794,
2,0,0,1,0,2415.12,0.028012,0.0277187,-2.66847,2,0.00233859,11,-7.39666e-05,-2.57374,-4.29817,-0.0137268,0.0298535,
2,0,0,1,0,2415.29,0.021024,0.0207441,-2.66992,2,0.00187251,11,-5.53851e-05,-2.5735,-2.2475,-0.0262514,0.02288,
2,0,0,1,0,2415.47,0.0140325,0.0137363,-2.693,2,0.00140318,11,-3.69919e-05,-2.56976,-1.45384,-0.0405821,0.0158907,
2,0,0,1,0,2415.64,0.00704093,0.00673866,-2.73886,2,0.000928126,11,-1.84562e-05,-2.56243,-1.16983,-0.0504345,0.00892975,
2,0,0,1,0,2415.81,0.000177222,-0.000152392,-2.79668,2,0.00045151,11,4.26193e-07,-2.55336, , ,0.00208495,

File: 20221101_1-115_002_TrumpetPlot_ParaChange_09_CV_C01_1.csv
mode,ox/red,error,control changes,counter inc.,time/s,control/V,Ewe/V,<I>/mA,cycle number,(Q-Qo)/C,I Range,P/W,log(|I|),Tafel slope mV/dec,alpha_eff,E-IR/V,
2,0,0,1,0,2415.92,2.44065e-05,-0.000172625,-3.81375,2,0.0000000E+000,11,6.58349e-07,-2.41865, , ,0.00287838,
2,1,0,1,0,2416.03,0.00679123,0.00651103,2.47322,2,0.000114482,11,1.61032e-05,-2.60674,0.0618422,0.954042,0.00453245,
2,1,0,1,0,2416.15,0.0137802,0.0134821,2.62855,2,0.000414595,11,3.54383e-05,-2.58028,0.442948,0.133198,0.0113793,
2,1,0,1,0,2416.26,0.020777,0.0204924,2.6988,2,0.000724991,11,5.53049e-05,-2.56883,0.573914,0.102803,0.0183334,
2,1,0,1,0,2416.38,0.0277659,0.0274452,2.75889,2,0.0010431,11,7.57181e-05,-2.55927,0.646943,0.0911982,0.0252381,
2,1,0,1,0,2416.5,0.0347561,0.0344681,2.83124,2,0.00136953,11,9.75876e-05,-2.54802,0.506556,0.116473,0.0322031,
2,1,0,1,0,2416.61,0.0417476,0.0414976,2.93298,2,0.00170535,11,0.000121712,-2.53269,0.357227,0.165161,0.0391512,
2,1,0,1,0,2416.73,0.0487419,0.0484608,3.05053,2,0.0020537,11,0.000147831,-2.51562,0.364894,0.161691,0.0460204,
2,1,0,1,0,2416.85,0.0557321,0.055423,3.22098,2,0.00241842,11,0.000178516,-2.49201,0.327552,0.180124,0.0528462,
2,1,0,1,0,2416.96,0.0627223,0.0624701,3.43604,2,0.00280539,11,0.00021465,-2.46394,0.231927,0.25439,0.0597213,
2,1,0,1,0,2417.08,0.0697126,0.0694458,3.69122,2,0.0032213,11,0.00025634,-2.43283,0.217359,0.271441,0.0664929,
2,1,0,1,0,2417.2,0.0767094,0.0763956,4.00656,2,0.00367164,11,0.000306084,-2.39723,0.191661,0.307835,0.0731904,
2,1,0,1,0,2417.31,0.0836983,0.083444,4.34066,2,0.00415939,11,0.000362202,-2.36244,0.199049,0.296409,0.0799715,
2,1,0,1,0,2417.43,0.0906872,0.0904095,4.67103,2,0.00468526,11,0.000422305,-2.33059,0.207511,0.284323,0.0866727,
2,1,0,1,0,2417.55,0.0976787,0.097379,5.00239,2,0.00524908,11,0.000487128,-2.30082,0.214098,0.275574,0.0933771,
2,1,0,1,0,2417.66,0.104674,0.104424,5.3627,2,0.00585297,11,0.000559996,-2.27062,0.210239,0.280634,0.100134,
2,1,0,1,0,2417.78,0.111665,0.111388,5.82523,2,0.00650318,11,0.000648862,-2.23469,0.155816,0.378653,0.106728,
2,1,0,1,0,2417.9,0.118655,0.118382,6.49066,2,0.00721897,11,0.000768379,-2.18771,0.119839,0.492329,0.11319,
2,1,0,1,0,2418.01,0.125649,0.125346,7.38179,2,0.00802605,11,0.000925278,-2.13184,0.105042,0.561678,0.119441,
2,1,0,1,0,2418.13,0.132642,0.132365,8.45166,2,0.00894751,11,0.0011187,-2.07306,0.114114,0.517026,0.125603,
2,1,0,1,0,2418.24,0.139631,0.139311,9.43107,2,0.00999084,11,0.00131385,-2.02544,0.164003,0.35975,0.131766,
2,1,0,1,0,2418.36,0.14662,0.146354,10.1295,2,0.0111356,11,0.00148249,-1.99441,0.360193,0.163801,0.13825,
2,1,0,1,0,2418.48,0.153616,0.153341,10.2618,2,0.012333,11,0.00157355,-1.98878,-0.667701,-0.0883629,0.145131,
2,1,0,1,0,2418.59,0.160607,0.160306,9.48148,2,0.0134953,11,0.00151994,-2.02312,-0.128257,-0.460014,0.152721,
2,1,0,1,0,2418.71,0.167597,0.167303,7.5858,2,0.014498,11,0.00126913,-2.12,-0.0692456,-0.85204,0.161235,
2,1,0,1,0,2418.83,0.174587,0.17432,5.54599,2,0.0152569,11,0.000966775,-2.25602,-0.0658513,-0.895958,0.169883,
2,1,0,1,0,2418.94,0.181581,0.181321,4.3993,2,0.0158281,11,0.000797687,-2.35662,-0.100699,-0.585902,0.177802,
2,1,0,1,0,2419.06,0.188573,0.188292,3.83049,2,0.0163049,11,0.000721248,-2.41675,-0.146346,-0.403154,0.185227,
2,1,0,1,0,2419.18,0.195563,0.195296,3.46262,2,0.0167288,11,0.000676237,-2.46059,-0.17883,-0.329922,0.192526,
2,1,0,1,0,2419.29,0.202552,0.202286,3.20883,2,0.0171167,11,0.000649101,-2.49365,-0.251862,-0.234255,0.199719,
2,1,0,1,0,2419.41,0.209549,0.209296,3.03867,2,0.0174801,11,0.00063598,-2.51732,-0.271878,-0.217009,0.206865,
2,1,0,1,0,2419.53,0.216538,0.216268,2.89271,2,0.017825,11,0.000625601,-2.53869,-0.367918,-0.160362,0.213954,
2,1,0,1,0,2419.64,0.223528,0.223274,2.78947,2,0.0181568,11,0.000622814,-2.55448,-0.4438,-0.132943,0.221042,
2,1,0,1,0,2419.76,0.23052,0.230195,2.71682,2,0.0184785,11,0.000625399,-2.56594,-0.620699,-0.0950541,0.228022,
2,1,0,1,0,2419.88,0.237514,0.23727,2.65966,2,0.0187929,11,0.000631059,-2.57517,-1.66246,-0.0354897,0.235142,
2,1,0,1,0,2419.99,0.244504,0.244214,2.61747,2,0.0191007,11,0.000639222,-2.58212,-2.48259,-0.0237655,0.24212,
2,1,0,1,0,2420.11,0.251494,0.251215,2.57529,2,0.0194032,11,0.000646951,-2.58917,-1.2594,-0.0468479,0.249155,
2,1,0,1,0,2420.23,0.25849,0.258254,2.54474,2,0.0197014,11,0.000657189,-2.59436,-0.986604,-0.0598011,0.256218,
2,1,0,1,0,2420.34,0.265481,0.265212,2.50252,2,0.0199953,11,0.000663699,-2.60162,-0.878569,-0.0671547,0.26321,
2,1,0,1,0,2420.46,0.27247,0.272237,2.46493,2,0.0202854,11,0.000671045,-2.6082,-1.11527,-0.0529022,0.270265,
2,1,0,1,0,2420.58,0.279459,0.279167,2.43886,2,0.0205719,11,0.000680849,-2.61281,-1.62718,-0.036259,0.277216,
2,1,0,1,0,2420.69,0.286451,0.28618,2.41637,2,0.0208551,11,0.000691516,-2.61684,-1.92056,-0.0307202,0.284247,
2,1,0,1,0,2420.81,0.293446,0.293189,2.3856,2,0.0211352,11,0.000699432,-2.6224,-1.12988,-0.0522181,0.29128,
2,1,0,0,0,2420.92,0.300012,0.299689,2.36348,2,0.0213947,11,0.000708309,-2.62645,-0.00336797,-17.518,0.297798,
2,0,0,1,0,2421.03,0.293245,0.292998,-0.97358,2,0.0213328,11,-0.000285257,-3.01163,-0.0866889,-0.680594,0.293777,
2,0,0,1,0,2421.15,0.286254,0.285918,-1.15584,2,0.0212069,11,-0.000330474,-2.9371,-0.108967,-0.541447,0.286843,
2,0,0,1,0,2421.26,0.279263,0.27898,-1.30412,2,0.0210627,11,-0.000363823,-2.88468,-0.152649,-0.386508,0.280023,
2,0,0,1,0,2421.38,0.272269,0.271964,-1.41201,2,0.0209042,11,-0.000384015,-2.85016,-0.216129,-0.272985,0.273093,
2,0,0,1,0,2421.5,0.265279,0.265046,-1.50878,2,0.0207338,11,-0.000399894,-2.82138,-0.260864,-0.226171,0.266253,
2,0,0,1,0,2421.61,0.258287,0.25799,-1.58497,2,0.020553,11,-0.000408907,-2.79998,-0.287635,-0.205121,0.259258,
2,0,0,1,0,2421.73,0.251298,0.25099,-1.67314,2,0.0203624,11,-0.000419941,-2.77647,-0.310228,-0.190183,0.252329,
2,0,0,1,0,2421.85,0.244302,0.243976,-1.75692,2,0.0201624,11,-0.000428646,-2.75525,-0.310806,-0.189829,0.245382,
2,0,0,1,0,2421.96,0.237313,0.237017,-1.82965,2,0.0199535,11,-0.000433657,-2.73763,-0.415469,-0.142008,0.23848,
2,0,0,1,0,2422.08,0.230324,0.230017,-1.91597,2,0.0197352,11,-0.000440705,-2.71761,-0.486692,-0.121227,0.23155,
2,0,0,1,0,2422.2,0.223331,0.222981,-2.00869,2,0.019507,11,-0.000447899,-2.69709,-0.517013,-0.114117,0.224587,
2,0,0,1,0,2422.31,0.216337,0.216002,-2.08967,2,0.0192675,11,-0.000451372,-2.67992,-0.404914,-0.14571,0.217674,
2,0,0,1,0,2422.43,0.209347,0.20909,-2.21076,2,0.0190159,11,-0.000462248,-2.65546,-0.261126,-0.225945,0.210859,
2,0,0,1,0,2422.54,0.202356,0.202042,-2.35915,2,0.0187486,11,-0.000476647,-2.62724,-0.21746,-0.271315,0.203929,
2,0,0,1,0,2422.66,0.195361,0.195078,-2.54412,2,0.0184627,11,-0.000496303,-2.59446,-0.179106,-0.329413,0.197113,
2,0,0,1,0,2422.78,0.188369,0.188086,-2.78626,2,0.0181528,11,-0.000524056,-2.55498,-0.151377,-0.389756,0.190315,
2,0,0,1,0,2422.89,0.18138,0.181066,-3.10192,2,0.0178106,11,-0.000561651,-2.50837,-0.130543,-0.451958,0.183547,
2,0,0,1,0,2423.01,0.174391,0.174045,-3.54652,2,0.0174238,11,-0.000617256,-2.4502,-0.0977645,-0.603491,0.176883,
2,0,0,1,0,2423.13,0.1674,0.16711,-4.2097,2,0.0169739,11,-0.000703481,-2.37575,-0.0759882,-0.776437,0.170477,
2,0,0,1,0,2423.24,0.160404,0.160096,-5.13784,2,0.0164321,11,-0.000822547,-2.28922,-0.0656889,-0.898173,0.164206,
2,0,0,1,0,2423.36,0.153414,0.153121,-6.38219,2,0.0157643,11,-0.000977245,-2.19503,-0.0622766,-0.947387,0.158226,
2,0,0,1,0,2423.48,0.146424,0.146086,-7.78809,2,0.014939,11,-0.00113773,-2.10857,-0.0782046,-0.754431,0.152316,
2,0,0,1,0,2423.59,0.13943,0.139149,-9.05703,2,0.0139535,11,-0.00126028,-2.04301,-0.115941,-0.508878,0.146395,
2,0,0,1,0,2423.71,0.132438,0.132114,-9.95317,2,0.0128391,11,-0.00131496,-2.00204,-0.241481,-0.244326,0.140077,
2,0,0,1,0,2423.83,0.125448,0.125152,-10.2396,2,0.0116548,11,-0.00128151,-1.98972,2.12017,0.027828,0.133344,
2,0,0,1,0,2423.94,0.118459,0.118174,-9.76245,2,0.0104815,11,-0.00115367,-2.01044,0.206047,0.286342,0.125984,
2,0,0,1,0,2424.06,0.111462,0.111165,-8.60909,2,0.00940556,11,-0.000957027,-2.06504,0.118659,0.497223,0.118052,
2,0,0,1,0,2424.18,0.104473,0.10418,-7.33452,2,0.0084795,11,-0.000764109,-2.13463,0.121518,0.485527,0.110047,
2,0,0,1,0,2424.29,0.0974817,0.0971953,-6.45109,2,0.00768068,11,-0.000627015,-2.19037,0.169868,0.347329,0.102356,
2,0,0,1,0,2424.41,0.0904915,0.0901584,-5.94798,2,0.00696085,11,-0.00053626,-2.22563,0.254561,0.231772,0.0949167,
2,0,0,1,0,2424.53,0.0834972,0.0832281,-5.60918,2,0.00628789,11,-0.000466841,-2.2511,0.309811,0.190439,0.0877155,
2,0,0,1,0,2424.64,0.076507,0.0761641,-5.32308,2,0.0056515,11,-0.000405427,-2.27384,0.285714,0.206501,0.0804225,
2,0,0,1,0,2424.76,0.0695168,0.0691881,-5.00092,2,0.00505016,11,-0.000346004,-2.30095,0.242377,0.243422,0.0731888,
2,0,0,1,0,2424.88,0.0625265,0.0622371,-4.66494,2,0.00448617,11,-0.000290332,-2.33115,0.226539,0.26044,0.0659691,
2,0,0,1,0,2424.99,0.0555297,0.0552047,-4.36412,2,0.00395886,11,-0.00024092,-2.3601,0.262652,0.224632,0.058696,
2,0,0,1,0,2425.11,0.0485408,0.0482385,-4.14053,2,0.00346307,11,-0.000199733,-2.38294,0.373203,0.158091,0.0515509,
2,0,0,1,0,2425.22,0.0415519,0.0412843,-3.99008,2,0.00298991,11,-0.000164727,-2.39902,0.957327,0.0616299,0.0444763,
2,0,0,1,0,2425.34,0.034559,0.034265,-3.91241,2,0.00253012,11,-0.000134059,-2.40756,1.55074,0.0380462,0.037395,
2,0,0,1,0,2425.46,0.0275648,0.027278,-3.88059,2,0.00207701,11,-0.000105855,-2.4111,2.66415,0.0221459,0.0303825,
2,0,0,1,0,2425.57,0.0205746,0.0202606,-3.87656,2,0.00162569,11,-7.85415e-05,-2.41155,-6.38184,-0.00924498,0.0233618,
2,0,0,1,0,2425.69,0.0135844,0.0132566,-3.90684,2,0.00117204,11,-5.17914e-05,-2.40817,-1.42137,-0.0415093,0.0163821,
2,0,0,1,0,2425.81,0.00658877,0.0062727,-3.96319,2,0.00071261,11,-2.48599e-05,-2.40196,-0.812333,-0.0726303,0.00944325,
2,0,0,0,0,2425.91,0.000199195,-0.00014972,-4.05207,2,0.000284632,11,6.06676e-07,-2.39232, , ,0.00309193,