Folder: Figs_alphaMnO2_OER_Tafel_sleope/Figure_codes/Fig_S3_S4 (part 9)

File: 20221101_1-115_003_TrumpetPlot_ParaChange_from10_every3_06_CV_C01_16.csv
mode,ox/red,error,control changes,counter inc.,time/s,control/V,Ewe/V,<I>/mA,cycle number,(Q-Qo)/C,I Range,P/W,log(|I|),Tafel slope mV/dec,alpha_eff,dI/d(E-IR),E-IR/V,
2,0,0,0,0,32672.1,2.44065e-05,-0.000248974,-1.41789,17,0.0000000E+000,10,3.53018e-07,-2.84836, , , ,-0.000248974,
2,1,0,1,0,32672.3,0.00729063,0.0069616,1.23919,17,9.64087e-05,10,8.62676e-06,-2.90686,0.0310482,1.90027,88.462,0.0069616,
2,1,0,1,0,32672.5,0.014778,0.0144575,1.60595,17,0.000372439,10,2.3218e-05,-2.79427,0.110423,0.534307,33.5112,0.0144575,
2,1,0,1,0,32672.7,0.0222743,0.021954,1.81335,17,0.000696948,10,3.98103e-05,-2.74152,0.17235,0.342327,24.0652,0.021954,
2,1,0,1,0,32672.8,0.0297626,0.0294008,1.98182,17,0.00105523,10,5.82671e-05,-2.70294,0.206927,0.285125,22.0612,0.02940079,
2,1,0,1,0,32673,0.0372544,0.0369249,2.15475,17,0.00144612,10,7.95641e-05,-2.6666,0.218207,0.270386,22.7371,0.0369249,
2,1,0,1,0,32673.2,0.0447472,0.0443886,2.33441,17,0.00186967,10,0.000103621,-2.63182,0.237053,0.24889,22.6026,0.0443886,
2,1,0,1,0,32673.4,0.0522345,0.051871,2.49318,17,0.00232496,10,0.000129324,-2.60325,0.259343,0.227498,22.1867,0.051871,
2,1,0,1,0,32673.6,0.0597309,0.0593948,2.65751,17,0.00281121,10,0.000157842,-2.57553,0.276299,0.213537,22.09,0.0593948,
2,1,0,1,0,32673.8,0.0672182,0.0669425,2.80226,17,0.0033251,10,0.00018759,-2.55249,0.338845,0.174121,19.0035,0.0669425,
2,1,0,1,0,32674,0.0747074,0.0744058,2.91958,17,0.00386422,10,0.000217234,-2.53468,0.531327,0.111043,12.6665,0.0744058,
2,1,0,1,0,32674.2,0.0822019,0.0818943,3.02862,17,0.00442489,10,0.000248027,-2.51876,0.547254,0.107811,12.7085,0.0818943,
2,1,0,1,0,32674.3,0.0896911,0.089357,3.1272,17,0.00500397,10,0.000279437,-2.50484,0.472238,0.124937,15.2807,0.089357,
2,1,0,1,0,32674.5,0.097182,0.0968904,3.28141,17,0.00560691,10,0.000317937,-2.48394,0.282711,0.208694,26.7762,0.0968904,
2,1,0,1,0,32674.7,0.104675,0.104387,3.52932,17,0.00624629,10,0.000368413,-2.45231,0.20972,0.281327,38.6649,0.104387,
2,1,0,1,0,32674.9,0.112162,0.111848,3.82522,17,0.00693759,10,0.000427845,-2.41734,0.228475,0.258233,38.5616,0.111848,
2,1,0,1,0,32675.1,0.119655,0.119327,4.08571,17,0.00768326,10,0.000487535,-2.38873,0.370233,0.159359,25.393,0.119327,
2,1,0,1,0,32675.3,0.127146,0.126819,4.24261,17,0.00846801,10,0.000538044,-2.37237,0.610479,0.0966454,16.0044,0.126819,
2,1,0,1,0,32675.5,0.134635,0.134251,4.33812,17,0.00927631,10,0.000582398,-2.3627,1.29467,0.0455715,7.7341,0.134251,
2,1,0,1,0,32675.7,0.14213,0.141784,4.31734,17,0.0100952,10,0.000612131,-2.36478,-0.445573,-0.132414,-22.2233,0.141784,
2,1,0,1,0,32675.8,0.149619,0.149311,3.91137,17,0.010876,10,0.00058401,-2.40767,-0.108619,-0.543184,-82.6209,0.149311,
2,1,0,1,0,32676,0.157106,0.156766,3.18568,17,0.011545,10,0.000499405,-2.4968,-0.0764248,-0.772001,-96.1112,0.156766,
2,1,0,1,0,32676.2,0.164602,0.164252,2.59238,17,0.012085,10,0.000425803,-2.5863,-0.0967114,-0.610062,-61.722,0.164252,
2,1,0,1,0,32676.4,0.172091,0.171756,2.23383,17,0.012537,10,0.000383673,-2.65095,-0.149105,-0.395693,-34.6949,0.171756,
2,1,0,1,0,32676.6,0.179582,0.179269,2.04171,17,0.0129397,10,0.000366015,-2.69001,-0.248784,-0.237153,-18.9497,0.179269,
2,1,0,1,0,32676.8,0.187074,0.18673,1.93317,17,0.0133143,10,0.000360982,-2.71373,-0.471582,-0.125111,-9.42878,0.18673,
2,1,0,1,0,32677,0.194563,0.194239,1.86148,17,0.0136723,10,0.000361571,-2.73014,-0.773803,-0.0762468,-5.55082,0.194239,
2,1,0,1,0,32677.2,0.202059,0.201758,1.8175,17,0.0140201,10,0.000366695,-2.74053,-0.805474,-0.0732488,-5.17824,0.201758,
2,1,0,1,0,32677.3,0.209546,0.20923,1.78436,17,0.0143604,10,0.000373341,-2.74852,-0.802709,-0.0735011,-5.131,0.20923,
2,1,0,1,0,32677.5,0.217035,0.216728,1.75087,17,0.0146954,10,0.000379463,-2.75675,-1.33057,-0.0443419,-3.05415,0.216728,
2,1,0,1,0,32677.7,0.22453,0.224209,1.73943,17,0.0150266,10,0.000389996,-2.75959,-1.71811,-0.03434,-2.32634,0.224209,
2,1,0,1,0,32677.9,0.232019,0.231717,1.71998,17,0.015354,10,0.000398548,-2.76448,-5.82631,-0.0101265,-0.682483,0.231717,
2,1,0,1,0,32678.1,0.23951,0.239245,1.70978,17,0.0156788,10,0.000409057,-2.76706,-1.74628,-0.033786,-2.25339,0.2392451,
2,1,0,1,0,32678.3,0.247003,0.246729,1.69901,17,0.0160011,10,0.000419195,-2.76981,-1.22074,-0.0483315,-3.19696,0.246729,
2,1,0,1,0,32678.5,0.25449,0.254206,1.68242,17,0.0163208,10,0.000427681,-2.77407,-1.61739,-0.0364784,-2.40061,0.254206,
2,1,0,1,0,32678.7,0.261983,0.261661,1.67404,17,0.0166382,10,0.000438032,-2.77623,-2.84007,-0.0207741,-1.35433,0.261661,
2,1,0,1,0,32678.8,0.269474,0.269167,1.65641,17,0.0169535,10,0.000445851,-2.78083,-4.25613,-0.0138623,-0.897392,0.269167,
2,1,0,1,0,32679,0.276963,0.27669,1.64593,17,0.0172662,10,0.000455411,-2.78359,-2.63573,-0.0223847,-1.43791,0.27669,
2,1,0,1,0,32679.2,0.284458,0.284134,1.63509,17,0.0175766,10,0.000464584,-2.78646,-1.77514,-0.0332368,-2.11478,0.284134,
2,1,0,1,0,32679.4,0.291947,0.29165,1.61494,17,0.017884,10,0.000470997,-2.79184,-1.18604,-0.0497454,-3.13681,0.2916505,
2,1,0,1,0,32679.6,0.299434,0.299142,1.59829,17,0.0181886,10,0.000478116,-2.79634,-0.0138639,-4.25565,-223.64,0.299142,
2,0,0,1,0,32679.7,0.294196,0.293811,-0.378515,17,0.0182211,10,-0.000111212,-3.42192,-0.0120573,-4.8933,61.6907,0.293811,
2,0,0,1,0,32679.9,0.286701,0.28638,-0.604376,17,0.0181214,10,-0.000173081,-3.21869,-0.066775,-0.883564,21.0179,0.28638,
2,0,0,1,0,32680.1,0.279212,0.2789,-0.738609,17,0.0179908,10,-0.000205998,-3.13159,-0.12474,-0.472986,13.521,0.2789003,
2,0,0,1,0,32680.3,0.271725,0.27138,-0.821322,17,0.0178408,10,-0.000222891,-3.08549,-0.164777,-0.35806,11.5258,0.27138,
2,0,0,1,0,32680.5,0.264228,0.263903,-0.896971,17,0.0176755,10,-0.000236713,-3.04722,-0.247763,-0.238131,8.32113,0.263903,
2,0,0,1,0,32680.7,0.256741,0.25641,-0.963776,17,0.017498,10,-0.000247122,-3.01602,-0.28378,-0.207908,7.76383,0.25641,
2,0,0,1,0,32680.9,0.249248,0.248869,-1.01248,17,0.0173093,10,-0.000251974,-2.99462,-0.388816,-0.151743,6.03335,0.248869,
2,0,0,1,0,32681.1,0.241756,0.241493,-1.06675,17,0.0171106,10,-0.000257613,-2.97194,-0.350317,-0.168419,7.00935,0.241493,
2,0,0,1,0,32681.2,0.234268,0.233925,-1.11306,17,0.0169027,10,-0.000260372,-2.95348,-0.49476,-0.11925,5.19663,0.233925,
2,0,0,1,0,32681.4,0.226772,0.226464,-1.15818,17,0.0166859,10,-0.000262285,-2.93623,-0.487439,-0.121041,5.48042,0.226464,
2,0,0,1,0,32681.6,0.219284,0.218962,-1.20992,17,0.0164608,10,-0.000264927,-2.91724,-0.435365,-0.135518,6.35369,0.218962,
2,0,0,1,0,32681.8,0.211796,0.211448,-1.24728,17,0.0162273,10,-0.000263735,-2.90403,-0.480417,-0.12281,5.98546,0.211448,
2,0,0,1,0,32682,0.204301,0.203947,-1.29675,17,0.0159849,10,-0.000264469,-2.88714,-0.621623,-0.0949129,4.80367,0.203947,
2,0,0,1,0,32682.2,0.196812,0.196481,-1.34326,17,0.0157343,10,-0.000263925,-2.87184,-0.448851,-0.131447,6.88256,0.196481,
2,0,0,1,0,32682.4,0.189321,0.188985,-1.38984,17,0.0154741,10,-0.00026266,-2.85703,-0.463182,-0.12738,6.96265,0.188985,
2,0,0,1,0,32682.6,0.181828,0.181487,-1.45561,17,0.0152036,10,-0.000264175,-2.83695,-0.347644,-0.169714,9.6119,0.181487,
2,0,0,1,0,32682.7,0.174341,0.173979,-1.52447,17,0.014921,10,-0.000265225,-2.81688,-0.331769,-0.177835,10.6036,0.173979,
2,0,0,1,0,32682.9,0.166848,0.166522,-1.62165,17,0.0146228,10,-0.000270041,-2.79004,-0.258069,-0.228621,14.4668,0.166522,
2,0,0,1,0,32683.1,0.159357,0.159027,-1.75741,17,0.0143041,10,-0.000279475,-2.75513,-0.188509,-0.312982,21.376,0.159027,
2,0,0,1,0,32683.3,0.151868,0.151508,-1.94966,17,0.0139548,10,-0.00029539,-2.71004,-0.139682,-0.422387,32.3832,0.151508,
2,0,0,1,0,32683.5,0.144373,0.14404,-2.29314,17,0.0135556,10,-0.000330304,-2.63957,-0.0912862,-0.646319,58.033,0.14404,
2,0,0,1,0,32683.7,0.136884,0.136573,-2.81465,17,0.0130761,10,-0.000384407,-2.55057,-0.0834086,-0.707361,77.6206,0.136573,
2,0,0,1,0,32683.9,0.129393,0.129032,-3.40591,17,0.0124897,10,-0.000439472,-2.46777,-0.10114,-0.583349,77.4881,0.129032,
2,0,0,1,0,32684.1,0.1219,0.121563,-3.91884,17,0.0117979,10,-0.000476386,-2.40684,-0.159943,-0.368881,56.1794,0.121563,
2,0,0,1,0,32684.2,0.114413,0.114106,-4.25765,17,0.0110265,10,-0.000485824,-2.37083,-0.29431,-0.200469,33.254,0.114106,
2,0,0,1,0,32684.4,0.10692,0.106603,-4.39503,17,0.0102093,10,-0.000468521,-2.35704,-1.78159,-0.0331164,5.68157,0.1066025,
2,0,0,1,0,32684.6,0.0994284,0.0990891,-4.35151,17,0.00938403,10,-0.000431187,-2.36136,0.601083,0.0981562,-16.6153,0.0990891,
2,0,0,1,0,32684.8,0.0919401,0.0916222,-4.17138,17,0.00858234,10,-0.000382191,-2.37972,0.380151,0.155202,-25.2871,0.0916222,
2,0,0,1,0,32685,0.0844447,0.0841107,-3.99016,17,0.00781422,10,-0.000335615,-2.39901,0.461243,0.127915,-19.9342,0.08411067,
2,0,0,1,0,32685.2,0.0769565,0.0766392,-3.86429,17,0.00707636,10,-0.000296156,-2.41293,0.5503,0.107214,-16.1356,0.0766392,
2,0,0,1,0,32685.4,0.0694682,0.0691644,-3.75261,17,0.00635969,10,-0.000259547,-2.42567,0.660122,0.0893774,-13.129,0.06916444,
2,0,0,1,0,32685.6,0.0619728,0.0616391,-3.66007,17,0.00566073,10,-0.000225603,-2.43651,0.594007,0.0993254,-14.187,0.0616391,
2,0,0,1,0,32685.7,0.0544836,0.0541458,-3.55477,17,0.00498178,10,-0.000192476,-2.44919,0.652705,0.0903931,-12.5333,0.0541458,
2,0,0,1,0,32685.9,0.0469927,0.0466541,-3.43983,17,0.00432244,10,-0.000160482,-2.46346,0.51676,0.114173,-15.3493,0.0466541,
2,0,0,1,0,32686.1,0.0394999,0.0391655,-3.33014,17,0.00368483,10,-0.000130427,-2.47754,0.452816,0.130296,-16.8651,0.0391655,
2,0,0,1,0,32686.3,0.0320125,0.0316166,-3.19014,17,0.00307146,10,-0.000100862,-2.49619,0.379079,0.15564,-19.3791,0.0316166,
2,0,0,1,0,32686.5,0.0245198,0.0242007,-3.05114,17,0.00248326,10,-7.38398e-05,-2.51554,0.398843,0.147928,-17.634,0.0242007,
2,0,0,1,0,32686.7,0.0170289,0.0166878,-2.93745,17,0.00191909,10,-4.90196e-05,-2.53203,0.525455,0.112284,-12.8739,0.0166878,
2,0,0,1,0,32686.9,0.0095397,0.0092318,-2.84517,17,0.00137461,10,-2.6266e-05,-2.54589,0.810489,0.0727956,-8.10207,0.0092318,
2,0,0,1,0,32687.1,0.00204518,0.00166453,-2.83643,17,0.000842904,10,-4.72133e-06,-2.54723,-6.69837,-0.00880811,0.963441,0.00166453,
2,0,0,1,0,32687.1,0.000177222,-0.000226451,-2.80461,17,0.000710747,10,6.35108e-07,-2.55213, , , ,-0.000226451,

File: 20221101_1-115_003_TrumpetPlot_ParaChange_from10_every3_11_CV_C01_16.csv
mode,ox/red,error,control changes,counter inc.,time/s,control/V,Ewe/V,<I>/mA,cycle number,(Q-Qo)/C,I Range,P/W,log(|I|),Tafel slope mV/dec,alpha_eff,dI/d(E-IR),E-IR/V,
2,1,0,1,0,32716.6,2.44065e-05,-0.000401673,10.051,17,0.0000000E+000,10,-4.03723e-06,-1.99779, , , ,-0.000401673,
2,1,0,1,0,32716.6,0.0101427,0.00972945,13.9071,17,0.000310727,10,0.000135308,-1.85676,0.129228,0.456556,246.313,0.00972945,
2,1,0,1,0,32716.7,0.0205441,0.0202126,15.9508,17,0.000700886,10,0.000322408,-1.79722,0.228387,0.258334,160.571,0.0202126,
2,1,0,1,0,32716.7,0.0309482,0.0306301,17.4347,17,0.00113595,10,0.000534025,-1.75859,0.312237,0.188959,128.445,0.0306301,
2,1,0,1,0,32716.7,0.0413439,0.0409637,18.6688,17,0.00160563,10,0.000764745,-1.72888,0.38743,0.152285,110.834,0.0409637,
2,1,0,1,0,32716.7,0.0517425,0.0513822,19.7961,17,0.00210583,10,0.00101717,-1.70342,0.428893,0.137563,106.322,0.0513822,
2,1,0,1,0,32716.8,0.0621438,0.0617837,20.9348,17,0.00263552,10,0.00129343,-1.67913,0.436142,0.135277,110.555,0.0617837,
2,1,0,1,0,32716.8,0.0725479,0.0722128,22.1272,17,0.00319524,10,0.00159787,-1.65507,0.431717,0.136664,117.954,0.0722128,
2,1,0,1,0,32716.8,0.0829437,0.0825773,23.3286,17,0.00378626,10,0.00192641,-1.63211,0.473768,0.124533,113.342,0.0825773,
2,1,0,1,0,32716.8,0.0933422,0.0929883,24.526,17,0.00440825,10,0.00228063,-1.61037,0.468913,0.125823,120.457,0.0929883,
2,1,0,1,0,32716.9,0.103749,0.103439,25.7399,17,0.00506193,10,0.0026625,-1.58939,0.508915,0.115933,116.454,0.103439,
2,1,0,1,0,32716.9,0.114148,0.113808,26.9655,17,0.00574685,10,0.00306889,-1.56919,0.491707,0.11999,126.222,0.113808,
2,1,0,1,0,32716.9,0.124543,0.124178,28.357,17,0.00646563,10,0.00352132,-1.54734,0.452369,0.130425,144.361,0.124178,
2,1,0,1,0,32716.9,0.134942,0.134607,29.9432,17,0.00722354,10,0.00403057,-1.5237,0.435056,0.135615,158.594,0.134607,
2,1,0,1,0,32717,0.145349,0.144964,31.6101,17,0.0080241,10,0.00458233,-1.50017,0.478679,0.123256,151.901,0.144964,
2,1,0,1,0,32717,0.155747,0.155399,33.0459,17,0.00886516,10,0.00513528,-1.48088,0.615025,0.095931,123.602,0.155399,
2,1,0,1,0,32717,0.166143,0.165774,34.0547,17,0.00973894,10,0.00564537,-1.46782,1.22704,0.0480832,63.858,0.165774,
2,1,0,1,0,32717,0.176542,0.176242,34.2031,17,0.010629,10,0.00602803,-1.46593,-1.69209,-0.0348682,-46.4508,0.176242,
2,1,0,1,0,32717.1,0.186949,0.186624,32.9955,17,0.0115055,10,0.00615777,-1.48154,-0.406378,-0.145185,-186.506,0.186624,
2,1,0,1,0,32717.1,0.197347,0.196993,30.4268,17,0.0123321,10,0.00599386,-1.51674,-0.239445,-0.246403,-292.214,0.196993,
2,1,0,1,0,32717.1,0.207743,0.207425,27.1635,17,0.0130809,10,0.00563439,-1.56601,-0.196496,-0.30026,-318.119,0.207425,
2,1,0,1,0,32717.2,0.218141,0.217817,24.0076,17,0.0137448,10,0.00522927,-1.61965,-0.198515,-0.297207,-278.716,0.217817,
2,1,0,1,0,32717.2,0.228548,0.22824,21.4714,17,0.0143342,10,0.00490064,-1.66814,-0.233816,-0.252335,-211.573,0.22824,
2,1,0,1,0,32717.2,0.238947,0.23866,19.5609,17,0.0148661,10,0.00466841,-1.70861,-0.291935,-0.2021,-154.426,0.23866,
2,1,0,1,0,32717.2,0.249343,0.249042,18.1692,17,0.0153556,10,0.0045249,-1.74066,-0.360744,-0.163551,-116.11,0.249042,
2,1,0,1,0,32717.3,0.259741,0.25943,17.139,17,0.015814,10,0.00444637,-1.76601,-0.455301,-0.129585,-86.7319,0.25943,
2,1,0,1,0,32717.3,0.270148,0.269845,16.3555,17,0.016249,10,0.00441346,-1.78634,-0.560427,-0.105277,-67.2517,0.269845,
2,1,0,1,0,32717.3,0.280547,0.280227,15.7409,17,0.0166659,10,0.00441104,-1.80297,-0.668156,-0.0883027,-54.2508,0.280227,
2,1,0,1,0,32717.3,0.290942,0.290608,15.2345,17,0.0170684,10,0.00442725,-1.81717,-0.769617,-0.0766615,-45.5818,0.290608,
2,1,0,0,0,32717.4,0.300012,0.299746,14.8588,17,0.0174098,10,0.00445387,-1.82802,0.00123745,47.6788,23776.3,0.299746,
2,1,0,1,0,32717.4,0.290704,0.290385,3.80142,17,0.0175996,10,0.00110388,-2.42005,0.0118515,4.97829,704.543,0.290385,
2,0,0,1,0,32717.4,0.280305,0.27999,-1.34842,17,0.0176236,10,-0.000377544,-2.87018,-0.00481348,-12.2573,356.421,0.27999,
2,0,0,1,0,32717.4,0.269909,0.269588,-4.17494,17,0.0175482,10,-0.00112552,-2.37935,-0.0445835,-1.32336,211.826,0.269588,
2,0,0,1,0,32717.5,0.2595,0.259192,-5.97149,17,0.0174145,10,-0.00154776,-2.22392,-0.0961462,-0.613648,142.031,0.2591922,
2,0,0,1,0,32717.5,0.249104,0.248783,-7.21758,17,0.0172421,10,-0.00179561,-2.14161,-0.164988,-0.357602,100.322,0.248783,
2,0,0,1,0,32717.5,0.238705,0.238406,-8.13276,17,0.0170421,10,-0.0019389,-2.08976,-0.233445,-0.252736,80.2159,0.238406,
2,0,0,1,0,32717.5,0.22831,0.228008,-8.88314,17,0.0168203,10,-0.00202542,-2.05143,-0.304192,-0.193957,67.2728,0.228008,
2,0,0,1,0,32717.6,0.2179,0.217536,-9.54136,17,0.0165806,10,-0.00207559,-2.02039,-0.372421,-0.158423,58.8319,0.217536,
2,0,0,1,0,32717.6,0.207504,0.2072,-10.1016,17,0.0163251,10,-0.00209305,-1.99561,-0.445209,-0.132522,52.2991,0.2072,
2,0,0,1,0,32717.6,0.197106,0.196797,-10.6391,17,0.0160551,10,-0.00209375,-1.97309,-0.454537,-0.129802,54.0038,0.196797,
2,0,0,1,0,32717.6,0.18671,0.186362,-11.1967,17,0.015771,10,-0.00208665,-1.95091,-0.480183,-0.12287,53.6539,0.186362,
2,0,0,1,0,32717.7,0.1763,0.175984,-11.7835,17,0.0154724,10,-0.00207372,-1.92872,-0.462872,-0.127465,58.6116,0.175984,
2,0,0,1,0,32717.7,0.165905,0.165526,-12.4637,17,0.0151575,10,-0.00206307,-1.90435,-0.401322,-0.147014,71.5805,0.165526,
2,0,0,1,0,32717.7,0.155506,0.155215,-13.3639,17,0.0148224,10,-0.00207428,-1.87407,-0.300746,-0.196179,102.376,0.155215,
2,0,0,1,0,32717.7,0.145105,0.144825,-14.6485,17,0.0144593,10,-0.00212148,-1.83421,-0.218737,-0.26973,154.452,0.144825,
2,0,0,1,0,32717.8,0.134701,0.134372,-16.6122,17,0.0140545,10,-0.00223221,-1.77957,-0.16768,-0.35186,228.472,0.134372,
2,0,0,1,0,32717.8,0.124305,0.12396,-19.3602,17,0.0135881,10,-0.00239988,-1.71309,-0.153898,-0.383371,289.672,0.12396,
2,0,0,1,0,32717.8,0.113906,0.113594,-22.4781,17,0.013044,10,-0.00255338,-1.64824,-0.177908,-0.331632,290.366,0.113594,
2,0,0,1,0,32717.8,0.103505,0.10324,-25.4663,17,0.0124203,10,-0.00262914,-1.59403,-0.21463,-0.274892,272.783,0.10324,
2,0,0,1,0,32717.9,0.0931008,0.09279,-28.0141,17,0.0117236,10,-0.00259943,-1.55262,-0.292962,-0.201392,219.963,0.09279,
2,0,0,1,0,32717.9,0.0827051,0.0824108,-29.9676,17,0.0109682,10,-0.00246966,-1.52335,-0.44271,-0.13327,155.642,0.0824108,
2,0,0,1,0,32717.9,0.0723065,0.0720082,-31.1922,17,0.0101712,10,-0.00224609,-1.50595,-0.929726,-0.0634595,77.1643,0.0720082,
2,0,0,1,0,32718,0.0618997,0.061578,-31.6645,17,0.00935251,10,-0.00194984,-1.49943,-5.01716,-0.0117596,14.5248,0.061578,
2,0,0,1,0,32718,0.0515011,0.051186,-31.6169,17,0.00852913,10,-0.00161835,-1.50008,3.42096,0.0172466,-21.2624,0.05118604,
2,0,0,1,0,32718,0.0411053,0.0407824,-31.2791,17,0.0077113,10,-0.00127564,-1.50475,1.7773,0.0331964,-40.5185,0.0407824,
2,0,0,1,0,32718,0.0307068,0.0304159,-30.8134,17,0.00690379,10,-0.000937216,-1.51126,1.50144,0.0392956,-47.2822,0.0304159,
2,0,0,1,0,32718.1,0.0202999,0.0199687,-30.2855,17,0.00610931,10,-0.000604763,-1.51877,1.24296,0.0474673,-56.0675,0.0199687,
2,0,0,1,0,32718.1,0.00990136,0.00954918,-29.5823,17,0.0053309,10,-0.000282486,-1.52897,0.862977,0.068368,-78.8529,0.009549181,
2,0,0,1,0,32718.1,-0.000494411,-0.000853406,-28.6898,17,0.00457321,10,2.44841e-05,-1.54227,0.699383,0.0843601,-94.3584,-0.000853406,
2,0,0,1,0,32718.1,-0.010893,-0.0112878,-27.5852,17,0.00384154,10,0.000311376,-1.55932,0.58998,0.100003,-107.666,-0.01128781,
2,0,0,1,0,32718.2,-0.0212998,-0.0217212,-26.5109,17,0.00313865,10,0.000575847,-1.57658,0.628467,0.0938792,-97.1295,-0.0217212,
2,0,0,1,0,32718.2,-0.0316984,-0.0320442,-25.6196,17,0.00246172,10,0.00082096,-1.59143,0.810647,0.0727814,-72.7735,-0.0320442,
2,0,0,1,0,32718.2,-0.0420942,-0.042486,-24.9992,17,0.00180436,10,0.00106212,-1.60207,1.21987,0.0483659,-47.2314,-0.042486,
2,0,0,1,0,32718.2,-0.0524927,-0.0528335,-24.6788,17,0.00115903,10,0.00130387,-1.60768,3.25132,0.0181465,-17.4924,-0.0528335,
2,0,0,1,0,32718.3,-0.0628996,-0.0632403,-24.6214,17,0.00051883,10,0.00155706,-1.60869,-16.4824,-0.00357957,3.43748,-0.0632403,
2,0,0,1,0,32718.3,-0.0732982,-0.07368,-24.7276,17,-0.000122143,10,0.00182193,-1.60682,-2.7524,-0.0214359,20.6975,-0.07368,
2,0,0,1,0,32718.3,-0.0836939,-0.0840773,-25.0384,17,-0.000768753,10,0.00210516,-1.60139,-1.47097,-0.0401097,39.2017,-0.0840773,
2,0,0,1,0,32718.3,-0.0940925,-0.0944608,-25.4901,17,-0.00142534,10,0.00240781,-1.59363,-1.13035,-0.0521961,51.9219,-0.09446083,
2,0,0,1,1,32718.4,-0.0978574,-0.0982751,-20.9719,17,-0.00193448,10,0.00206101,-1.67836,-0.0281418,-2.09652,1689.65,-0.0982751,
2,0,0,1,1,32718.4,-0.0874588,-0.087846,-8.79476,17,-0.00230269,10,0.000772585,-2.05578,-0.0229028,-2.5761,874.147,-0.087846,
2,0,0,1,1,32718.4,-0.0770519,-0.0774721,-1.37132,17,-0.00242817,10,0.000106239,-2.86286,-0.00722518,-8.16588,594.908,-0.0774721,
2,1,0,1,1,32718.4,-0.0666562,-0.0670896,3.93633,17,-0.00239073,10,-0.000264087,-2.40491,0.0194042,3.04058,440.345,-0.06708961,
2,1,0,1,1,32718.5,-0.0562576,-0.0567475,7.95761,17,-0.00223336,10,-0.000451574,-2.09922,0.05377,1.09727,336.992,-0.0567475,
2,1,0,1,1,32718.5,-0.0458563,-0.0463141,11.04,17,-0.0019844,10,-0.000511309,-1.95703,0.0985941,0.598413,256.294,-0.0463141,
2,1,0,1,1,32718.5,-0.0354522,-0.0358288,13.3723,17,-0.00166545,10,-0.000479112,-1.8738,0.158206,0.372932,193.967,-0.0358288,
2,1,0,1,1,32718.5,-0.0250564,-0.0254623,15.1189,17,-0.00129368,10,-0.000384961,-1.82048,0.238655,0.247219,145.828,-0.0254623,
2,1,0,1,1,32718.6,-0.0146579,-0.015065,16.4404,17,-0.000882256,10,-0.000247675,-1.78409,0.351304,0.167946,107.621,-0.01506498,
2,1,0,1,1,32718.6,-0.00425653,-0.00465178,17.3949,17,-0.000441618,10,-8.09175e-05,-1.75958,0.522886,0.112835,76.545,-0.004651784,
2,1,0,0,1,32718.6,-7.54729e-05,-0.000478022,17.6866,17,-0.000257292,10,-8.45459e-06,-1.75236, , , ,-0.000478022,