Folder: Figs_alphaMnO2_OER_Tafel_sleope/Figure_codes/Fig_S3_S4

Note: README.md
# Figs_alphaMnO2_OER_Tafel_sleope
Figures and analyses of "A Non-Rate-Determining Redox Process Dictates the Oxygen Evolution Tafel Slope of MnO2"

File: 20221101_1-115_002_TrumpetPlot_ParaChange_04_CV_C01_1.csv
mode,ox/red,error,control changes,counter inc.,time/s,control/V,Ewe/V,<I>/mA,cycle number,(Q-Qo)/C,I Range,P/W,log(|I|),Tafel slope mV/dec,alpha_eff,E-IR/V,
2,0,0,1,0,1590.43,2.44065e-05,-0.000287149,-0.362085,2,0.0000000E+000,11,1.03972e-07,-3.44119, , ,2.51873e-06,
2,0,0,1,0,1597.2,0.00679121,0.00647292,-0.098719,2,-0.000785845,11,-6.39e-07,-4.0056,-0.033023,-1.78663,0.0065519,
2,0,0,1,0,1604.19,0.0137828,0.013494,-0.0663749,2,-0.0011946,11,-8.9566e-07,-4.178,-0.0459581,-1.28378,0.0135471,
2,0,0,1,0,1611.18,0.0207743,0.020519,-0.0491169,2,-0.00144067,11,-1.00783e-06,-4.30877,-0.0553247,-1.06643,0.0205583,
2,0,0,1,0,1618.17,0.0277659,0.0274701,-0.0377288,2,-0.00158675,11,-1.03641e-06,-4.42333,-0.053645,-1.09982,0.0275002,
2,0,0,1,0,1625.16,0.0347575,0.0344465,-0.0284049,2,-0.00165973,11,-9.78451e-07,-4.54661,-0.0468086,-1.26045,0.0344693,
2,0,0,1,0,1632.15,0.041749,0.0414728,-0.0193947,2,-0.00167243,11,-8.0435e-07,-4.71232,-0.0482598,-1.22255,0.0414883,
2,0,0,1,0,1639.15,0.0487405,0.0484852,-0.0123502,2,-0.00163117,11,-5.98803e-07,-4.90832,-0.0272921,-2.1618,0.0484951,
2,0,0,1,0,1646.14,0.0557321,0.0554828,-0.00393037,2,-0.00153591,11,-2.18068e-07,-5.40557,-0.00727656,-8.10823,0.055486,
2,0,0,1,0,1653.13,0.0627237,0.0624115,0.00338677,2,-0.00138445,11,2.11373e-07,-5.47021,0.00637198,9.25928,0.0624088,
2,0,0,1,0,1660.12,0.0697152,0.0694027,0.0120662,2,-0.00117065,11,8.37427e-07,-4.91843,0.0260162,2.26782,0.0693931,
2,1,0,1,0,1667.11,0.0767068,0.0764248,0.0225317,2,-0.000890204,11,1.72198e-06,-4.64721,0.0321015,1.83792,0.0764068,
2,1,0,1,0,1674.1,0.0836983,0.0834277,0.0318294,2,-0.000541296,11,2.65546e-06,-4.49717,0.0481985,1.2241,0.0834023,
2,1,0,1,0,1681.1,0.0906899,0.0903999,0.0409377,2,-0.000126941,11,3.70076e-06,-4.38788,0.0606401,0.972954,0.0903671,
2,1,0,1,0,1688.09,0.0976815,0.0973817,0.050505,2,0.000354305,11,4.91826e-06,-4.29667,0.0809683,0.72868,0.0973413,
2,1,0,1,0,1695.08,0.104673,0.104364,0.0616609,2,0.000905744,11,6.4352e-06,-4.20999,0.0739246,0.798111,0.104315,
2,1,0,1,0,1702.07,0.111664,0.111373,0.0772554,2,0.00154733,11,8.60413e-06,-4.11207,0.0642611,0.918129,0.111311,
2,1,0,1,0,1709.06,0.118656,0.118377,0.0983777,2,0.00231663,11,1.16456e-05,-4.0071,0.0771533,0.764712,0.118298,
2,1,0,1,0,1716.05,0.125648,0.12538,0.125152,2,0.00326018,11,1.56915e-05,-3.90256,0.0776087,0.760224,0.125279,
2,1,0,1,0,1723.04,0.132639,0.132364,0.153259,2,0.00440168,11,2.02861e-05,-3.81457,0.104889,0.562501,0.132242,
2,1,0,1,0,1730.04,0.139631,0.139323,0.166932,2,0.00569633,11,2.32574e-05,-3.77746,0.574075,0.102774,0.139189,
2,1,0,1,0,1737.03,0.146622,0.146338,0.163464,2,0.00703585,11,2.39211e-05,-3.78658,-0.159082,-0.370878,0.146208,
2,1,0,1,0,1744.02,0.153614,0.153324,0.139588,2,0.00827623,11,2.14023e-05,-3.85515,-0.0735117,-0.802594,0.153213,
2,1,0,1,0,1751.01,0.160605,0.160341,0.107318,2,0.00930386,11,1.72075e-05,-3.96933,-0.0529429,-1.11441,0.160255,
2,1,0,1,0,1758,0.167597,0.167304,0.0805644,2,0.0101141,11,1.34787e-05,-4.09386,-0.0604991,-0.975222,0.167239,
2,1,0,1,0,1764.99,0.174588,0.174301,0.0645533,2,0.0107785,11,1.12517e-05,-4.19008,-0.0889985,-0.662933,0.17425,
2,1,0,1,0,1771.99,0.18158,0.181285,0.0557426,2,0.0113565,11,1.01053e-05,-4.25381,-0.123927,-0.476086,0.181241,
2,1,0,1,0,1778.98,0.188572,0.188283,0.0503099,2,0.011883,11,9.4725e-06,-4.29835,-0.209581,-0.281514,0.188243,
2,1,0,1,0,1785.97,0.195563,0.195266,0.0470291,2,0.0123775,11,9.18317e-06,-4.32763,-0.404265,-0.145944,0.195228,
2,1,0,1,0,1792.96,0.202555,0.202256,0.0451247,2,0.0128521,11,9.12674e-06,-4.34559,-0.389134,-0.151619,0.20222,
2,1,0,1,0,1799.95,0.209546,0.209288,0.0440027,2,0.0133152,11,9.20925e-06,-4.35652,-0.378195,-0.156004,0.209253,
2,1,0,1,0,1806.94,0.216538,0.216288,0.0440825,2,0.0137707,11,9.53452e-06,-4.35573,-2.26719,-0.0260233,0.216253,
2,1,0,1,0,1813.93,0.223529,0.223265,0.0432509,2,0.0142233,11,9.65639e-06,-4.36401,-2.33224,-0.0252976,0.22323,
2,1,0,1,0,1820.93,0.230521,0.230243,0.0438088,2,0.0146749,11,1.00867e-05,-4.35844,0.934582,0.0631298,0.230208,
2,1,0,1,0,1827.92,0.237512,0.237205,0.0439707,2,0.0151273,11,1.04301e-05,-4.35684,3.60169,0.0163812,0.237169,
2,1,0,1,0,1834.91,0.244504,0.244236,0.0449041,2,0.0155813,11,1.09672e-05,-4.34771,1.05836,0.0557469,0.2442,
2,1,0,1,0,1841.9,0.251496,0.251214,0.0450905,2,0.0160386,11,1.13273e-05,-4.34592,4.76643,0.0123782,0.251178,
2,1,0,1,0,1848.89,0.258487,0.258215,0.0452019,2,0.0164986,11,1.16718e-05,-4.34484,0.378999,0.155673,0.258178,
2,1,0,1,0,1855.88,0.265479,0.265198,0.0461446,2,0.0169622,11,1.22375e-05,-4.33588,0.731964,0.0806051,0.265161,
2,1,0,1,0,1862.88,0.27247,0.272201,0.0468564,2,0.0174292,11,1.27544e-05,-4.32923,-1.10929,-0.0531869,0.272164,
2,1,0,1,0,1869.87,0.279462,0.279137,0.0477537,2,0.0179003,11,1.33298e-05,-4.32099,0.429611,0.137334,0.279099,
2,1,0,1,0,1876.86,0.286453,0.286143,0.0478952,2,0.0183754,11,1.37049e-05,-4.31971,7.79026,0.00757356,0.286104,
2,1,0,1,0,1883.85,0.293445,0.293221,0.0491387,2,0.0188543,11,1.44085e-05,-4.30858,-3.70187,-0.0159379,0.293181,
2,1,0,0,0,1890.42,0.300012,0.299766,0.0482622,2,0.019308,11,1.44673e-05,-4.31639,0.000523544,112.694,0.299727,
2,1,0,1,0,1897.18,0.293245,0.292904,0.0131794,2,0.0193153,11,3.86029e-06,-4.88011,0.023492,2.51149,0.292893,
2,1,0,1,0,1904.18,0.286254,0.285941,0.00597952,2,0.0192439,11,1.70979e-06,-5.22333,0.0183088,3.22249,0.285936,
2,1,0,1,0,1911.17,0.279262,0.279002,0.000808302,2,0.0191273,11,2.25518e-07,-6.09243,0.014065,4.19482,0.279001,
2,0,0,1,0,1918.16,0.272271,0.272019,-0.00367146,2,0.0189757,11,-9.98707e-07,-5.43516,-0.0201091,-2.93399,0.272022,
2,0,0,1,0,1925.15,0.265279,0.265002,-0.00823436,2,0.0187944,11,-2.18212e-06,-5.08437,-0.0301257,-1.95846,0.265009,
2,0,0,1,0,1932.14,0.258287,0.258002,-0.0106062,2,0.0185865,11,-2.73642e-06,-4.97444,-0.0513565,-1.14883,0.258011,
2,0,0,1,0,1939.13,0.251296,0.251036,-0.0147531,2,0.0183534,11,-3.70354e-06,-4.83112,-0.0841336,-0.701266,0.251047,
2,0,0,1,0,1946.13,0.244304,0.244023,-0.0180474,2,0.0180968,11,-4.40399e-06,-4.74358,-0.143449,-0.411295,0.244038,
2,0,0,1,0,1953.12,0.237313,0.237039,-0.0207936,2,0.0178175,11,-4.9289e-06,-4.68207,-0.120188,-0.490899,0.237056,
2,0,0,1,0,1960.11,0.230321,0.230041,-0.0236235,2,0.0175152,11,-5.43436e-06,-4.62666,-0.0970795,-0.607749,0.230059,
2,0,0,1,0,1967.1,0.22333,0.223085,-0.0273939,2,0.0171896,11,-6.11117e-06,-4.56235,-0.169927,-0.347208,0.223107,
2,0,0,1,0,1974.09,0.216338,0.216039,-0.0302472,2,0.0168399,11,-6.53458e-06,-4.51931,-0.122454,-0.481813,0.216063,
2,0,0,1,0,1981.08,0.209347,0.209028,-0.034016,2,0.016464,11,-7.11027e-06,-4.46832,-0.112901,-0.522582,0.209055,
2,0,0,1,0,1988.08,0.202355,0.20209,-0.0380937,2,0.0160585,11,-7.69838e-06,-4.41915,-0.160437,-0.367746,0.202121,
2,0,0,1,0,1995.07,0.195363,0.195071,-0.0424829,2,0.0156201,11,-8.2872e-06,-4.37179,-0.122487,-0.481685,0.195105,
2,0,0,1,0,2002.06,0.188372,0.188054,-0.0491042,2,0.0151409,11,-9.23423e-06,-4.30888,-0.12294,-0.479909,0.188093,
2,0,0,1,0,2009.05,0.18138,0.181086,-0.0574636,2,0.0146104,11,-1.04059e-05,-4.24061,-0.0969885,-0.608319,0.181132,
2,0,0,1,0,2016.04,0.174389,0.174049,-0.0678521,2,0.0140119,11,-1.18096e-05,-4.16844,-0.090625,-0.651034,0.174103,
2,0,0,1,0,2023.03,0.167397,0.167102,-0.0848373,2,0.0133163,11,-1.41765e-05,-4.07141,-0.0741559,-0.795622,0.16717,
2,0,0,1,0,2030.02,0.160406,0.160124,-0.110344,2,0.0124744,11,-1.76687e-05,-3.95725,-0.0597676,-0.987157,0.160212,
2,0,0,1,0,2037.02,0.153414,0.153152,-0.144399,2,0.0114175,11,-2.2115e-05,-3.84043,-0.0627722,-0.939906,0.153267,
2,0,0,1,0,2044.01,0.146423,0.146131,-0.179042,2,0.0101084,11,-2.61636e-05,-3.74704,-0.0989658,-0.596165,0.146274,
2,0,0,1,0,2051,0.139431,0.139127,-0.199701,2,0.0085991,11,-2.77838e-05,-3.69962,-0.280129,-0.210617,0.139286,
2,0,0,1,0,2057.99,0.132439,0.132132,-0.203443,2,0.00700734,11,-2.68813e-05,-3.69156,0.532247,0.110851,0.132295,
2,0,0,1,0,2064.98,0.125448,0.125104,-0.189691,2,0.00545765,11,-2.3731e-05,-3.72195,0.179726,0.328277,0.125256,
2,0,0,1,0,2071.97,0.118456,0.11816,-0.168556,2,0.0040313,11,-1.99166e-05,-3.77326,0.17367,0.339725,0.118295,
2,0,0,1,0,2078.97,0.111465,0.111152,-0.152434,2,0.00273857,11,-1.69434e-05,-3.81692,0.165727,0.356007,0.111274,
2,0,0,1,0,2085.96,0.104473,0.104212,-0.141483,2,0.00154875,11,-1.47442e-05,-3.84929,0.230878,0.255546,0.104325,
2,0,0,1,0,2092.95,0.0974816,0.097162,-0.132181,2,0.000427491,11,-1.28429e-05,-3.87883,0.30848,0.19126,0.0972678,
2,0,0,1,0,2099.94,0.0904901,0.0901666,-0.12687,2,-0.000643808,11,-1.14394e-05,-3.89664,0.249376,0.236591,0.0902681,
2,0,0,1,0,2106.93,0.0834986,0.0831924,-0.120461,2,-0.0016705,11,-1.00214e-05,-3.91915,0.312044,0.189076,0.0832887,
2,0,0,1,0,2113.92,0.076507,0.0761819,-0.114349,2,-0.00265234,11,-8.71135e-06,-3.94177,0.378172,0.156014,0.0762734,
2,0,0,1,0,2120.91,0.0695154,0.0692553,-0.107757,2,-0.00359031,11,-7.46271e-06,-3.96756,0.359534,0.164101,0.0693415,
2,0,0,1,0,2127.91,0.0625239,0.0622154,-0.103044,2,-0.00448953,11,-6.41093e-06,-3.98698,0.443586,0.133007,0.0622978,
2,0,0,1,0,2134.9,0.0555323,0.0552389,-0.099027,2,-0.00535731,11,-5.47014e-06,-4.00425,0.490813,0.120209,0.0553181,
2,0,0,1,0,2141.89,0.0485408,0.048254,-0.0968822,2,-0.00620367,11,-4.67496e-06,-4.01376,1.17751,0.0501057,0.0483316,
2,0,0,1,0,2148.88,0.0415492,0.0412564,-0.0963297,2,-0.00703817,11,-3.97421e-06,-4.01624,5.44407,0.0108375,0.0413334,
2,0,0,1,0,2155.87,0.0345576,0.0342778,-0.0957273,2,-0.00787052,11,-3.28132e-06,-4.01896,-0.759604,-0.0776721,0.0343544,
2,0,0,1,0,2162.86,0.0275661,0.0272495,-0.0970599,2,-0.00870694,11,-2.64483e-06,-4.01296,-1.35453,-0.0435575,0.0273271,
2,0,0,1,0,2169.86,0.0205746,0.0202615,-0.0991331,2,-0.00955416,11,-2.00858e-06,-4.00378,-0.760633,-0.077567,0.0203408,
2,0,0,1,0,2176.85,0.013583,0.0133147,-0.101413,2,-0.010418,11,-1.35028e-06,-3.99391,-0.597678,-0.0987153,0.0133958,
2,0,0,1,0,2183.84,0.00659143,0.0062608,-0.105645,2,-0.011304,11,-6.61419e-07,-3.97615,-0.503347,-0.117215,0.00634531,
2,0,0,1,0,2190.23,0.000199235,-0.000170761,-0.109981,2,-0.0121418,11,1.87804e-08,-3.95868, , ,-8.27759e-05,

File: 20221101_1-115_002_TrumpetPlot_ParaChange_05_CV_C01_1.csv
mode,ox/red,error,control changes,counter inc.,time/s,control/V,Ewe/V,<I>/mA,cycle number,(Q-Qo)/C,I Range,P/W,log(|I|),Tafel slope mV/dec,alpha_eff,E-IR/V,
2,1,0,1,0,2190.51,2.44065e-05,-0.000325324,0.0686023,2,0.0000000E+000,11,-2.23179e-08,-4.16366, , ,-0.000380205,
2,1,0,1,0,2191.87,0.00679123,0.00648567,0.208461,2,0.000283259,11,1.35201e-06,-3.68098,0.131516,0.448613,0.0063189,
2,1,0,1,0,2193.27,0.0137828,0.0134536,0.227653,2,0.000619643,11,3.06275e-06,-3.64273,0.193445,0.304996,0.0132715,
2,1,0,1,0,2194.66,0.0207747,0.0205332,0.240194,2,0.000976665,11,4.93196e-06,-3.61944,0.370033,0.159445,0.0203411,
2,1,0,0,0,2196.06,0.0277659,0.0274541,0.248355,2,0.00134763,11,6.81837e-06,-3.60493,0.361839,0.163056,0.0272555,
2,1,0,1,0,2197.46,0.0347576,0.0344721,0.256422,2,0.00173111,11,8.83942e-06,-3.59104,0.504977,0.116837,0.034267,
2,1,0,1,0,2198.86,0.041749,0.0414314,0.267804,2,0.00212763,11,1.10955e-05,-3.57218,0.590302,0.0999488,0.0412171,
2,1,0,1,0,2200.26,0.0487404,0.0484267,0.282252,2,0.00254033,11,1.36685e-05,-3.54936,0.287148,0.205469,0.0482009,
2,1,0,0,0,2201.66,0.0557321,0.0554425,0.299521,2,0.00297447,11,1.66062e-05,-3.52357,0.271551,0.217271,0.0552029,
2,1,0,1,0,2203.05,0.0627233,0.0624091,0.321427,2,0.00343677,11,2.006e-05,-3.49292,0.217586,0.271157,0.062152,
2,1,0,1,0,2204.45,0.0697152,0.0694028,0.347568,2,0.00393491,11,2.41222e-05,-3.45896,0.197148,0.299267,0.0691247,
2,1,0,1,0,2205.85,0.0767068,0.0764492,0.382262,2,0.00447497,11,2.92236e-05,-3.41764,0.200258,0.29462,0.0761434,
2,1,0,1,0,2207.25,0.0836986,0.0834046,0.413516,2,0.00505975,11,3.44891e-05,-3.38351,0.198572,0.297121,0.0830738,
2,1,0,0,0,2208.65,0.0906899,0.0903903,0.443081,2,0.00568838,11,4.00502e-05,-3.35352,0.183146,0.322148,0.0900359,
2,1,0,1,0,2210.05,0.0976815,0.0973965,0.478111,2,0.00636103,11,4.65664e-05,-3.32047,0.224828,0.262423,0.097014,
2,1,0,1,0,2211.44,0.104673,0.104408,0.519514,2,0.00708168,11,5.42413e-05,-3.2844,0.176239,0.334772,0.103992,
2,1,0,1,0,2212.84,0.111664,0.111344,0.573256,2,0.00786849,11,6.38285e-05,-3.24165,0.130856,0.450878,0.110885,
2,1,0,0,0,2214.24,0.118656,0.118389,0.659406,2,0.00875496,11,7.80666e-05,-3.18085,0.118302,0.498724,0.117862,
2,1,0,1,0,2215.64,0.125647,0.125346,0.773826,2,0.00978348,11,9.69963e-05,-3.11136,0.105143,0.56114,0.124727,
2,1,0,1,0,2217.04,0.132639,0.132375,0.889089,2,0.0109771,11,0.000117693,-3.05105,0.145324,0.405988,0.131664,
2,1,0,1,0,2218.44,0.139631,0.13931,0.955882,2,0.0123044,11,0.000133164,-3.0196,0.474126,0.124439,0.138545,
2,1,0,1,0,2219.83,0.146623,0.14631,0.948246,2,0.0136799,11,0.000138738,-3.02308,-0.323508,-0.182376,0.145551,
2,1,0,0,0,2221.23,0.153614,0.153343,0.854741,2,0.0149826,11,0.000131069,-3.06817,-0.0995769,-0.592507,0.15266,
2,1,0,1,0,2222.63,0.160606,0.160334,0.691243,2,0.0160936,11,0.00011083,-3.16037,-0.0691966,-0.852644,0.159781,
2,1,0,1,0,2224.03,0.167597,0.167299,0.544591,2,0.0169793,11,9.11098e-05,-3.26393,-0.0764538,-0.771708,0.166864,
2,1,0,1,0,2225.43,0.174588,0.174318,0.449804,2,0.0176978,11,7.84089e-05,-3.34698,-0.101106,-0.583547,0.173958,
2,1,0,0,0,2226.83,0.18158,0.181305,0.395025,2,0.0183134,11,7.16201e-05,-3.40338,-0.14194,-0.415669,0.180989,
2,1,0,1,0,2228.22,0.188571,0.188278,0.357428,2,0.0188654,11,6.72959e-05,-3.44681,-0.178693,-0.330175,0.187992,
2,1,0,1,0,2229.62,0.195563,0.195263,0.33214,2,0.0193754,11,6.48549e-05,-3.47868,-0.230344,-0.256139,0.194998,
2,1,0,1,0,2231.02,0.202555,0.202258,0.314834,2,0.0198563,11,6.36777e-05,-3.50192,-0.366363,-0.161042,0.202006,
2,1,0,1,0,2232.42,0.209547,0.209257,0.302595,2,0.0203164,11,6.33201e-05,-3.51914,-0.344588,-0.171219,0.209015,
2,1,0,0,0,2233.82,0.216538,0.216227,0.291175,2,0.0207606,11,6.29597e-05,-3.53585,-0.445012,-0.132581,0.215994,
2,1,0,1,0,2235.22,0.223529,0.223232,0.285814,2,0.0211931,11,6.38028e-05,-3.54392,-0.506836,-0.116408,0.223003,
2,1,0,1,0,2236.61,0.230521,0.230267,0.279016,2,0.0216163,11,6.42483e-05,-3.55437,-1.38431,-0.0426204,0.230044,
2,1,0,1,0,2238.01,0.237512,0.237254,0.273079,2,0.0220322,11,6.47892e-05,-3.56371,1.59397,0.0370144,0.237036,
2,1,0,0,0,2239.41,0.244504,0.2442,0.269995,2,0.0224422,11,6.59328e-05,-3.56864,-0.988251,-0.0597014,0.243984,
2,1,0,1,0,2240.81,0.251495,0.251205,0.26571,2,0.0228474,11,6.67476e-05,-3.57559,-1.23789,-0.0476617,0.250992,
2,1,0,1,0,2242.21,0.258488,0.258183,0.262931,2,0.0232483,11,6.78843e-05,-3.58016,-1.85787,-0.0317569,0.257973,
2,1,0,1,0,2243.61,0.265479,0.265259,0.260346,2,0.0236455,11,6.90591e-05,-3.58445,-0.690344,-0.0854647,0.26505,
2,1,0,1,0,2245,0.27247,0.272175,0.259815,2,0.0240395,11,7.07151e-05,-3.58534,-4.11445,-0.0143397,0.271967,
2,1,0,0,0,2246.4,0.279462,0.279138,0.257363,2,0.0244306,11,7.18399e-05,-3.58945,-1.17785,-0.0500911,0.278933,
2,1,0,1,0,2247.8,0.286453,0.28616,0.255326,2,0.0248189,11,7.30641e-05,-3.59291,-1.78755,-0.0330062,0.285956,
2,1,0,1,0,2249.2,0.293445,0.293134,0.253679,2,0.0252046,11,7.43619e-05,-3.59572,-1.40718,-0.0419278,0.292931,
2,1,0,0,0,2250.51,0.300012,0.299746,0.251699,2,0.0255652,11,7.54458e-05,-3.59912,1.90285e-05,3100.6,0.299545,
2,0,0,1,0,2251.87,0.293245,0.292949,-0.0320976,2,0.0255271,11,-9.40299e-06,-4.49353,-0.0149076,-3.95772,0.292975,
2,0,0,1,0,2253.26,0.286253,0.285966,-0.0580891,2,0.0254317,11,-1.66115e-05,-4.23591,-0.0442348,-1.33379,0.286013,
2,0,0,1,0,2254.66,0.279262,0.278975,-0.0763054,2,0.0253064,11,-2.12873e-05,-4.11744,-0.0665757,-0.886209,0.279036,
2,0,0,1,0,2256.06,0.27227,0.271972,-0.092252,2,0.0251586,11,-2.50899e-05,-4.03502,-0.11344,-0.520097,0.272046,
2,0,0,0,0,2257.46,0.265279,0.264944,-0.104378,2,0.0249918,11,-2.76542e-05,-3.98139,-0.118622,-0.497379,0.265027,
2,0,0,1,0,2258.86,0.258287,0.258024,-0.115646,2,0.0248081,11,-2.98395e-05,-3.93687,-0.159346,-0.370263,0.258116,
2,0,0,1,0,2260.26,0.251296,0.250982,-0.125779,2,0.0246086,11,-3.15682e-05,-3.90039,-0.20335,-0.29014,0.251082,
2,0,0,1,0,2261.65,0.244304,0.24401,-0.138414,2,0.0243946,11,-3.37744e-05,-3.85882,-0.224548,-0.26275,0.244121,
2,0,0,0,0,2263.05,0.237313,0.237002,-0.146994,2,0.024166,11,-3.48379e-05,-3.8327,-0.256925,-0.229639,0.23712,
2,0,0,1,0,2264.45,0.230321,0.230056,-0.156753,2,0.023923,11,-3.60619e-05,-3.80478,-0.275592,-0.214085,0.230181,
2,0,0,1,0,2265.85,0.223329,0.223044,-0.168692,2,0.0236649,11,-3.76256e-05,-3.77291,-0.23514,-0.250914,0.223179,
2,0,0,1,0,2267.25,0.216338,0.216034,-0.178016,2,0.0233906,11,-3.84574e-05,-3.74954,-0.217901,-0.270765,0.216176,
2,0,0,1,0,2268.65,0.209346,0.209018,-0.195333,2,0.0230986,11,-4.08282e-05,-3.70922,-0.177448,-0.332491,0.209174,
2,0,0,0,0,2270.04,0.202355,0.20208,-0.210126,2,0.0227853,11,-4.24622e-05,-3.67752,-0.173463,-0.34013,0.202248,
2,0,0,1,0,2271.44,0.195363,0.195124,-0.230907,2,0.0224471,11,-4.50556e-05,-3.63656,-0.138999,-0.424464,0.195309,
2,0,0,1,0,2272.84,0.188372,0.188061,-0.258871,2,0.022077,11,-4.86835e-05,-3.58692,-0.136954,-0.430801,0.188268,
2,0,0,1,0,2274.24,0.181381,0.181101,-0.292688,2,0.0216648,11,-5.30061e-05,-3.5336,-0.115221,-0.512058,0.181335,
2,0,0,0,0,2275.64,0.174389,0.174094,-0.342373,2,0.0211942,11,-5.9605e-05,-3.4655,-0.0899361,-0.656022,0.174367,
2,0,0,1,0,2277.04,0.167398,0.167133,-0.417754,2,0.0206377,11,-6.98206e-05,-3.37908,-0.0728647,-0.80972,0.167468,
2,0,0,1,0,2278.43,0.160405,0.160055,-0.534108,2,0.0199494,11,-8.54869e-05,-3.27237,-0.0618147,-0.954465,0.160483,
2,0,0,1,0,2279.83,0.153414,0.153141,-0.690796,2,0.019067,11,-0.000105789,-3.16065,-0.0672619,-0.877169,0.153694,
2,0,0,1,0,2281.23,0.146422,0.146155,-0.846438,2,0.0179579,11,-0.000123711,-3.0724,-0.100535,-0.58686,0.146832,
2,0,0,0,0,2282.63,0.139431,0.139141,-0.940886,2,0.0166643,11,-0.000130916,-3.02646,-0.25867,-0.22809,0.139894,
2,0,0,1,0,2284.03,0.132439,0.132161,-0.961129,2,0.0152912,11,-0.000127024,-3.01722,0.557891,0.105755,0.13293,
2,0,0,1,0,2285.43,0.125448,0.125128,-0.895534,2,0.0139561,11,-0.000112056,-3.04792,0.16073,0.367075,0.125845,
2,0,0,1,0,2286.82,0.118456,0.118212,-0.791482,2,0.0127466,11,-9.35627e-05,-3.10156,0.136132,0.433403,0.118845,
2,0,0,0,0,2288.22,0.111465,0.111207,-0.696313,2,0.0116812,11,-7.7435e-05,-3.1572,0.137681,0.428528,0.111764,
2,0,0,1,0,2289.62,0.104474,0.104186,-0.631655,2,0.0107303,11,-6.58099e-05,-3.19952,0.19124,0.308512,0.104692,
2,0,0,1,0,2291.02,0.0974812,0.0971437,-0.586415,2,0.00985552,11,-5.69665e-05,-3.2318,0.254978,0.231392,0.0976128,
2,0,0,1,0,2292.42,0.0904901,0.090157,-0.552737,2,0.00903174,11,-4.98332e-05,-3.25748,0.249561,0.236415,0.0905992,
2,0,0,1,0,2293.82,0.0834983,0.0832111,-0.525466,2,0.00824935,11,-4.37246e-05,-3.27946,0.271701,0.21715,0.0836315,
2,0,0,0,0,2295.21,0.076507,0.0761957,-0.496242,2,0.00750671,11,-3.78115e-05,-3.30431,0.251595,0.234504,0.0765927,
2,0,0,1,0,2296.61,0.0695154,0.0692361,-0.464089,2,0.00680591,11,-3.21317e-05,-3.3334,0.271175,0.217572,0.0696074,
2,0,0,1,0,2298.01,0.0625239,0.0622079,-0.439167,2,0.00614498,11,-2.73196e-05,-3.35737,0.274159,0.215203,0.0625592,
2,0,0,1,0,2299.41,0.0555325,0.0552241,-0.418423,2,0.00551765,11,-2.3107e-05,-3.37838,0.367523,0.160534,0.0555589,
2,0,0,0,0,2300.81,0.0485408,0.0482689,-0.405108,2,0.00491494,11,-1.95541e-05,-3.39243,0.46711,0.126309,0.0485929,
2,0,0,1,0,2302.21,0.0415496,0.0412408,-0.396268,2,0.00432785,11,-1.63424e-05,-3.40201,2.557,0.0230739,0.0415578,
2,0,0,1,0,2303.6,0.0345572,0.0342415,-0.391876,2,0.00374785,11,-1.34184e-05,-3.40685,2.48244,0.0237669,0.034555,
2,0,0,1,0,2305,0.0275661,0.0272368,-0.395862,2,0.00316841,11,-1.0782e-05,-3.40246,-2.94372,-0.0200427,0.0275534,
2,0,0,1,0,2306.4,0.0205744,0.0202728,-0.400747,2,0.00258472,11,-8.12425e-06,-3.39713,-0.951247,-0.0620238,0.0205934,
2,0,0,0,0,2307.8,0.013583,0.0132765,-0.408815,2,0.001992,11,-5.42764e-06,-3.38847,-1.8788,-0.0314031,0.0136036,
2,0,0,1,0,2309.2,0.00659147,0.0063214,-0.416494,2,0.00138764,11,-2.63282e-06,-3.38039,-0.768113,-0.0768116,0.00665459,
2,0,0,0,0,2310.48,0.000199195,-0.000151629,-0.42648,2,0.000819475,11,6.46667e-08,-3.3701, , ,0.000189555,