Folder: Figs_alphaMnO2_OER_Tafel_sleope/Figure_codes/Fig_3-5/rawdata_trumpetplot_data/after 10th (part 170)

File: 20221101_1-115_003_TrumpetPlot_ParaChange_from10_every3_11_CV_C01_27.csv
mode,ox/red,error,control changes,counter inc.,time/s,control/V,Ewe/V,<I>/mA,cycle number,(Q-Qo)/C,I Range,P/W,log(|I|),Tafel slope mV/dec,alpha_eff,dI/d(E-IR),E-IR/V,
2,1,0,1,0,54388,2.44065e-05,-0.000344411,9.43918,28,0.0000000E+000,10,-3.25095e-06,-2.02507, , , ,-0.000344411,
2,1,0,1,0,54388.1,0.0101427,0.00977293,12.6972,28,0.000286252,10,0.000124089,-1.89629,0.136809,0.431259,212.546,0.00977293,
2,1,0,1,0,54388.1,0.0205441,0.020166,14.5052,28,0.000641389,10,0.000292511,-1.83848,0.227364,0.259496,146.684,0.020166,
2,1,0,1,0,54388.1,0.0309482,0.0305611,15.8605,28,0.00103697,10,0.000484715,-1.79968,0.312795,0.188622,116.661,0.0305611,
2,1,0,1,0,54388.1,0.0413439,0.0409828,16.9845,28,0.00146434,10,0.000696072,-1.76995,0.385675,0.152978,101.335,0.0409828,
2,1,0,1,0,54388.2,0.0517425,0.0513727,18.0048,28,0.00191943,10,0.000924954,-1.74461,0.426006,0.138496,97.3005,0.05137267,
2,1,0,1,0,54388.2,0.0621438,0.0617763,18.9916,28,0.00240052,10,0.00117323,-1.72144,0.462469,0.127576,94.5609,0.0617763,
2,1,0,1,0,54388.2,0.0725479,0.0721842,19.991,28,0.00290741,10,0.00144303,-1.69917,0.467183,0.126289,98.5357,0.0721842,
2,1,0,1,0,54388.2,0.0829437,0.0825454,21.0173,28,0.00344052,10,0.00173488,-1.67742,0.49234,0.119836,98.2645,0.0825454,
2,1,0,1,0,54388.3,0.0933422,0.0929745,22.0465,28,0.00400049,10,0.00204977,-1.65666,0.525227,0.112332,96.6236,0.0929745,
2,1,0,1,0,54388.3,0.103749,0.103376,23.0594,28,0.00458669,10,0.00238379,-1.63715,0.5126,0.115099,103.589,0.103376,
2,1,0,1,0,54388.3,0.114148,0.113763,24.1398,28,0.00520031,10,0.00274622,-1.61727,0.518553,0.113778,107.145,0.113763,
2,1,0,1,0,54388.4,0.124543,0.124166,25.3146,28,0.0058429,10,0.00314322,-1.59663,0.490991,0.120165,118.694,0.1241664,
2,1,0,1,0,54388.4,0.134942,0.134571,26.6201,28,0.00651803,10,0.00358229,-1.57479,0.470556,0.125383,130.336,0.134571,
2,1,0,1,0,54388.4,0.145349,0.144959,27.9751,28,0.00722805,10,0.00405524,-1.55323,0.512132,0.115205,125.697,0.144959,
2,1,0,1,0,54388.4,0.155747,0.155382,29.1844,28,0.00797148,10,0.00453472,-1.53485,0.633632,0.093114,105.951,0.155382,
2,1,0,1,0,54388.5,0.166143,0.165758,30.0831,28,0.008743,10,0.00498651,-1.52168,1.10137,0.0535696,62.856,0.165758,
2,1,0,1,0,54388.5,0.176542,0.176164,30.4065,28,0.00953118,10,0.00535655,-1.51703,-9.17548,-0.00643018,-7.62144,0.176164,
2,1,0,1,0,54388.5,0.186949,0.186604,29.8762,28,0.0103167,10,0.00557502,-1.52467,-0.733944,-0.0803876,-93.5634,0.186604,
2,1,0,1,0,54388.5,0.197347,0.196988,28.4796,28,0.0110768,10,0.00561014,-1.54547,-0.38982,-0.151352,-168.027,0.196988,
2,1,0,1,0,54388.6,0.207743,0.207378,26.4833,28,0.011792,10,0.00549204,-1.57703,-0.295768,-0.199481,-206.035,0.207378,
2,1,0,1,0,54388.6,0.218141,0.217794,24.2733,28,0.0124516,10,0.00528659,-1.61487,-0.270276,-0.218296,-206.862,0.217794,
2,1,0,1,0,54388.6,0.228548,0.228203,22.2284,28,0.0130554,10,0.00507259,-1.65309,-0.277416,-0.212677,-184.49,0.228203,
2,1,0,1,0,54388.6,0.238947,0.238618,20.4774,28,0.0136095,10,0.00488627,-1.68873,-0.310208,-0.190195,-152.077,0.238618,
2,1,0,1,0,54388.7,0.249343,0.249018,19.0624,28,0.0141226,10,0.00474687,-1.71982,-0.363687,-0.162228,-120.758,0.249018,
2,1,0,1,0,54388.7,0.259741,0.259434,17.9436,28,0.014603,10,0.00465517,-1.74609,-0.425949,-0.138514,-96.9799,0.259434,
2,1,0,1,0,54388.7,0.270148,0.269802,17.0305,28,0.015057,10,0.00459485,-1.76877,-0.502647,-0.117379,-78.041,0.269802,
2,1,0,1,0,54388.7,0.280547,0.280163,16.2792,28,0.0154897,10,0.00456084,-1.78837,-0.589331,-0.100113,-63.6671,0.280163,
2,1,0,1,0,54388.8,0.290942,0.290609,15.6724,28,0.0159048,10,0.00455453,-1.80487,-0.672328,-0.0877547,-53.6727,0.290609,
2,1,0,0,0,54388.8,0.300012,0.299689,15.2137,28,0.0162552,10,0.00455938,-1.81776,0.00197899,29.8131,15763.6,0.2996892,
2,1,0,1,0,54388.8,0.290704,0.290394,5.96955,28,0.0164807,10,0.00173352,-2.22406,0.0217931,2.70728,627.698,0.290394,
2,1,0,1,0,54388.8,0.280305,0.27998,1.05907,28,0.0165658,10,0.000296518,-2.97508,0.00277458,21.2645,361.03,0.27998,
2,0,0,1,0,54388.9,0.269909,0.269536,-1.96728,28,0.0165509,10,-0.000530253,-2.70613,-0.0175985,-3.35257,237.872,0.269536,
2,0,0,1,0,54388.9,0.2595,0.25917,-4.03325,28,0.0164712,10,-0.0010453,-2.39434,-0.0546891,-1.07883,167.58,0.25917,
2,0,0,1,0,54388.9,0.249104,0.248759,-5.52439,28,0.016346,10,-0.00137424,-2.25772,-0.102567,-0.575236,123.248,0.248759,
2,0,0,1,0,54388.9,0.238706,0.238344,-6.66292,28,0.0161869,10,-0.00158807,-2.17634,-0.156216,-0.377682,98.0422,0.238344,
2,0,0,1,0,54389,0.22831,0.227959,-7.57273,28,0.0160012,10,-0.00172627,-2.12075,-0.215575,-0.273686,80.9305,0.227959,
2,0,0,1,0,54389,0.2179,0.217533,-8.36572,28,0.0157937,10,-0.00181982,-2.0775,-0.281824,-0.20935,68.1594,0.217533,
2,0,0,1,0,54389,0.207504,0.207195,-9.01949,28,0.0155675,10,-0.0018688,-2.04482,-0.348211,-0.169437,59.6508,0.207195,
2,0,0,1,0,54389,0.197106,0.196735,-9.62835,28,0.0153248,10,-0.00189424,-2.01645,-0.390192,-0.151207,56.893,0.196735,
2,0,0,1,0,54389.1,0.18671,0.186369,-10.2056,28,0.0150668,10,-0.00190201,-1.99116,-0.419363,-0.14069,56.0309,0.186369,
2,0,0,1,0,54389.1,0.1763,0.175965,-10.7877,28,0.0147939,10,-0.00189826,-1.96707,-0.440959,-0.133799,56.3185,0.175965,
2,0,0,1,0,54389.1,0.165905,0.165523,-11.4058,28,0.0145055,10,-0.00188792,-1.94287,-0.415659,-0.141943,63.1939,0.165523,
2,0,0,1,0,54389.2,0.155506,0.155147,-12.1343,28,0.0141998,10,-0.00188261,-1.91598,-0.342143,-0.172443,81.7354,0.155147,
2,0,0,1,0,54389.2,0.145105,0.144736,-13.105,28,0.0138724,10,-0.00189677,-1.88256,-0.264652,-0.222934,114.143,0.144736,
2,0,0,1,0,54389.2,0.134701,0.13437,-14.5288,28,0.0135142,10,-0.00195222,-1.83777,-0.203445,-0.290004,164.668,0.13437,
2,0,0,1,0,54389.2,0.124305,0.123984,-16.5685,28,0.013111,10,-0.00205423,-1.78072,-0.17208,-0.342863,221.996,0.123984,
2,0,0,1,0,54389.3,0.113906,0.113591,-19.0338,28,0.0126483,10,-0.00216207,-1.72047,-0.180189,-0.327434,243.219,0.113591,
2,0,0,1,0,54389.3,0.103505,0.103185,-21.503,28,0.0121206,10,-0.00221879,-1.6675,-0.21234,-0.277856,233.105,0.103185,
2,0,0,1,0,54389.3,0.0931008,0.0928218,-23.7868,28,0.0115307,10,-0.00220793,-1.62366,-0.274008,-0.215322,199.723,0.0928218,
2,0,0,1,0,54389.3,0.0827051,0.0824256,-25.6321,28,0.0108869,10,-0.00211275,-1.59121,-0.387617,-0.152212,152.06,0.0824256,
2,0,0,1,0,54389.4,0.0723065,0.0720368,-26.9676,28,0.0102021,10,-0.00194266,-1.56916,-0.603874,-0.0977025,102.684,0.0720368,
2,0,0,1,0,54389.4,0.0618997,0.0615908,-27.7724,28,0.00948934,10,-0.00171053,-1.55639,-1.20694,-0.0488841,52.9433,0.0615908,
2,0,0,1,0,54389.4,0.0515011,0.0511829,-28.1425,28,0.0087618,10,-0.00144042,-1.55064,-2.94668,-0.0200225,21.9728,0.0511829,
2,0,0,1,0,54389.4,0.0411053,0.0407326,-28.2172,28,0.00802868,10,-0.00114936,-1.54949,34.8567,0.00169265,-1.8635,0.0407326,
2,0,0,1,0,54389.5,0.0307068,0.0303597,-28.1099,28,0.00729595,10,-0.000853408,-1.55114,4.12249,0.0143117,-15.7057,0.0303597,
2,0,0,1,0,54389.5,0.0202999,0.0199465,-27.8955,28,0.00656762,10,-0.000556416,-1.55447,2.26419,0.0260578,-28.3521,0.0199465,
2,0,0,1,0,54389.5,0.00990136,0.00952373,-27.5196,28,0.00584701,10,-0.00026209,-1.56036,1.44158,0.0409272,-43.9312,0.00952373,
2,0,0,1,0,54389.5,-0.000494411,-0.000882037,-27.003,28,0.00513801,10,2.38177e-05,-1.56859,1.06134,0.0555901,-58.5161,-0.000882037,
2,0,0,1,0,54389.6,-0.010893,-0.0112592,-26.2998,28,0.00444501,10,0.000296115,-1.58005,0.841011,0.0701536,-72.0019,-0.01125918,
2,0,0,1,0,54389.6,-0.0212998,-0.0216618,-25.5645,28,0.00377084,10,0.000553773,-1.59236,0.852332,0.0692218,-69.0686,-0.0216618,
2,0,0,1,0,54389.6,-0.0316984,-0.032128,-24.9067,28,0.00311518,10,0.000800202,-1.60368,0.991648,0.0594969,-57.8149,-0.032128,
2,0,0,1,0,54389.6,-0.0420942,-0.0425391,-24.3714,28,0.00247504,10,0.00103673,-1.61312,1.31146,0.0449882,-42.8256,-0.0425391,
2,0,0,1,0,54389.7,-0.0524927,-0.0528547,-24.0391,28,0.00184593,10,0.00127058,-1.61908,2.47068,0.02388,-22.4232,-0.0528547,
2,0,0,1,0,54389.7,-0.0628996,-0.0633071,-23.903,28,0.00122315,10,0.00151323,-1.62155,8.20731,0.00718872,-6.70356,-0.0633071,
2,0,0,1,0,54389.7,-0.0732982,-0.0736641,-23.8898,28,0.000602266,10,0.00175982,-1.62179,-7.38291,-0.00799143,7.45353,-0.0736641,
2,0,0,1,0,54389.8,-0.0836939,-0.0841357,-24.0357,28,-2.05745e-05,10,0.00202226,-1.61914,-2.68333,-0.0219876,20.6354,-0.0841357,
2,0,0,1,0,54389.8,-0.0940925,-0.0944587,-24.3128,28,-0.000648945,10,0.00229656,-1.61416,-1.74456,-0.0338194,32.0946,-0.0944587,
2,0,0,1,1,54389.8,-0.0978574,-0.0982974,-20.4409,28,-0.00113482,10,0.00200928,-1.6895,-0.0308603,-1.91184,1509.14,-0.0982974,
2,0,0,1,1,54389.8,-0.0874588,-0.0879149,-10.2106,28,-0.00151795,10,0.000897662,-1.99095,-0.0316466,-1.86434,740.444,-0.0879149,
2,0,0,1,1,54389.8,-0.077052,-0.077472,-3.74714,28,-0.00169414,10,0.000290299,-2.4263,-0.0155032,-3.80566,529.306,-0.077472,
2,1,0,1,1,54389.9,-0.0666562,-0.0670726,1.05698,28,-0.00172588,10,-7.08946e-05,-2.97593,0.00705641,8.3612,403.698,-0.0670726,
2,1,0,1,1,54389.9,-0.0562576,-0.0566828,4.79915,28,-0.0016474,10,-0.000272029,-2.31884,0.0336703,1.75229,321.904,-0.0566828,
2,1,0,1,1,54389.9,-0.0458563,-0.0463024,7.8156,28,-0.00148156,10,-0.000361881,-2.10704,0.0693433,0.850839,257.411,-0.0463024,
2,1,0,1,1,54390,-0.0354522,-0.0358437,10.2315,28,-0.00124566,10,-0.000366734,-1.99006,0.11629,0.507351,201.543,-0.0358437,
2,1,0,1,1,54390,-0.0250564,-0.0255036,12.13,28,-0.000953898,10,-0.000309358,-1.91614,0.172105,0.342813,162.114,-0.0255036,
2,1,0,1,1,54390,-0.0146579,-0.0150427,13.6488,28,-0.000617821,10,-0.000205315,-1.8649,0.239991,0.245842,130.754,-0.0150427,
2,1,0,1,1,54390,-0.00425653,-0.00464224,14.8411,28,-0.000246781,10,-6.8896e-05,-1.82853,0.34266,0.172182,99.5994,-0.00464224,
2,1,0,0,1,54390,-7.54729e-05,-0.000573459,15.2271,28,-8.88366e-05,10,-8.73209e-06,-1.81738, , , ,-0.000573459,

File: 20221101_1-115_003_TrumpetPlot_ParaChange_from10_every3_11_CV_C01_28.csv
mode,ox/red,error,control changes,counter inc.,time/s,control/V,Ewe/V,<I>/mA,cycle number,(Q-Qo)/C,I Range,P/W,log(|I|),Tafel slope mV/dec,alpha_eff,dI/d(E-IR),E-IR/V,
2,1,0,1,0,56358.2,2.44065e-05,-0.000497109,9.0283,29,0.0000000E+000,10,-4.48805e-06,-2.04439, , , ,-0.000497109,
2,1,0,1,0,56358.2,0.0101427,0.00974642,11.9657,29,0.000270741,10,0.000116623,-1.92206,0.138032,0.427437,198.864,0.00974642,
2,1,0,1,0,56358.2,0.0205441,0.0201649,13.7037,29,0.000605816,10,0.000276335,-1.86316,0.222383,0.265308,141.574,0.0201649,
2,1,0,1,0,56358.2,0.0309482,0.0305622,15.019,29,0.000979876,10,0.000459013,-1.82336,0.305636,0.19304,113.008,0.0305622,
2,1,0,1,0,56358.3,0.0413439,0.0409828,16.1201,29,0.00138502,10,0.000660646,-1.79263,0.376061,0.156889,98.6437,0.0409828,
2,1,0,1,0,56358.3,0.0517425,0.0513271,17.1115,29,0.00181722,10,0.000878283,-1.76671,0.421822,0.139869,93.3997,0.0513271,
2,1,0,1,0,56358.3,0.0621438,0.061789,18.0742,29,0.00227468,10,0.00111679,-1.74294,0.4622,0.12765,89.9828,0.061789,
2,1,0,1,0,56358.4,0.0725479,0.0721609,19.0197,29,0.00275691,10,0.00137248,-1.7208,0.469963,0.125542,93.1863,0.0721609,
2,1,0,1,0,56358.4,0.0829437,0.0825539,19.9782,29,0.00326397,10,0.00164928,-1.69944,0.489125,0.120624,94.0708,0.0825539,
2,1,0,1,0,56358.4,0.0933422,0.0929968,20.9739,29,0.00379638,10,0.0019505,-1.67832,0.511675,0.115307,94.307,0.0929968,
2,1,0,1,0,56358.4,0.103749,0.103334,21.9282,29,0.00435409,10,0.00226592,-1.659,0.571315,0.103271,88.3475,0.103334,
2,1,0,1,0,56358.5,0.114148,0.11376,22.9073,29,0.00493681,10,0.00260593,-1.64003,0.529649,0.111395,99.6374,0.11376,
2,1,0,1,0,56358.5,0.124543,0.124163,23.9942,29,0.00554657,10,0.0029792,-1.61989,0.513649,0.114864,107.54,0.124163,
2,1,0,1,0,56358.5,0.134942,0.1346,25.1803,29,0.00618574,10,0.00338926,-1.59894,0.497629,0.118562,116.537,0.1346,
2,1,0,1,0,56358.5,0.145349,0.144956,26.4276,29,0.0068567,10,0.00383083,-1.57794,0.515076,0.114546,118.096,0.144956,
2,1,0,1,0,56358.6,0.155747,0.155373,27.5953,29,0.0075592,10,0.00428757,-1.55916,0.593396,0.0994278,107.008,0.155373,
2,1,0,1,0,56358.6,0.166143,0.165772,28.5725,29,0.0082901,10,0.00473653,-1.54405,0.849152,0.0694811,77.4255,0.1657725,
2,1,0,1,0,56358.6,0.176542,0.176145,29.1229,29,0.00904155,10,0.00512987,-1.53576,2.90029,0.0203428,23.103,0.176145,
2,1,0,1,0,56358.6,0.186949,0.186601,29.0094,29,0.00979883,10,0.00541318,-1.53746,-1.37818,-0.0428102,-48.3987,0.186601,
2,1,0,1,0,56358.7,0.197347,0.197,28.1203,29,0.0105429,10,0.00553971,-1.55098,-0.550542,-0.107167,-117.428,0.197,
2,1,0,1,0,56358.7,0.207743,0.207433,26.5927,29,0.0112551,10,0.0055162,-1.57524,-0.362096,-0.16294,-168.945,0.2074327,
2,1,0,1,0,56358.7,0.218141,0.217793,24.6939,29,0.0119222,10,0.00537816,-1.60741,-0.30593,-0.192855,-185.91,0.217793,
2,1,0,1,0,56358.7,0.228548,0.228186,22.7929,29,0.0125391,10,0.00520101,-1.6422,-0.297556,-0.198282,-176.298,0.228186,
2,1,0,1,0,56358.8,0.238947,0.238586,21.0633,29,0.0131083,10,0.00502542,-1.67647,-0.313463,-0.18822,-154.702,0.2385864,
2,1,0,1,0,56358.8,0.249343,0.249021,19.5863,29,0.0136361,10,0.0048774,-1.70805,-0.351752,-0.167732,-128.39,0.249021,
2,1,0,1,0,56358.8,0.259741,0.259418,18.4011,29,0.0141294,10,0.00477359,-1.73516,-0.414767,-0.142249,-102.203,0.259418,
2,1,0,1,0,56358.8,0.270148,0.269788,17.4338,29,0.0145947,10,0.00470343,-1.75861,-0.47524,-0.124148,-84.4495,0.269788,
2,1,0,1,0,56358.9,0.280547,0.280145,16.6199,29,0.0150369,10,0.00465599,-1.77937,-0.541966,-0.108863,-70.6546,0.280145,
2,1,0,1,0,56358.9,0.290942,0.290595,15.9542,29,0.0154601,10,0.00463622,-1.79712,-0.623629,-0.0946075,-58.9233,0.290595,
2,1,0,0,0,56358.9,0.300012,0.299632,15.4675,29,0.0158165,10,0.00463455,-1.81058,0.00222948,26.4636,14456.6,0.299632,
2,1,0,1,0,56358.9,0.290704,0.290343,6.9866,29,0.01606,10,0.00202851,-2.15573,0.0268662,2.19607,598.23,0.290343,
2,1,0,1,0,56359,0.280305,0.27998,2.17806,29,0.0161734,10,0.000609814,-2.66193,0.012862,4.58715,365.009,0.27998,
2,0,0,1,0,56359,0.269909,0.269543,-0.907897,29,0.0161871,10,-0.000244717,-3.04196,-0.0047576,-12.4012,244.537,0.269543,
2,0,0,1,0,56359,0.2595,0.259177,-3.04885,29,0.016134,10,-0.000790193,-2.51586,-0.0391682,-1.50633,175.843,0.259177,
2,0,0,1,0,56359,0.249104,0.248734,-4.63547,29,0.0160331,10,-0.001153,-2.33391,-0.0794698,-0.742421,133.357,0.248734,
2,0,0,1,0,56359.1,0.238705,0.238357,-5.85778,29,0.015896,10,-0.00139624,-2.23227,-0.130154,-0.453309,103.229,0.238357,
2,0,0,1,0,56359.1,0.22831,0.227949,-6.8331,29,0.0157305,10,-0.0015576,-2.16538,-0.183886,-0.320852,85.5389,0.227949,
2,0,0,1,0,56359.1,0.2179,0.21755,-7.66545,29,0.0155417,10,-0.00166762,-2.11546,-0.236961,-0.248986,74.3409,0.21755,
2,0,0,1,0,56359.2,0.207504,0.207181,-8.36449,29,0.015333,10,-0.00173297,-2.07756,-0.299279,-0.19714,64.3522,0.207181,
2,0,0,1,0,56359.2,0.197106,0.196772,-9.00363,29,0.0151069,10,-0.00177167,-2.04558,-0.358478,-0.164585,57.8641,0.196772,
2,0,0,1,0,56359.2,0.18671,0.186351,-9.59471,29,0.0148649,10,-0.00178798,-2.01797,-0.396244,-0.148898,55.7933,0.186351,
2,0,0,1,0,56359.2,0.1763,0.175939,-10.1862,29,0.0146076,10,-0.00179215,-1.99199,-0.414892,-0.142206,56.4917,0.175939,
2,0,0,1,0,56359.3,0.165905,0.165535,-10.7923,29,0.0143351,10,-0.00178651,-1.96688,-0.41723,-0.141409,59.5261,0.165535,
2,0,0,1,0,56359.3,0.155506,0.155181,-11.4733,29,0.014046,10,-0.00178045,-1.94031,-0.362372,-0.162816,72.9525,0.155181,
2,0,0,1,0,56359.3,0.145105,0.144774,-12.3426,29,0.0137369,10,-0.00178689,-1.90859,-0.28782,-0.204989,98.8728,0.144774,
2,0,0,1,0,56359.3,0.134701,0.134363,-13.5787,29,0.0134009,10,-0.00182448,-1.86714,-0.21505,-0.274355,145.445,0.134363,
2,0,0,1,0,56359.4,0.124305,0.123958,-15.3363,29,0.0130261,10,-0.00190105,-1.81428,-0.18203,-0.324123,194.277,0.123958,
2,0,0,1,0,56359.4,0.113906,0.113575,-17.5248,29,0.0125991,10,-0.00199038,-1.75635,-0.184641,-0.31954,218.6,0.113575,
2,0,0,1,0,56359.4,0.103505,0.103145,-19.8261,29,0.0121132,10,-0.00204496,-1.70276,-0.213871,-0.275867,212.996,0.1031449,
2,0,0,1,0,56359.4,0.0931008,0.0927837,-21.9554,29,0.0115697,10,-0.0020371,-1.65846,-0.2624,-0.224848,192.465,0.09278366,
2,0,0,1,0,56359.5,0.0827051,0.0823588,-23.7931,29,0.010974,10,-0.00195957,-1.62355,-0.347089,-0.169985,157.714,0.0823588,
2,0,0,1,0,56359.5,0.0723065,0.0719965,-25.213,29,0.0103359,10,-0.00181525,-1.59838,-0.505,-0.116832,114.826,0.0719965,
2,0,0,1,0,56359.5,0.0618997,0.0615621,-26.2016,29,0.00966658,10,-0.00161302,-1.58167,-0.829765,-0.0711044,72.6235,0.0615621,
2,0,0,1,0,56359.5,0.0515011,0.0511457,-26.7679,29,0.00897728,10,-0.00136906,-1.57239,-1.58463,-0.0372327,38.8691,0.05114574,
2,0,0,1,0,56359.6,0.0411053,0.0407866,-27.0281,29,0.00827739,10,-0.00110239,-1.56818,-3.98156,-0.0148183,15.6319,0.0407866,
2,0,0,1,0,56359.6,0.0307068,0.0303597,-27.1025,29,0.0075732,10,-0.000822823,-1.56699,-135.774,-0.000434545,0.459583,0.0303597,
2,0,0,1,0,56359.6,0.0202999,0.0199804,-27.0356,29,0.00686922,10,-0.000540182,-1.56806,4.41871,0.0133523,-14.0804,0.0199804,
2,0,0,1,0,56359.6,0.00990136,0.00956403,-26.8157,29,0.00616896,10,-0.000256466,-1.57161,2.30424,0.025605,-26.7923,0.00956403,
2,0,0,1,0,56359.7,-0.000494411,-0.000912789,-26.4745,29,0.00547599,10,2.41656e-05,-1.57717,1.52056,0.0388015,-40.0389,-0.000912789,
2,0,0,1,0,56359.7,-0.010893,-0.0113027,-25.9312,29,0.00479462,10,0.000293091,-1.58618,1.02681,0.0574595,-58.137,-0.0113027,
2,0,0,1,0,56359.7,-0.0212998,-0.0217063,-25.3032,29,0.0041286,10,0.000549239,-1.59682,0.941508,0.0626654,-61.8772,-0.0217063,
2,0,0,1,0,56359.8,-0.0316984,-0.032075,-24.6853,29,0.00347905,10,0.000791782,-1.60756,1.01889,0.0579063,-55.7773,-0.032075,
2,0,0,1,0,56359.8,-0.0420942,-0.0425147,-24.161,29,0.00284444,10,0.0010272,-1.61689,1.22488,0.0481681,-45.428,-0.0425147,
2,0,0,1,0,56359.8,-0.0524927,-0.0528748,-23.779,29,0.00222159,10,0.00125731,-1.62381,1.94575,0.0303225,-28.1626,-0.0528748,
2,0,0,1,0,56359.8,-0.0628996,-0.0633135,-23.574,29,0.00160642,10,0.00149255,-1.62757,4.29179,0.0137472,-12.6441,-0.0633135,
2,0,0,1,0,56359.9,-0.0732982,-0.0737087,-23.5054,29,0.000994818,10,0.00173255,-1.62883,-65.5884,-0.000899549,0.825167,-0.0737087,
2,0,0,1,0,56359.9,-0.0836939,-0.0840646,-23.5663,29,0.000383115,10,0.00198109,-1.62771,-4.52839,-0.0130289,11.9907,-0.0840646,
2,0,0,1,0,56359.9,-0.0940925,-0.0944969,-23.7619,29,-0.00023199,10,0.00224542,-1.62412,-2.07662,-0.0284115,26.3564,-0.0944969,
2,0,0,1,1,56359.9,-0.0978574,-0.0983122,-20.3608,29,-0.000707734,10,0.00200171,-1.69121,-0.0350945,-1.68117,1322.68,-0.0983122,
2,0,0,1,1,56360,-0.0874588,-0.0878853,-11.0601,29,-0.00110319,10,0.000972019,-1.95624,-0.0369852,-1.59523,687.038,-0.0878853,
2,0,0,1,1,56360,-0.0770519,-0.0774572,-4.98391,29,-0.001307,10,0.00038604,-2.30243,-0.0222646,-2.64995,504.327,-0.0774572,
2,0,0,1,1,56360,-0.0666562,-0.0670663,-0.376669,29,-0.00137383,10,2.52618e-05,-3.42404,-0.0203708,-2.8963,388.882,-0.0670663,
2,1,0,1,1,56360,-0.0562576,-0.0567284,3.25338,29,-0.00133431,10,-0.000184559,-2.48767,0.023157,2.54783,311.311,-0.05672837,
2,1,0,1,1,56360.1,-0.0458563,-0.0463205,6.2176,29,-0.00120959,10,-0.000288002,-2.20638,0.0550246,1.07225,257.636,-0.0463205,
2,1,0,1,1,56360.1,-0.0354522,-0.0358712,8.63647,29,-0.00101525,10,-0.000309801,-2.06366,0.093693,0.629716,210.935,-0.0358712,
2,1,0,1,1,56360.1,-0.0250564,-0.0254506,10.5901,29,-0.000764209,10,-0.000269525,-1.9751,0.145605,0.405205,167.159,-0.0254506,
2,1,0,1,1,56360.1,-0.0146579,-0.015083,12.1611,29,-0.000467399,10,-0.000183427,-1.91503,0.203915,0.289336,137.269,-0.015083,
2,1,0,1,1,56360.2,-0.00425653,-0.00468572,13.4444,29,-0.000133621,10,-6.29965e-05,-1.87146,0.282459,0.20888,109.501,-0.00468572,
2,1,0,0,1,56360.2,-7.54729e-05,-0.000458935,13.8755,29,9.9784e-06,10,-6.36795e-06,-1.85775, , , ,-0.000458935,