Folder: Figs_alphaMnO2_OER_Tafel_sleope/Figure_codes/Fig_3-5/rawdata_trumpetplot_data/after 10th (part 200)

File: 20221101_1-115_003_TrumpetPlot_ParaChange_from10_every3_13_CV_C01_17.csv
mode,ox/red,error,control changes,counter inc.,time/s,control/V,Ewe/V,<I>/mA,cycle number,(Q-Qo)/C,I Range,P/W,log(|I|),Tafel slope mV/dec,alpha_eff,dI/d(E-IR),E-IR/V,
2,1,0,1,0,34690.1,2.44065e-05,-0.000287149,18.6413,18,0.0000000E+000,10,-5.35283e-06,-1.72952, , , ,-0.0002871489,
2,1,0,1,0,34690.1,0.0122624,0.011898,22.7395,18,0.000317819,10,0.000270554,-1.64322,0.20677,0.285341,251.469,0.01189798,
2,1,0,1,0,34690.1,0.0250636,0.0246769,25.5396,18,0.000705353,10,0.000630239,-1.59279,0.298773,0.197474,196.234,0.0246769,
2,1,0,1,0,34690.1,0.0378703,0.0374495,27.8565,18,0.00113323,10,0.00104321,-1.55507,0.381361,0.154709,167.873,0.0374495,
2,1,0,1,0,34690.1,0.0506632,0.050307,29.9072,18,0.00159576,10,0.00150454,-1.52422,0.438573,0.134527,156.9,0.050307,
2,1,0,1,0,34690.2,0.0634672,0.0631411,31.8762,18,0.0020903,10,0.00201269,-1.49653,0.48131,0.122582,152.432,0.0631411,
2,1,0,1,0,34690.2,0.0762629,0.0758914,33.8355,18,0.00261624,10,0.00256782,-1.47063,0.499393,0.118143,156.019,0.07589139,
2,1,0,1,0,34690.2,0.0890668,0.0887022,35.8638,18,0.00317407,10,0.00318119,-1.44534,0.510808,0.115503,161.689,0.0887022,
2,1,0,1,0,34690.2,0.10186,0.101501,37.947,18,0.00376478,10,0.00385167,-1.42082,0.535868,0.110102,163.043,0.101501,
2,1,0,1,0,34690.2,0.114666,0.114275,40.0841,18,0.00438915,10,0.00458061,-1.39703,0.538797,0.109503,171.309,0.114275,
2,1,0,1,0,34690.2,0.127462,0.127052,42.3098,18,0.00504852,10,0.00537554,-1.37356,0.55543,0.106224,175.371,0.127052,
2,1,0,1,0,34690.2,0.140263,0.139853,44.7131,18,0.00574436,10,0.00625327,-1.34956,0.508701,0.115982,202.42,0.139853,
2,1,0,1,0,34690.3,0.153064,0.152726,47.3306,18,0.00648113,10,0.00722863,-1.32486,0.539051,0.109452,202.116,0.152726,
2,1,0,1,0,34690.3,0.165866,0.165506,49.8601,18,0.00725926,10,0.00825217,-1.30225,0.610747,0.0966029,187.806,0.165506,
2,1,0,1,0,34690.3,0.178667,0.178309,52.0944,18,0.00807565,10,0.00928889,-1.28321,0.775988,0.0760321,154.315,0.178309,
2,1,0,1,0,34690.3,0.191463,0.191133,53.7018,18,0.00892331,10,0.0102642,-1.27001,1.39315,0.04235,88.5272,0.191133,
2,1,0,1,0,34690.3,0.204269,0.203916,54.2351,18,0.00978861,10,0.0110594,-1.26572,-12.1635,-0.00485059,-10.2347,0.203916,
2,1,0,1,0,34690.3,0.217062,0.216784,53.4054,18,0.0106516,10,0.0115775,-1.27241,-1.04139,-0.0566552,-117.722,0.216784,
2,1,0,1,0,34690.4,0.229866,0.229536,51.266,18,0.0114904,10,0.0117674,-1.29017,-0.552822,-0.106725,-212.931,0.229536,
2,1,0,1,0,34690.4,0.242662,0.242331,48.0989,18,0.0122861,10,0.0116558,-1.31787,-0.409125,-0.14421,-270.249,0.242331,
2,1,0,1,0,34690.4,0.255466,0.255136,44.4733,18,0.0130265,10,0.0113467,-1.3519,-0.359109,-0.164296,-285.053,0.255136,
2,1,0,1,0,34690.4,0.268259,0.267942,40.9095,18,0.013709,10,0.0109614,-1.38818,-0.357964,-0.164821,-263.43,0.267942,
2,1,0,1,0,34690.4,0.281065,0.28074,37.7747,18,0.0143377,10,0.0106049,-1.4228,-0.385551,-0.153028,-225.927,0.28074,
2,1,0,1,0,34690.4,0.293861,0.293582,35.144,18,0.0149202,10,0.0103177,-1.45415,-0.434274,-0.135859,-186.923,0.293582,
2,1,0,1,0,34690.4,0.298983,0.298814,31.7603,18,0.0152284,10,0.00949043,-1.49812,0.0371528,1.58804,1718.61,0.2988143,
2,1,0,1,0,34690.5,0.286187,0.285924,15.5914,18,0.0155893,10,0.00445797,-1.80711,0.0391063,1.50871,917.048,0.285924,
2,1,0,1,0,34690.5,0.273386,0.273147,6.23559,18,0.0157577,10,0.00170323,-2.20512,0.0220749,2.67272,600.677,0.273147,
2,1,0,1,0,34690.5,0.260585,0.260305,-0.17017,18,0.0158026,10,-4.42961e-05,-3.76912,0.971287,0.0607442,421.258,0.260305,
2,0,0,1,0,34690.5,0.247783,0.247491,-4.79377,18,0.0157605,10,-0.00118641,-2.31932,-0.0321598,-1.83459,312.382,0.247491,
2,0,0,1,0,34690.5,0.234982,0.234689,-8.29562,18,0.0156542,10,-0.00194689,-2.08115,-0.0780727,-0.755706,238.76,0.234689,
2,0,0,1,0,34690.5,0.222187,0.221885,-11.0181,18,0.0154986,10,-0.00244475,-1.95789,-0.130825,-0.450986,191.896,0.221885,
2,0,0,1,0,34690.6,0.20938,0.20906,-13.2395,18,0.0153038,10,-0.00276786,-1.87813,-0.190111,-0.310345,159.521,0.2090604,
2,0,0,1,0,34690.6,0.196587,0.196231,-15.1142,18,0.0150763,10,-0.00296586,-1.82062,-0.254124,-0.23217,136.6,0.196231,
2,0,0,1,0,34690.6,0.183783,0.183437,-16.7752,18,0.0148207,10,-0.00307719,-1.77533,-0.307266,-0.192016,125.571,0.183437,
2,0,0,1,0,34690.6,0.170987,0.170694,-18.3537,18,0.0145394,10,-0.00313287,-1.73628,-0.344801,-0.171113,122.52,0.170694,
2,0,0,1,0,34690.6,0.158183,0.157867,-19.9904,18,0.0142327,10,-0.00315582,-1.69918,-0.336672,-0.175245,136.831,0.157867,
2,0,0,1,0,34690.6,0.145385,0.145066,-21.9134,18,0.0138979,10,-0.00317889,-1.65929,-0.294311,-0.200468,171.912,0.145066,
2,0,0,1,0,34690.7,0.132584,0.132253,-24.4636,18,0.0135276,10,-0.00323538,-1.61148,-0.241384,-0.244423,234.303,0.132253,
2,0,0,1,0,34690.7,0.119783,0.119503,-27.9359,18,0.0131091,10,-0.00333842,-1.55384,-0.210241,-0.280631,306.775,0.119503,
2,0,0,1,0,34690.7,0.106987,0.106703,-32.2095,18,0.0126281,10,-0.00343684,-1.49202,-0.215394,-0.273917,343.874,0.106703,
2,0,0,1,0,34690.7,0.0941801,0.0938929,-36.6109,18,0.012077,10,-0.0034375,-1.43639,-0.253821,-0.232448,330.986,0.0938929,
2,0,0,1,0,34690.7,0.0813844,0.0811393,-40.6541,18,0.0114581,10,-0.00329865,-1.3909,-0.309572,-0.190586,301.498,0.0811393,
2,0,0,1,0,34690.7,0.0685832,0.0683487,-44.1289,18,0.0107784,10,-0.00301616,-1.35528,-0.424071,-0.139128,238.975,0.0683487,
2,0,0,1,0,34690.8,0.0557876,0.0555751,-46.7971,18,0.0100496,10,-0.00260075,-1.32978,-0.598138,-0.0986395,179.794,0.0555751,
2,0,0,1,0,34690.8,0.0429808,0.0426508,-48.7507,18,0.00928399,10,-0.00207926,-1.31202,-0.912244,-0.0646757,122.791,0.0426508,
2,0,0,1,0,34690.8,0.030188,0.0298538,-49.978,18,0.0084932,10,-0.00149203,-1.30122,-1.53333,-0.0384783,74.9603,0.0298538,
2,0,0,1,0,34690.8,0.017384,0.0170547,-50.7057,18,0.00768693,10,-0.000864772,-1.29494,-2.88428,-0.0204557,40.441,0.0170547,
2,0,0,1,0,34690.8,0.00458834,0.00430441,-51.0019,18,0.00687257,10,-0.000219533,-1.29241,-10.6147,-0.00555835,11.0608,0.00430441,
2,0,0,1,0,34690.8,-0.00821564,-0.00859332,-50.9514,18,0.00605601,10,0.000437842,-1.29284,5.06564,0.0116471,-23.142,-0.00859332,
2,0,0,1,0,34690.8,-0.0210196,-0.0213606,-50.4767,18,0.0052441,10,0.00107821,-1.29691,2.14614,0.0274912,-54.093,-0.0213606,
2,0,0,1,0,34690.9,-0.0338153,-0.0341725,-49.616,18,0.00444311,10,0.0016955,-1.30438,1.51249,0.0390085,-75.4908,-0.0341725,
2,0,0,1,0,34690.9,-0.0466193,-0.0469758,-48.5721,18,0.0036576,10,0.00228171,-1.31361,1.33329,0.0442515,-83.875,-0.0469758,
2,0,0,1,0,34690.9,-0.0594121,-0.0597982,-47.5224,18,0.00288903,10,0.00284176,-1.3231,1.45418,0.0405728,-75.2923,-0.0597982,
2,0,0,1,0,34690.9,-0.0722189,-0.0725846,-46.6729,18,0.00213576,10,0.00338773,-1.33094,1.91704,0.0307766,-56.1035,-0.0725846,
2,0,0,1,0,34690.9,-0.0850146,-0.0853933,-46.1031,18,0.001394,10,0.00393689,-1.33627,3.13116,0.0188429,-33.9254,-0.0853933,
2,0,0,1,0,34690.9,-0.0978158,-0.0981723,-45.8308,18,0.000658992,10,0.00449931,-1.33884,12.6253,0.00467317,-8.36456,-0.09817227,
2,0,0,1,0,34691,-0.110611,-0.110949,-45.8526,18,-7.41771e-05,10,0.00508731,-1.33864,-7.22367,-0.0081676,14.6321,-0.110949,
2,0,0,1,0,34691,-0.123418,-0.123776,-46.1817,18,-0.000810298,10,0.00571618,-1.33553,-2.99659,-0.019689,35.5192,-0.123776,
2,0,0,1,0,34691,-0.136214,-0.136589,-46.7496,18,-0.00155363,10,0.00638547,-1.33022,-2.09416,-0.0281735,51.4376,-0.136589,
2,0,0,1,0,34691,-0.149015,-0.149354,-47.5092,18,-0.00230771,10,0.00709568,-1.32322,-1.73248,-0.0340553,63.1497,-0.149354,
2,0,0,1,0,34691,-0.161816,-0.162199,-48.3375,18,-0.00307449,10,0.00784028,-1.31572,-1.72926,-0.0341186,64.3503,-0.162199,
2,0,0,1,0,34691,-0.174615,-0.174963,-49.1345,18,-0.00385443,10,0.00859671,-1.30861,-1.86447,-0.0316444,60.6711,-0.174963,
2,0,0,1,0,34691.1,-0.187419,-0.187803,-49.8725,18,-0.00464678,10,0.00936622,-1.30214,-2.11772,-0.0278601,54.2157,-0.187803,
2,0,0,1,0,34691.1,-0.199647,-0.199907,-50.4933,18,-0.00541493,10,0.010094,-1.29677,0.253178,0.233038,-445.828,-0.199907,
2,0,0,1,1,34691.1,-0.192535,-0.192999,-37.914,18,-0.00585696,10,0.00731736,-1.4212,-0.0680398,-0.86714,1312.28,-0.192999,
2,0,0,1,1,34691.1,-0.179739,-0.180152,-25.2513,18,-0.00635409,10,0.00454908,-1.59772,-0.0708248,-0.833042,822.573,-0.180152,
2,0,0,1,1,34691.1,-0.166932,-0.167347,-16.1055,18,-0.00668103,10,0.0026952,-1.79303,-0.0575458,-1.02527,639.195,-0.167347,
2,0,0,1,1,34691.1,-0.154139,-0.154588,-8.73148,18,-0.00687714,10,0.00134978,-2.05891,-0.0366911,-1.60802,527.784,-0.154588,
2,0,0,1,1,34691.1,-0.141335,-0.141761,-2.46625,18,-0.00696474,10,0.000349618,-2.60796,-0.0107242,-5.50158,455.469,-0.141761,
2,1,0,1,1,34691.2,-0.12854,-0.128954,2.98773,18,-0.00695905,10,-0.000385279,-2.52466,0.0106809,5.52387,402.643,-0.128954,
2,1,0,1,1,34691.2,-0.115736,-0.116219,7.86782,18,-0.00687104,10,-0.000914393,-2.10415,0.047976,1.22978,363.547,-0.116219,
2,1,0,1,1,34691.2,-0.102932,-0.103336,12.309,18,-0.00670869,10,-0.00127197,-1.90978,0.084683,0.696716,329.755,-0.103336,
2,1,0,1,1,34691.2,-0.0901362,-0.0905554,16.3442,18,-0.00647862,10,-0.00148005,-1.78664,0.124306,0.474636,300.419,-0.0905554,
2,1,0,1,1,34691.2,-0.0773322,-0.0777382,20.0124,18,-0.00618693,10,-0.00155572,-1.6987,0.168117,0.350946,272.886,-0.0777382,
2,1,0,1,1,34691.2,-0.0645393,-0.0649253,23.3483,18,-0.0058392,10,-0.00151589,-1.63175,0.21506,0.274341,249.254,-0.0649253,
2,1,0,1,1,34691.3,-0.0517325,-0.0521167,26.399,18,-0.00544049,10,-0.00137583,-1.57841,0.269939,0.218568,224.552,-0.0521167,
2,1,0,1,1,34691.3,-0.0389369,-0.0393218,29.1288,18,-0.00499573,10,-0.0011454,-1.53568,0.331254,0.178111,202.02,-0.0393218,
2,1,0,1,1,34691.3,-0.0261357,-0.0264983,31.5381,18,-0.00450971,10,-0.000835707,-1.50116,0.406489,0.145145,178.422,-0.0264983,
2,1,0,1,1,34691.3,-0.01334,-0.0137469,33.6541,18,-0.00398739,10,-0.000462639,-1.47296,0.508766,0.115967,152.146,-0.0137469,
2,1,0,1,1,34691.3,-0.000774629,-0.00116994,35.4377,18,-0.00344432,10,-4.14599e-05,-1.45053, , , ,-0.00116994,
2,1,0,0,1,34691.3,-0.000125413,-0.000535284,35.5438,18,-0.00341594,10,-1.9026e-05,-1.44924, , , ,-0.000535284,

File: 20221101_1-115_003_TrumpetPlot_ParaChange_from10_every3_13_CV_C01_18.csv
mode,ox/red,error,control changes,counter inc.,time/s,control/V,Ewe/V,<I>/mA,cycle number,(Q-Qo)/C,I Range,P/W,log(|I|),Tafel slope mV/dec,alpha_eff,dI/d(E-IR),E-IR/V,
2,1,0,1,0,36660.2,2.44065e-05,-0.000325324,17.8513,19,0.0000000E+000,10,-5.80746e-06,-1.74833, , , ,-0.000325324,
2,1,0,1,0,36660.2,0.0122624,0.0119139,21.8914,19,0.00030496,10,0.000260811,-1.65973,0.196864,0.2997,254.098,0.0119139,
2,1,0,1,0,36660.2,0.0250636,0.0247215,24.7304,19,0.000679102,10,0.000611373,-1.60677,0.283449,0.20815,200.257,0.0247215,
2,1,0,1,0,36660.3,0.0378704,0.0375057,27.1011,19,0.00109448,10,0.00101645,-1.56701,0.360156,0.163818,172.961,0.0375057,
2,1,0,1,0,36660.3,0.0506632,0.0503292,29.2064,19,0.00154538,10,0.00146994,-1.53452,0.42117,0.140086,159.539,0.0503292,
2,1,0,1,0,36660.3,0.0634672,0.0630976,31.2128,19,0.00202901,10,0.00196946,-1.50567,0.467056,0.126323,153.767,0.0630976,
2,1,0,1,0,36660.3,0.0762628,0.0758999,33.1878,19,0.00254435,10,0.00251895,-1.47902,0.487102,0.121124,156.839,0.0758999,
2,1,0,1,0,36660.3,0.0890668,0.088717,35.2028,19,0.00309167,10,0.00312309,-1.45342,0.505073,0.116815,160.521,0.088717,
2,1,0,1,0,36660.3,0.10186,0.101494,37.2658,19,0.00367172,10,0.00378225,-1.42869,0.528124,0.111716,162.512,0.101494,
2,1,0,1,0,36660.3,0.114666,0.114253,39.3749,19,0.00428512,10,0.00449869,-1.40478,0.53959,0.109342,168.076,0.114253,
2,1,0,1,0,36660.4,0.127462,0.127069,41.5716,19,0.00493281,10,0.00528246,-1.3812,0.55233,0.10682,173.301,0.127069,
2,1,0,1,0,36660.4,0.140263,0.139815,43.8354,19,0.00561607,10,0.00612884,-1.35818,0.529324,0.111463,190.955,0.139815,
2,1,0,1,0,36660.4,0.153064,0.152675,46.3893,19,0.00633834,10,0.00708251,-1.33358,0.54512,0.108233,195.908,0.152675,
2,1,0,1,0,36660.4,0.165866,0.165493,48.8588,19,0.00710085,10,0.00808577,-1.31106,0.605437,0.0974503,185.703,0.165493,
2,1,0,1,0,36660.4,0.178667,0.178288,51.1001,19,0.00790121,10,0.00911056,-1.29158,0.742131,0.0795007,158.332,0.178288,
2,1,0,1,0,36660.4,0.191463,0.191147,52.8563,19,0.0087339,10,0.0101033,-1.2769,1.14351,0.0515956,106.175,0.191147,
2,1,0,1,0,36660.5,0.204269,0.203894,53.7125,19,0.00958798,10,0.0109517,-1.26992,5.28405,0.0111657,23.3405,0.203894,
2,1,0,1,0,36660.5,0.217062,0.216752,53.4012,19,0.0104466,10,0.0115748,-1.27245,-1.70665,-0.0345706,-71.8452,0.216752,
2,1,0,1,0,36660.5,0.229866,0.229576,51.8744,19,0.0112903,10,0.0119091,-1.28505,-0.732211,-0.0805779,-162.708,0.229576,
2,1,0,1,0,36660.5,0.242662,0.242319,49.3013,19,0.0121006,10,0.0119466,-1.30714,-0.487819,-0.120947,-232.242,0.242319,
2,1,0,1,0,36660.5,0.255466,0.255095,46.0638,19,0.0128638,10,0.0117506,-1.33664,-0.401101,-0.147095,-264.22,0.255095,
2,1,0,1,0,36660.5,0.268259,0.267917,42.6529,19,0.0135732,10,0.0114274,-1.37005,-0.377434,-0.156319,-260.295,0.267917,
2,1,0,1,0,36660.6,0.281065,0.280765,39.4712,19,0.0142295,10,0.0110821,-1.40372,-0.389318,-0.151547,-233.643,0.280765,
2,1,0,1,0,36660.6,0.293861,0.293574,36.6851,19,0.014838,10,0.0107698,-1.43551,-0.424134,-0.139107,-199.778,0.293574,
2,1,0,1,0,36660.6,0.298983,0.29881,33.3255,19,0.0151597,10,0.00995799,-1.47722,0.0409869,1.43948,1654.56,0.29881,
2,1,0,1,0,36660.6,0.286187,0.285977,17.5457,19,0.01555,10,0.00501766,-1.75583,0.0443165,1.33133,912.35,0.285977,
2,1,0,1,0,36660.6,0.273386,0.273104,8.07538,19,0.0157491,10,0.00220542,-2.09284,0.0290879,2.02833,615.007,0.273104,
2,1,0,1,0,36660.6,0.260585,0.260284,1.43433,19,0.0158217,10,0.000373333,-2.84335,0.0220979,2.66993,441.118,0.260284,
2,0,0,1,0,36660.6,0.247783,0.247511,-3.4505,19,0.0158032,10,-0.000854037,-2.46212,-0.0192264,-3.0687,333.813,0.247511,
2,0,0,1,0,36660.7,0.234982,0.234682,-7.18755,19,0.0157164,10,-0.00168679,-2.14342,-0.0621911,-0.948688,257.947,0.234682,
2,0,0,1,0,36660.7,0.222187,0.221932,-10.1258,19,0.0155766,10,-0.00224723,-1.99457,-0.11118,-0.53067,207.348,0.221932,
2,0,0,1,0,36660.7,0.20938,0.209079,-12.5424,19,0.0153943,10,-0.00262236,-1.90162,-0.168625,-0.349888,170.098,0.209079,
2,0,0,1,0,36660.7,0.196587,0.19627,-14.5617,19,0.0151769,10,-0.00285803,-1.83679,-0.226125,-0.260918,147.726,0.19627,
2,0,0,1,0,36660.7,0.183783,0.183478,-16.3358,19,0.0149292,10,-0.00299726,-1.78686,-0.281962,-0.209248,133.195,0.1834781,
2,0,0,1,0,36660.7,0.170987,0.170704,-17.9743,19,0.0146544,10,-0.00306829,-1.74535,-0.324511,-0.181812,127.597,0.170704,
2,0,0,1,0,36660.8,0.158183,0.1579,-19.6526,19,0.0143531,10,-0.00310315,-1.70658,-0.331057,-0.178217,136.829,0.1579,
2,0,0,1,0,36660.8,0.145385,0.145097,-21.5581,19,0.0140237,10,-0.00312801,-1.66639,-0.299955,-0.196696,165.829,0.1450967,
2,0,0,1,0,36660.8,0.132584,0.132295,-24.0016,19,0.0136599,10,-0.0031753,-1.61976,-0.249465,-0.236506,222.239,0.132295,
2,0,0,1,0,36660.8,0.119782,0.119496,-27.2647,19,0.0132506,10,-0.00325803,-1.5644,-0.217794,-0.270898,288.96,0.119496,
2,0,0,1,0,36660.8,0.106987,0.106683,-31.291,19,0.0127823,10,-0.00333823,-1.50458,-0.219422,-0.268888,328.131,0.106683,
2,0,0,1,0,36660.8,0.0941801,0.0939162,-35.5183,19,0.0122473,10,-0.00333574,-1.44955,-0.252926,-0.23327,322.642,0.0939162,
2,0,0,1,0,36660.9,0.0813844,0.0811701,-39.4379,19,0.0116466,10,-0.00320118,-1.40409,-0.310735,-0.189872,291.811,0.0811701,
2,0,0,1,0,36660.9,0.0685832,0.0683318,-42.9555,19,0.0109861,10,-0.00293523,-1.36698,-0.402727,-0.146501,244.884,0.0683318,
2,0,0,1,0,36660.9,0.0557876,0.0555316,-45.6967,19,0.0102755,10,-0.00253761,-1.34011,-0.556392,-0.10604,188.79,0.0555316,
2,0,0,1,0,36660.9,0.0429808,0.0426964,-47.8037,19,0.00952632,10,-0.00204105,-1.32054,-0.797551,-0.0739764,137.759,0.0426964,
2,0,0,1,0,36660.9,0.030188,0.0298623,-49.2482,19,0.00874888,10,-0.00147067,-1.30761,-1.24233,-0.0474912,91.1637,0.0298623,
2,0,0,1,0,36660.9,0.017384,0.0170791,-50.1859,19,0.00795264,10,-0.000857131,-1.29942,-2.07362,-0.0284527,55.6617,0.0170791,
2,0,0,1,0,36660.9,0.00458834,0.00429699,-50.6831,19,0.00714507,10,-0.000217785,-1.29514,-4.41053,-0.0133771,26.4447,0.00429699,
2,0,0,1,0,36661,-0.00821564,-0.00856999,-50.8272,19,0.00633214,10,0.000435588,-1.2939,18.3906,0.00320816,-6.35821,-0.00856999,
2,0,0,1,0,36661,-0.0210196,-0.0214073,-50.5514,19,0.00552057,10,0.00108217,-1.29627,3.0547,0.0193145,-38.0652,-0.0214073,
2,0,0,1,0,36661,-0.0338153,-0.0341703,-49.8971,19,0.0047166,10,0.001705,-1.30192,1.86303,0.0316688,-61.6246,-0.0341703,
2,0,0,1,0,36661,-0.0466193,-0.0470246,-49.0049,19,0.00392527,10,0.00230444,-1.30976,1.50532,0.0391944,-74.9308,-0.0470246,
2,0,0,1,0,36661,-0.0594121,-0.0597484,-48.0307,19,0.00314908,10,0.00286976,-1.31848,1.53367,0.0384698,-72.133,-0.0597484,
2,0,0,1,0,36661,-0.0722189,-0.0726037,-47.1723,19,0.00238766,10,0.00342489,-1.32631,1.83988,0.0320673,-59.0773,-0.0726037,
2,0,0,1,0,36661.1,-0.0850146,-0.0853753,-46.5271,19,0.00163834,10,0.00397226,-1.33229,2.66157,0.0221673,-40.2891,-0.0853753,
2,0,0,1,0,36661.1,-0.0978158,-0.0981733,-46.1586,19,0.00089714,10,0.00453154,-1.33575,5.79363,0.0101836,-18.3596,-0.0981733,
2,0,0,1,0,36661.1,-0.110611,-0.11095,-46.0668,19,0.000159679,10,0.00511112,-1.33661,-27.4329,-0.0021507,3.86962,-0.11095,
2,0,0,1,0,36661.1,-0.123418,-0.123725,-46.2589,19,-0.00057865,10,0.00572337,-1.3348,-4.26982,-0.0138179,24.9612,-0.123725,
2,0,0,1,0,36661.1,-0.136214,-0.136526,-46.6734,19,-0.00132195,10,0.00637213,-1.33093,-2.60351,-0.0226617,41.3117,-0.136526,
2,0,0,1,0,36661.1,-0.149015,-0.149384,-47.2943,19,-0.00207376,10,0.00706499,-1.32519,-2.0578,-0.0286714,52.9429,-0.149384,
2,0,0,1,0,36661.2,-0.161816,-0.162222,-48.0025,19,-0.00283623,10,0.00778706,-1.31874,-2.01131,-0.0293342,54.9561,-0.162222,
2,0,0,1,0,36661.2,-0.174615,-0.174955,-48.7122,19,-0.00361009,10,0.00852245,-1.31236,-2.11638,-0.0278777,52.9774,-0.174955,
2,0,0,1,0,36661.2,-0.187419,-0.187754,-49.3473,19,-0.00439471,10,0.00926517,-1.30674,-2.40178,-0.0245651,47.2975,-0.187754,
2,0,0,1,0,36661.2,-0.199647,-0.19996,-49.8606,19,-0.00515404,10,0.00997011,-1.30224,0.25964,0.227238,-430.057,-0.19996,
2,0,0,1,1,36661.2,-0.192535,-0.19293,-37.9459,19,-0.0055934,10,0.00732092,-1.42083,-0.0711934,-0.828729,1253.54,-0.19293,
2,0,0,1,1,36661.2,-0.179739,-0.180152,-25.8205,19,-0.00609567,10,0.00465162,-1.58804,-0.0753575,-0.782934,790.113,-0.180152,
2,0,0,1,1,36661.2,-0.166932,-0.167328,-16.9687,19,-0.00643415,10,0.00283933,-1.77035,-0.0630734,-0.935418,615.615,-0.167328,
2,0,0,1,1,36661.3,-0.154139,-0.154555,-9.79496,19,-0.00664587,10,0.00151386,-2.009,-0.0424515,-1.38982,517.954,-0.154555,
2,0,0,1,1,36661.3,-0.141335,-0.141736,-3.6781,19,-0.00675186,10,0.000521319,-2.43438,-0.0149171,-3.95519,445.259,-0.1417359,
2,1,0,1,1,36661.3,-0.12854,-0.12898,1.6722,19,-0.00676644,10,-0.000215681,-2.77671,0.0194636,3.0313,395.98,-0.12898,
2,1,0,1,1,36661.3,-0.115736,-0.116213,6.47509,19,-0.00669995,10,-0.000752489,-2.18875,0.0394926,1.49395,358.788,-0.116213,
2,1,0,1,1,36661.3,-0.102932,-0.103388,10.877,19,-0.00656018,10,-0.00112456,-1.96349,0.0754708,0.781759,325.886,-0.103388,
2,1,0,1,1,36661.3,-0.0901361,-0.0905956,14.8866,19,-0.00635327,10,-0.00134866,-1.82721,0.112746,0.523299,301.282,-0.0905956,
2,1,0,1,1,36661.4,-0.0773322,-0.0777403,18.5678,19,-0.00608484,10,-0.00144347,-1.73124,0.155216,0.380116,273.964,-0.0777403,
2,1,0,1,1,36661.4,-0.0645393,-0.0649402,21.9083,19,-0.00576023,10,-0.00142273,-1.65939,0.200691,0.293984,250.677,-0.0649402,
2,1,0,1,1,36661.4,-0.0517325,-0.0521676,24.9849,19,-0.0053842,10,-0.0013034,-1.60232,0.250816,0.235232,228.844,-0.0521676,
2,1,0,1,1,36661.4,-0.0389369,-0.0393239,27.7661,19,-0.00496146,10,-0.00109187,-1.55649,0.311495,0.189409,204.82,-0.0393239,
2,1,0,1,1,36661.4,-0.0261357,-0.0265227,30.2615,19,-0.00449661,10,-0.000802615,-1.51911,0.377903,0.156125,184.039,-0.0265227,
2,1,0,1,1,36661.4,-0.01334,-0.0136971,32.4559,19,-0.00399423,10,-0.00044455,-1.48871,0.46308,0.127408,161.174,-0.0136971,
2,1,0,1,1,36661.5,-0.000774629,-0.0011763,34.3292,19,-0.00346929,10,-4.03815e-05,-1.46434, , , ,-0.0011763,
2,1,0,0,1,36661.5,-0.000125413,-0.000554371,34.4333,19,-0.0034418,10,-1.90888e-05,-1.46302, , , ,-0.000554371,