Folder: Figs_alphaMnO2_OER_Tafel_sleope/Figure_codes/Fig_3-5/rawdata_trumpetplot_data/after 10th (part 68)

File: 20221101_1-115_003_TrumpetPlot_ParaChange_from10_every3_05_CV_C01_31.csv
mode,ox/red,error,control changes,counter inc.,time/s,control/V,Ewe/V,<I>/mA,cycle number,(Q-Qo)/C,I Range,P/W,log(|I|),Tafel slope mV/dec,alpha_eff,dI/d(E-IR),E-IR/V,
2,0,0,1,0,62194.1,2.44065e-05,-0.000325324,-0.743058,32,0.0000000E+000,10,2.41734e-07,-3.12898, , , ,-0.000325324,
2,1,0,1,0,62194.4,0.00729063,0.00698613,0.59963,32,0.000100394,10,4.1891e-06,-3.22212,0.0333742,1.76783,40.1136,0.00698613,
2,1,0,1,0,62194.8,0.0147802,0.0144218,0.776032,32,0.000367855,10,1.11918e-05,-3.11012,0.105742,0.557963,16.8603,0.0144218,
2,1,0,1,0,62195.2,0.0222725,0.0219317,0.878613,32,0.000683608,10,1.92695e-05,-3.0562,0.155998,0.37821,12.9545,0.02193168,
2,1,0,1,0,62195.5,0.0297644,0.0294392,0.968396,32,0.00103472,10,2.85088e-05,-3.01395,0.1975,0.298734,11.2709,0.02943922,
2,1,0,1,0,62195.9,0.0372544,0.0368877,1.05677,32,0.00141908,10,3.89816e-05,-2.97602,0.214354,0.275246,11.352,0.0368877,
2,1,0,1,0,62196.3,0.0447449,0.0444147,1.14204,32,0.00183595,10,5.07232e-05,-2.94232,0.219318,0.269016,11.9932,0.0444147,
2,1,0,1,0,62196.7,0.0522363,0.0519063,1.2244,32,0.00228474,10,6.35541e-05,-2.91208,0.251303,0.234776,11.2181,0.0519063,
2,1,0,1,0,62197,0.0597291,0.0593616,1.30386,32,0.00276358,10,7.73994e-05,-2.88477,0.307633,0.191787,9.7312,0.0593616,
2,1,0,1,0,62197.4,0.0672182,0.0669394,1.37096,32,0.00326887,10,9.17713e-05,-2.86297,0.351628,0.167791,8.95164,0.0669394,
2,1,0,1,0,62197.8,0.0747092,0.0743483,1.42391,32,0.00379767,10,0.000105865,-2.84652,0.528684,0.111598,6.20184,0.0743483,
2,1,0,1,0,62198.2,0.0822001,0.0818674,1.47142,32,0.00434588,10,0.000120461,-2.83226,0.589032,0.100164,5.75769,0.0818674,
2,1,0,1,0,62198.5,0.0896911,0.0893457,1.52452,32,0.00491219,10,0.00013621,-2.81687,0.465657,0.126703,7.55549,0.0893457,
2,1,0,1,0,62198.9,0.097182,0.0968133,1.60607,32,0.00550285,10,0.000155489,-2.79424,0.252983,0.233217,14.6364,0.0968133,
2,1,0,1,0,62199.3,0.104673,0.104329,1.73648,32,0.0061326,10,0.000181166,-2.76033,0.200846,0.293758,19.8947,0.104329,
2,1,0,1,0,62199.7,0.112164,0.111817,1.87821,32,0.00681506,10,0.000210015,-2.72626,0.244839,0.240974,17.6361,0.111817,
2,1,0,1,0,62200,0.119655,0.119301,1.98887,32,0.00754579,10,0.000237275,-2.70139,0.468461,0.125944,9.75752,0.119301,
2,1,0,1,0,62200.4,0.127146,0.126816,2.0402,32,0.00830697,10,0.000258729,-2.69033,0.967318,0.0609934,4.86117,0.126816,
2,1,0,1,0,62200.8,0.134637,0.134303,2.06217,32,0.00908235,10,0.000276956,-2.68568,-2.61451,-0.0225664,-1.81541,0.134303,
2,1,0,1,0,62201.2,0.142128,0.141781,1.97745,32,0.00984984,10,0.000280365,-2.7039,-0.193234,-0.30533,-23.4801,0.141781,
2,1,0,1,0,62201.5,0.149619,0.149248,1.709,32,0.0105506,10,0.000255065,-2.76726,-0.0883096,-0.668104,-44.4814,0.149248,
2,1,0,1,0,62201.9,0.157108,0.156767,1.39302,32,0.0111344,10,0.00021838,-2.85604,-0.0882812,-0.668319,-36.3835,0.156767,
2,1,0,1,0,62202.3,0.164601,0.16422,1.18732,32,0.0116191,10,0.000194982,-2.92543,-0.134184,-0.439694,-20.4215,0.16422,
2,1,0,1,0,62202.7,0.172092,0.171767,1.07772,32,0.0120466,10,0.000185116,-2.9675,-0.24004,-0.245792,-10.3625,0.171767,
2,1,0,1,0,62203,0.179582,0.179241,1.0204,32,0.0124438,10,0.000182898,-2.99123,-0.388588,-0.151832,-6.06494,0.179241,
2,1,0,1,0,62203.4,0.187073,0.186712,0.987704,32,0.0128246,10,0.000184417,-3.00537,-0.791343,-0.0745568,-2.87117,0.186712,
2,1,0,1,0,62203.8,0.194564,0.194213,0.966809,32,0.0131952,10,0.000187767,-3.01466,-1.32156,-0.0446442,-1.68174,0.194213,
2,1,0,1,0,62204.2,0.202057,0.201671,0.950296,32,0.0135589,10,0.000191647,-3.02214,-0.952426,-0.0619471,-2.29526,0.201671,
2,1,0,1,0,62204.5,0.209546,0.209191,0.941079,32,0.0139179,10,0.000196865,-3.02637,-0.912069,-0.0646881,-2.37338,0.209191,
2,1,0,1,0,62204.9,0.217037,0.216682,0.929937,32,0.0142727,10,0.0002015,-3.03155,-3.26931,-0.0180466,-0.656233,0.216682,
2,1,0,1,0,62205.3,0.224528,0.224159,0.922203,32,0.0146248,10,0.00020672,-3.03517,-2.01387,-0.0292968,-1.05473,0.2241585,
2,1,0,1,0,62205.7,0.232019,0.231653,0.916177,32,0.0149741,10,0.000212235,-3.03802,-8.18549,-0.00720787,-0.25764,0.231653,
2,1,0,1,0,62206,0.23951,0.239169,0.911706,32,0.0153214,10,0.000218052,-3.04015,-3.84604,-0.0153404,-0.546038,0.239169,
2,1,0,1,0,62206.4,0.247001,0.246695,0.906404,32,0.0156667,10,0.000223606,-3.04268,-1.40257,-0.0420655,-1.48651,0.246695,
2,1,0,1,0,62206.8,0.254492,0.254171,0.900475,32,0.0160101,10,0.000228875,-3.04553,-1.47611,-0.03997,-1.40676,0.254171,
2,1,0,1,0,62207.2,0.261983,0.261671,0.895176,32,0.0163515,10,0.000234242,-3.04809,-8.55263,-0.00689846,-0.241601,0.261671,
2,1,0,1,0,62207.5,0.269474,0.26913,0.89248,32,0.016691,10,0.000240193,-3.0494,54.9788,0.00107314,0.0373508,0.26913,
2,1,0,1,0,62207.9,0.276965,0.276676,0.884324,32,0.0170283,10,0.000244671,-3.05339,-4.10876,-0.0143596,-0.495908,0.276676,
2,1,0,1,0,62208.3,0.284456,0.284123,0.878577,32,0.0173634,10,0.000249623,-3.05622,-1.42401,-0.0414322,-1.41947,0.284123,
2,1,0,1,0,62208.7,0.291947,0.29162,0.870671,32,0.0176957,10,0.000253905,-3.06015,-2.14376,-0.0275218,-0.935427,0.29162,
2,1,0,1,0,62209,0.299436,0.299071,0.86283,32,0.0180252,10,0.000258047,-3.06407,-0.0048825,-12.084,-277.363,0.299071,
2,0,0,1,0,62209.4,0.293745,0.293389,-0.14675,32,0.0180692,10,-4.30548e-05,-3.83342,-0.00980131,-6.0196,28.9962,0.293389,
2,0,0,1,0,62209.7,0.286254,0.285927,-0.266787,32,0.0179836,10,-7.62816e-05,-3.57384,-0.0580345,-1.01664,10.5857,0.285927,
2,0,0,1,0,62210.1,0.278763,0.278426,-0.333796,32,0.0178651,10,-9.29374e-05,-3.47652,-0.101663,-0.580348,7.56731,0.278426,
2,0,0,1,0,62210.5,0.271272,0.270927,-0.385734,32,0.0177249,10,-0.000104505,-3.41371,-0.135216,-0.43634,6.55074,0.270927,
2,0,0,1,0,62210.9,0.263781,0.263453,-0.426427,32,0.0175677,10,-0.000112343,-3.37016,-0.199543,-0.295676,4.91608,0.263453,
2,0,0,1,0,62211.2,0.25629,0.255965,-0.462894,32,0.0173962,10,-0.000118485,-3.33452,-0.28806,-0.204818,3.6914,0.255965,
2,0,0,1,0,62211.6,0.248799,0.248422,-0.494725,32,0.0172118,10,-0.0001229,-3.30564,-0.304949,-0.193475,3.74338,0.248422,
2,0,0,1,0,62212,0.241308,0.240958,-0.522013,32,0.0170161,10,-0.000125783,-3.28232,-0.335091,-0.176071,3.60195,0.240958,
2,0,0,1,0,62212.4,0.233817,0.233489,-0.549715,32,0.0168098,10,-0.000128352,-3.25986,-0.404263,-0.145945,3.13826,0.233489,
2,0,0,1,0,62212.7,0.226326,0.22602,-0.576876,32,0.0165934,10,-0.000130385,-3.23892,-0.333079,-0.177135,3.99046,0.22602,
2,0,0,1,0,62213.1,0.218835,0.218482,-0.603427,32,0.0163673,10,-0.000131838,-3.21938,-0.393235,-0.150037,3.52628,0.218482,
2,0,0,1,0,62213.5,0.211344,0.210983,-0.62932,32,0.0161317,10,-0.000132776,-3.20113,-0.50868,-0.115986,2.83752,0.210983,
2,0,0,1,0,62213.9,0.203855,0.203508,-0.651407,32,0.0158867,10,-0.000132566,-3.18615,-0.496358,-0.118866,3.03132,0.203508,
2,0,0,1,0,62214.2,0.196362,0.196016,-0.676201,32,0.0156326,10,-0.000132546,-3.16992,-0.499419,-0.118137,3.12248,0.196016,
2,0,0,1,0,62214.6,0.188871,0.188479,-0.704038,32,0.0153685,10,-0.000132697,-3.1524,-0.318937,-0.18499,5.09658,0.1884792,
2,0,0,1,0,62215,0.18138,0.181012,-0.735694,32,0.0150935,10,-0.000133169,-3.1333,-0.322897,-0.182721,5.24211,0.181012,
2,0,0,1,0,62215.4,0.173891,0.173502,-0.770258,32,0.0148067,10,-0.000133642,-3.11336,-0.313696,-0.18808,5.65196,0.173502,
2,0,0,1,0,62215.7,0.166398,0.165998,-0.812193,32,0.0145056,10,-0.000134823,-3.09034,-0.2927,-0.201572,6.38667,0.165998,
2,0,0,1,0,62216.1,0.158906,0.158524,-0.866984,32,0.0141864,10,-0.000137438,-3.06199,-0.2162,-0.272896,9.23707,0.158524,
2,0,0,1,0,62216.5,0.151417,0.151083,-0.948013,32,0.0138421,10,-0.000143228,-3.02319,-0.164464,-0.358741,13.3292,0.151083,
2,0,0,1,0,62216.9,0.143926,0.143533,-1.08652,32,0.0134581,10,-0.000155952,-2.96396,-0.0984094,-0.599536,25.4498,0.143533,
2,0,0,1,0,62217.2,0.136435,0.136067,-1.30154,32,0.0130078,10,-0.000177097,-2.88554,-0.0890748,-0.662364,33.6798,0.136067,
2,0,0,1,0,62217.6,0.128942,0.128568,-1.56743,32,0.0124655,10,-0.000201521,-2.80481,-0.101845,-0.579311,35.336,0.128568,
2,0,0,1,0,62218,0.121453,0.121125,-1.8118,32,0.0118262,10,-0.000219454,-2.74189,-0.143747,-0.410444,28.9677,0.121125,
2,0,0,1,0,62218.4,0.113962,0.113595,-1.98927,32,0.0111059,10,-0.000225972,-2.70131,-0.272261,-0.216704,16.815,0.113595,
2,0,0,1,0,62218.7,0.106471,0.106117,-2.07277,32,0.0103357,10,-0.000219957,-2.68345,-1.15138,-0.0512428,4.14498,0.106117,
2,0,0,1,0,62219.1,0.0989798,0.0986336,-2.06192,32,0.00955328,10,-0.000203375,-2.68573,1.13072,0.0521791,-4.19907,0.0986336,
2,0,0,1,0,62219.5,0.0914889,0.0911484,-2.01529,32,0.00878406,10,-0.000183691,-2.69566,0.689785,0.0855339,-6.71859,0.0911484,
2,0,0,1,0,62219.9,0.083998,0.0836418,-1.96552,32,0.00803428,10,-0.0001644,-2.70652,0.69242,0.0852084,-6.53152,0.0836418,
2,0,0,1,0,62220.2,0.076507,0.0761543,-1.92307,32,0.00730083,10,-0.00014645,-2.716,0.810498,0.0727948,-5.46274,0.0761543,
2,0,0,1,0,62220.6,0.069016,0.0686893,-1.87633,32,0.00658354,10,-0.000128884,-2.72669,0.668601,0.088244,-6.47596,0.0686893,
2,0,0,1,0,62221,0.0615251,0.0611389,-1.82968,32,0.00588295,10,-0.000111865,-2.73762,0.63523,0.0928797,-6.64392,0.0611389,
2,0,0,1,0,62221.4,0.0540342,0.0536799,-1.77911,32,0.00520124,10,-9.55023e-05,-2.7498,0.68013,0.0867482,-6.02551,0.0536799,
2,0,0,1,0,62221.7,0.0465432,0.0461966,-1.72587,32,0.0045391,10,-7.97291e-05,-2.76299,0.55791,0.105752,-7.12525,0.0461966,
2,0,0,1,0,62222.1,0.0390523,0.0387166,-1.66849,32,0.00389808,10,-6.45984e-05,-2.77768,0.434172,0.135891,-8.83849,0.0387166,
2,0,0,1,0,62222.5,0.0315626,0.0311875,-1.6074,32,0.0032798,10,-5.01307e-05,-2.79388,0.453811,0.13001,-8.14894,0.0311875,
2,0,0,1,0,62222.9,0.0240704,0.0237048,-1.54579,32,0.00268362,10,-3.66426e-05,-2.81085,0.452962,0.130254,-7.87526,0.0237048,
2,0,0,1,0,62223.2,0.0165785,0.0162054,-1.50033,32,0.00210764,10,-2.43134e-05,-2.82381,0.646179,0.091306,-5.35303,0.0162054,
2,0,0,1,0,62223.6,0.00908846,0.00873186,-1.46401,32,0.00154767,10,-1.27835e-05,-2.83446,1.10257,0.0535113,-3.0601,0.00873186,
2,0,0,1,0,62224,0.0015984,0.0012026,-1.46051,32,0.000997259,10,-1.75641e-06,-2.83549, , , ,0.0012026,
2,0,0,1,0,62224,0.000199195,-0.000191404,-1.44878,32,0.00089441,10,2.77303e-07,-2.839, , , ,-0.000191404,

File: 20221101_1-115_003_TrumpetPlot_ParaChange_from10_every3_05_CV_C01_32.csv
mode,ox/red,error,control changes,counter inc.,time/s,control/V,Ewe/V,<I>/mA,cycle number,(Q-Qo)/C,I Range,P/W,log(|I|),Tafel slope mV/dec,alpha_eff,dI/d(E-IR),E-IR/V,
2,0,0,1,0,64164.2,2.44065e-05,-0.000306236,-0.735426,33,0.0000000E+000,10,2.25214e-07,-3.13346, , , ,-0.000306236,
2,1,0,1,0,64164.6,0.00729063,0.00694069,0.614857,33,0.000109446,10,4.26754e-06,-3.21123,0.0368297,1.60197,37.4649,0.00694069,
2,1,0,1,0,64164.9,0.0147802,0.01448,0.782823,33,0.000381785,10,1.13353e-05,-3.10634,0.107422,0.549234,16.7772,0.01448,
2,1,0,1,0,64165.3,0.0222725,0.0219485,0.88411,33,0.000700744,10,1.94049e-05,-3.05349,0.15987,0.36905,12.7074,0.0219485,
2,1,0,1,0,64165.7,0.0297644,0.0294828,0.974068,33,0.00105428,10,2.87182e-05,-3.01141,0.198992,0.296495,11.2271,0.0294828,
2,1,0,1,0,64166.1,0.0372544,0.0369347,1.05961,33,0.00144069,10,3.91363e-05,-2.97485,0.229105,0.257524,10.6553,0.0369347,
2,1,0,1,0,64166.4,0.0447449,0.04439,1.14608,33,0.00185977,10,5.08744e-05,-2.94079,0.240646,0.245173,10.9656,0.04439,
2,1,0,1,0,64166.8,0.0522363,0.0519147,1.22809,33,0.00231071,10,6.37561e-05,-2.91077,0.244733,0.241079,11.5511,0.0519147,
2,1,0,1,0,64167.2,0.0597291,0.0594147,1.30546,33,0.00279173,10,7.75632e-05,-2.88424,0.313579,0.18815,9.58435,0.0594147,
2,1,0,1,0,64167.5,0.0672182,0.0669033,1.37619,33,0.00329939,10,9.2072e-05,-2.86132,0.35302,0.167129,8.94589,0.0669033,
2,1,0,1,0,64167.9,0.0747092,0.0743656,1.42991,33,0.00383048,10,0.000106336,-2.84469,0.542901,0.108675,6.05774,0.0743656,
2,1,0,1,0,64168.3,0.0822001,0.0818744,1.47797,33,0.00438107,10,0.000121008,-2.83033,0.683298,0.086346,4.98171,0.0818744,
2,1,0,1,0,64168.7,0.0896911,0.0893933,1.52909,33,0.00494953,10,0.00013669,-2.81557,0.406163,0.145262,8.69211,0.0893933,
2,1,0,1,0,64169,0.097182,0.0968651,1.61354,33,0.00554269,10,0.000156296,-2.79222,0.239932,0.245903,15.4762,0.0968651,
2,1,0,1,0,64169.4,0.104673,0.10434,1.74392,33,0.00617539,10,0.00018196,-2.75847,0.198628,0.297038,20.1745,0.10434,
2,1,0,1,0,64169.8,0.112164,0.111812,1.88647,33,0.00686147,10,0.000210931,-2.72435,0.243044,0.242755,17.8716,0.1118125,
2,1,0,1,0,64170.2,0.119655,0.119337,2.00112,33,0.0075966,10,0.000238808,-2.69873,0.499805,0.118046,9.19423,0.119337,
2,1,0,1,0,64170.5,0.127146,0.126783,2.04669,33,0.00836172,10,0.000259486,-2.68895,1.10204,0.053537,4.28328,0.126783,
2,1,0,1,0,64170.9,0.134637,0.134285,2.06671,33,0.00914013,10,0.000277528,-2.68472,-1.74976,-0.0337188,-2.7178,0.134285,
2,1,0,1,0,64171.3,0.142128,0.14182,1.97667,33,0.00990872,10,0.000280332,-2.70406,-0.192249,-0.306894,-23.5738,0.14182,
2,1,0,1,0,64171.7,0.149619,0.149311,1.70089,33,0.0106077,10,0.00025396,-2.76932,-0.0862086,-0.684386,-45.3443,0.149311,
2,1,0,1,0,64172,0.157108,0.15675,1.38416,33,0.0111886,10,0.000216967,-2.85881,-0.0893039,-0.660665,-35.7564,0.15675,
2,1,0,1,0,64172.4,0.164601,0.164248,1.17986,33,0.0116709,10,0.000193791,-2.92817,-0.134587,-0.438377,-20.2379,0.164248,
2,1,0,1,0,64172.8,0.172092,0.171761,1.07107,33,0.0120962,10,0.000183968,-2.97018,-0.232171,-0.254123,-10.6639,0.171761,
2,1,0,1,0,64173.2,0.179582,0.179228,1.01465,33,0.0124914,10,0.000181855,-2.99368,-0.404097,-0.146004,-5.79456,0.179228,
2,1,0,1,0,64173.5,0.187073,0.186728,0.983092,33,0.0128705,10,0.000183571,-3.00741,-0.751047,-0.078557,-3.00337,0.186728,
2,1,0,1,0,64173.9,0.194564,0.194239,0.963174,33,0.0132396,10,0.000187086,-3.0163,-0.819707,-0.071977,-2.70279,0.1942392,
2,1,0,1,0,64174.3,0.202057,0.201739,0.948187,33,0.0136022,10,0.000191287,-3.02311,-1.09099,-0.0540793,-1.99621,0.201739,
2,1,0,1,0,64174.7,0.209546,0.209179,0.935602,33,0.0139602,10,0.000195708,-3.02891,-0.961205,-0.0613813,-2.24464,0.209179,
2,1,0,1,0,64175,0.217037,0.21672,0.927927,33,0.0143145,10,0.000201101,-3.03249,-2.14513,-0.0275042,-0.997802,0.21672,
2,1,0,1,0,64175.4,0.224528,0.224232,0.921005,33,0.0146662,10,0.000206519,-3.03574,-1.86024,-0.0317163,-1.14006,0.224232,
2,1,0,1,0,64175.8,0.232019,0.231681,0.915653,33,0.0150154,10,0.00021214,-3.03827,-4.07072,-0.0144938,-0.518986,0.231681,
2,1,0,1,0,64176.2,0.23951,0.239204,0.910207,33,0.0153628,10,0.000217726,-3.04086,-10.212,-0.00577749,-0.205317,0.239204,
2,1,0,1,0,64176.5,0.247001,0.24672,0.907562,33,0.0157081,10,0.000223914,-3.04212,-2.80577,-0.0210281,-0.741733,0.24672,
2,1,0,1,0,64176.9,0.254492,0.254175,0.901597,33,0.0160517,10,0.000229164,-3.04499,-2.05241,-0.0287466,-1.01048,0.254175,
2,1,0,1,0,64177.3,0.261983,0.261643,0.894702,33,0.0163932,10,0.000234092,-3.04832,-2.35544,-0.0250484,-0.874929,0.2616429,
2,1,0,1,0,64177.7,0.269474,0.269176,0.888767,33,0.0167328,10,0.000239235,-3.05121,-8.48898,-0.00695019,-0.241209,0.2691761,
2,1,0,1,0,64178,0.276965,0.276605,0.882545,33,0.0170702,10,0.000244116,-3.05426,-1.69378,-0.0348334,-1.20049,0.276605,
2,1,0,1,0,64178.4,0.284456,0.28412,0.877746,33,0.0174053,10,0.000249385,-3.05663,-4.37576,-0.0134834,-0.461827,0.28412,
2,1,0,1,0,64178.8,0.291947,0.291673,0.869566,33,0.0177377,10,0.000253629,-3.0607,-1.91206,-0.0308568,-1.04703,0.291673,
2,1,0,1,0,64179.2,0.299436,0.299088,0.86212,33,0.0180675,10,0.000257849,-3.06443,-0.00462069,-12.7686,-286.339,0.299088,
2,0,0,1,0,64179.5,0.293745,0.293398,-0.155677,33,0.018107,10,-4.56754e-05,-3.80777,-0.0116292,-5.07345,26.7811,0.293398,
2,0,0,1,0,64179.9,0.286254,0.285946,-0.270943,33,0.0180185,10,-7.74752e-05,-3.56712,-0.0592134,-0.996395,10.5052,0.285946,
2,0,0,1,0,64180.3,0.278763,0.278415,-0.339946,33,0.0178978,10,-9.46459e-05,-3.46859,-0.107655,-0.548047,7.22296,0.278415,
2,0,0,1,0,64180.6,0.271272,0.270957,-0.389374,33,0.0177557,10,-0.000105504,-3.40963,-0.138035,-0.427427,6.47107,0.270957,
2,0,0,1,0,64181,0.263781,0.26343,-0.429556,33,0.0175968,10,-0.000113158,-3.36698,-0.192952,-0.305776,5.12288,0.26343,
2,0,0,1,0,64181.4,0.25629,0.255973,-0.465409,33,0.0174237,10,-0.000119132,-3.33217,-0.250075,-0.235929,4.26215,0.255973,
2,0,0,1,0,64181.8,0.248799,0.248432,-0.497153,33,0.0172377,10,-0.000123509,-3.30351,-0.30445,-0.193792,3.76524,0.248432,
2,0,0,1,0,64182.1,0.241308,0.240993,-0.52622,33,0.0170403,10,-0.000126815,-3.27883,-0.348045,-0.169518,3.48055,0.240993,
2,0,0,1,0,64182.5,0.233817,0.233502,-0.551528,33,0.0168325,10,-0.000128783,-3.25843,-0.376014,-0.156909,3.38674,0.233502,
2,0,0,1,0,64182.9,0.226326,0.225992,-0.581593,33,0.0166144,10,-0.000131435,-3.23538,-0.388816,-0.151743,3.42885,0.225992,
2,0,0,1,0,64183.2,0.218835,0.218494,-0.607347,33,0.0163867,10,-0.000132702,-3.21656,-0.417693,-0.141252,3.34404,0.218494,
2,0,0,1,0,64183.6,0.211344,0.211036,-0.632142,33,0.0161497,10,-0.000133405,-3.19919,-0.595787,-0.0990287,2.43664,0.211036,
2,0,0,1,0,64184,0.203855,0.203485,-0.654034,33,0.0159032,10,-0.000133086,-3.1844,-0.594709,-0.0992082,2.53702,0.203485,
2,0,0,1,0,64184.4,0.196362,0.196013,-0.679256,33,0.0156474,10,-0.000133143,-3.16797,-0.490686,-0.12024,3.19116,0.196013,
2,0,0,1,0,64184.7,0.188871,0.188525,-0.70916,33,0.0153815,10,-0.000133695,-3.14926,-0.336971,-0.175089,4.84119,0.188525,
2,0,0,1,0,64185.1,0.18138,0.181051,-0.738876,33,0.0151048,10,-0.000133774,-3.13143,-0.388265,-0.151958,4.38279,0.181051,
2,0,0,1,0,64185.5,0.173891,0.173508,-0.773278,33,0.0148159,10,-0.00013417,-3.11166,-0.332278,-0.177562,5.36248,0.173508,
2,0,0,1,0,64185.9,0.166398,0.166046,-0.814999,33,0.0145128,10,-0.000135327,-3.08884,-0.338944,-0.17407,5.55474,0.166046,
2,0,0,1,0,64186.2,0.158906,0.158586,-0.872608,33,0.0141912,10,-0.000138383,-3.05918,-0.239883,-0.245953,8.39101,0.158586,
2,0,0,1,0,64186.6,0.151417,0.151115,-0.95479,33,0.0138441,10,-0.000144283,-3.02009,-0.15538,-0.379714,14.1931,0.151115,
2,0,0,1,0,64187,0.143926,0.143604,-1.09699,33,0.013456,10,-0.000157532,-2.9598,-0.095988,-0.61466,26.3326,0.143604,
2,0,0,1,0,64187.4,0.136435,0.136113,-1.31992,33,0.013,10,-0.000179658,-2.87945,-0.0891122,-0.662086,34.0588,0.136113,
2,0,0,1,0,64187.7,0.128942,0.128653,-1.58387,33,0.0124509,10,-0.000203769,-2.80028,-0.104397,-0.565152,34.8243,0.128653,
2,0,0,1,0,64188.1,0.121453,0.121072,-1.82792,33,0.0118042,10,-0.000221309,-2.73804,-0.147018,-0.40131,28.5813,0.121072,
2,0,0,1,0,64188.5,0.113962,0.113672,-2.00174,33,0.0110774,10,-0.000227541,-2.69859,-0.267936,-0.220202,17.2023,0.113672,
2,0,0,1,0,64188.9,0.106471,0.10614,-2.07621,33,0.010303,10,-0.000220368,-2.68273,-1.34419,-0.0438925,3.56026,0.10614,
2,0,0,1,0,64189.2,0.0989799,0.0986086,-2.06437,33,0.00951896,10,-0.000203565,-2.68521,0.857261,0.0688238,-5.53478,0.0986086,
2,0,0,1,0,64189.6,0.0914889,0.0911507,-2.01237,33,0.00874961,10,-0.000183429,-2.69629,0.721441,0.0817808,-6.41666,0.0911507,
2,0,0,1,0,64190,0.083998,0.0836739,-1.96383,33,0.0079997,10,-0.000164321,-2.7069,0.693985,0.0850163,-6.51328,0.0836739,
2,0,0,1,0,64190.4,0.076507,0.0761647,-1.92083,33,0.00726646,10,-0.000146299,-2.71651,0.727336,0.081118,-6.077,0.0761647,
2,0,0,1,0,64190.7,0.069016,0.0686806,-1.87352,33,0.00654937,10,-0.000128675,-2.72734,0.688445,0.0857004,-6.28364,0.0686806,
2,0,0,1,0,64191.1,0.0615251,0.0611783,-1.82935,33,0.00584904,10,-0.000111916,-2.7377,0.597842,0.0986883,-7.05018,0.0611783,
2,0,0,1,0,64191.5,0.0540341,0.0536759,-1.77493,33,0.00516807,10,-9.52712e-05,-2.75082,0.629432,0.0937352,-6.4943,0.0536759,
2,0,0,1,0,64191.9,0.0465432,0.0461638,-1.72212,33,0.00450676,10,-7.94997e-05,-2.76394,0.542886,0.108678,-7.30294,0.0461638,
2,0,0,1,0,64192.2,0.0390523,0.038687,-1.66407,33,0.00386697,10,-6.43777e-05,-2.77883,0.434127,0.135905,-8.80315,0.038687,
2,0,0,1,0,64192.6,0.0315626,0.0312684,-1.6012,33,0.00325022,10,-5.0067e-05,-2.79555,0.429638,0.137325,-8.57685,0.0312684,
2,0,0,1,0,64193,0.0240704,0.0237418,-1.53905,33,0.00265587,10,-3.65398e-05,-2.81275,0.459047,0.128527,-7.74538,0.0237418,
2,0,0,1,0,64193.4,0.0165785,0.0162563,-1.49352,33,0.00208162,10,-2.4279e-05,-2.82579,0.710778,0.0830077,-4.84409,0.0162563,
2,0,0,1,0,64193.7,0.00908845,0.00874149,-1.45985,33,0.00152281,10,-1.27613e-05,-2.83569,0.949772,0.0621202,-3.5402,0.00874149,
2,0,0,1,0,64194.1,0.0015984,0.00118641,-1.45677,33,0.000973052,10,-1.72832e-06,-2.83661, , , ,0.00118641,
2,0,0,1,0,64194.2,0.000199195,-0.000224345,-1.44914,33,0.000870235,10,3.25107e-07,-2.83889, , , ,-0.000224345,