Folder: Figs_alphaMnO2_OER_Tafel_sleope/Figure_codes/Fig_3-5/rawdata_trumpetplot_data/after 10th (part 23)

File: 20221101_1-115_003_TrumpetPlot_ParaChange_from10_every3_03_CV_C01_9.csv
mode,ox/red,error,control changes,counter inc.,time/s,control/V,Ewe/V,<I>/mA,cycle number,(Q-Qo)/C,I Range,P/W,log(|I|),Tafel slope mV/dec,alpha_eff,dI/d(E-IR),E-IR/V,
2,0,0,1,0,18671.2,2.44065e-05,-0.00042076,-0.110843,10,0.0000000E+000,10,4.66381e-08,-3.95529, , , ,-0.00042076,
2,1,0,1,0,18672.6,0.00729041,0.00697545,0.211605,10,0.000272978,10,1.47604e-06,-3.67447,0.0828567,0.712073,5.7926,0.00697545,
2,1,0,1,0,18674.1,0.0147815,0.0144461,0.243135,10,0.000639448,10,3.51235e-06,-3.61415,0.135603,0.435094,4.14238,0.0144461,
2,1,0,1,0,18675.6,0.0222725,0.0219686,0.271763,10,0.00105037,10,5.97026e-06,-3.56581,0.169429,0.348228,3.68743,0.0219686,
2,1,0,1,0,18677.1,0.0297635,0.0294667,0.299205,10,0.00150225,10,8.81659e-06,-3.52403,0.208161,0.283434,3.31076,0.0294667,
2,1,0,1,0,18678.6,0.0372545,0.0368835,0.326206,10,0.00199535,10,1.20316e-05,-3.48651,0.199783,0.295321,3.76308,0.0368835,
2,1,0,1,0,18680.1,0.0447456,0.0443976,0.35193,10,0.00252843,10,1.56248e-05,-3.45354,0.267776,0.220333,3.02578,0.0443976,
2,1,0,1,0,18681.6,0.0522367,0.0518874,0.377031,10,0.00309976,10,1.95631e-05,-3.42362,0.200462,0.294321,4.3183,0.0518874,
2,1,0,1,0,18683.1,0.0597277,0.0594204,0.399578,10,0.00370786,10,2.37431e-05,-3.3984,0.367638,0.160484,2.50574,0.0594204,
2,1,0,1,0,18684.6,0.0672187,0.0669357,0.420336,10,0.00434802,10,2.81354e-05,-3.3764,0.446469,0.132148,2.16745,0.0669357,
2,1,0,1,0,18686.1,0.0747092,0.0744005,0.437482,10,0.00501597,10,3.25489e-05,-3.35904,0.438681,0.134494,2.30034,0.07440047,
2,1,0,0,0,18687.6,0.0822001,0.0819103,0.452054,10,0.00570901,10,3.70279e-05,-3.34481,0.484756,0.121711,2.15983,0.0819103,
2,1,0,1,0,18689.1,0.0896911,0.0893469,0.476475,10,0.00642994,10,4.25716e-05,-3.32196,0.276435,0.213432,3.97649,0.0893469,
2,1,0,0,0,18690.6,0.097182,0.0968397,0.511877,10,0.00719394,10,4.957e-05,-3.29083,0.180819,0.326294,6.50059,0.0968397,
2,1,0,1,0,18692.1,0.104673,0.104399,0.55774,10,0.0080183,10,5.82277e-05,-3.25357,0.220361,0.267742,5.80364,0.104399,
2,1,0,0,0,18693.6,0.112164,0.111857,0.596085,10,0.00890834,10,6.66764e-05,-3.22469,0.364132,0.162029,3.76384,0.111857,
2,1,0,1,0,18695.1,0.119655,0.119325,0.625963,10,0.00985096,10,7.46928e-05,-3.20345,0.417419,0.141345,3.45506,0.119325,
2,1,0,0,0,18696.6,0.127146,0.126813,0.651808,10,0.0108366,10,8.26579e-05,-3.18588,0.498225,0.11842,3.01822,0.126813,
2,1,0,1,0,18698.1,0.134637,0.134301,0.660726,10,0.0118537,10,8.87359e-05,-3.17998,-0.429926,-0.137233,-3.52884,0.134301,
2,1,0,1,0,18699.6,0.142127,0.141832,0.596829,10,0.0128323,10,8.46496e-05,-3.22415,-0.109152,-0.540532,-12.5247,0.141832,
2,1,0,1,0,18701.1,0.149618,0.149303,0.480923,10,0.0136656,10,7.18033e-05,-3.31792,-0.0751706,-0.784881,-14.7499,0.149303,
2,1,0,1,0,18702.6,0.157109,0.156795,0.395063,10,0.0143398,10,6.19438e-05,-3.40333,-0.103933,-0.567673,-8.75766,0.156795,
2,1,0,1,0,18704.1,0.1646,0.164275,0.3515,10,0.0149192,10,5.77426e-05,-3.45407,-0.183485,-0.321551,-4.41138,0.164275,
2,1,0,1,0,18705.6,0.172091,0.17179,0.32883,10,0.0154509,10,5.64898e-05,-3.48303,-0.337949,-0.174583,-2.23993,0.17179,
2,1,0,1,0,18707.1,0.179582,0.179263,0.31526,10,0.015956,10,5.65146e-05,-3.50133,-0.547669,-0.107729,-1.32812,0.179263,
2,1,0,1,0,18708.6,0.187074,0.186788,0.307204,10,0.0164446,10,5.73821e-05,-3.51257,-0.711275,-0.0829496,-0.989856,0.186788,
2,1,0,1,0,18710.1,0.194564,0.194268,0.299789,10,0.016922,10,5.82394e-05,-3.52318,-0.73641,-0.0801184,-0.934157,0.194268,
2,1,0,1,0,18711.6,0.202056,0.201714,0.295291,10,0.0173903,10,5.95644e-05,-3.52975,-0.836598,-0.0705237,-0.809892,0.201714,
2,1,0,1,0,18713.1,0.209547,0.209238,0.290738,10,0.0178521,10,6.08334e-05,-3.5365,-1.16571,-0.050613,-0.571914,0.209238,
2,1,0,1,0,18714.6,0.217038,0.216671,0.285668,10,0.0183074,10,6.1896e-05,-3.54414,-0.641388,-0.091988,-1.0275,0.216671,
2,1,0,1,0,18716.1,0.224529,0.224252,0.283532,10,0.0187577,10,6.35827e-05,-3.5474,-1.19491,-0.0493763,-0.545369,0.224252,
2,1,0,1,0,18717.6,0.232019,0.231686,0.280995,10,0.0192035,10,6.51027e-05,-3.5513,-1.52859,-0.0385976,-0.421709,0.231686,
2,1,0,0,0,18719.1,0.23951,0.239196,0.278912,10,0.0196459,10,6.67148e-05,-3.55453,-6.39452,-0.00922665,-0.100138,0.239196,
2,1,0,1,0,18720.6,0.247001,0.246707,0.276214,10,0.0200851,10,6.81439e-05,-3.55875,-1.1147,-0.0529288,-0.570797,0.246707,
2,1,0,0,0,18722.1,0.254492,0.254191,0.274285,10,0.0205208,10,6.97209e-05,-3.5618,-1.31972,-0.0447066,-0.478258,0.254191,
2,1,0,1,0,18723.6,0.261983,0.261648,0.2737,10,0.0209541,10,7.16132e-05,-3.56272,-5.16699,-0.0114186,-0.121764,0.261648,
2,1,0,0,0,18725.1,0.269474,0.269138,0.271295,10,0.0213851,10,7.30157e-05,-3.56656,-17.4145,-0.00338798,-0.0357519,0.269138,
2,1,0,1,0,18726.6,0.276965,0.276645,0.26939,10,0.0218134,10,7.45254e-05,-3.56962,-2.63915,-0.0223557,-0.235475,0.276645,
2,1,0,0,0,18728.1,0.284456,0.284176,0.267855,10,0.0222389,10,7.61182e-05,-3.5721,-1.22352,-0.0482217,-0.502757,0.284176,
2,1,0,1,0,18729.6,0.291947,0.291618,0.265373,10,0.0226608,10,7.73877e-05,-3.57614,-2.43641,-0.024216,-0.251195,0.291618,
2,1,0,1,0,18731.1,0.299437,0.299126,0.262569,10,0.0230798,10,7.8541e-05,-3.58076,-0.00233842,-25.2307,-123.409,0.299126,
2,0,0,1,0,18732.4,0.293744,0.29345,-0.0200519,10,0.0231089,10,-5.88423e-06,-4.69784,-0.00661204,-8.92312,5.46252,0.29345,
2,0,0,1,0,18733.9,0.286253,0.285951,-0.0488184,10,0.0230326,10,-1.39597e-05,-4.31142,-0.0363118,-1.62482,3.09363,0.285951,
2,0,0,0,0,18735.4,0.278763,0.278452,-0.0689868,10,0.0229203,10,-1.92095e-05,-4.16123,-0.067224,-0.877663,2.37334,0.278452,
2,0,0,1,0,18736.9,0.271272,0.270997,-0.0848978,10,0.0227813,10,-2.3007e-05,-4.0711,-0.104006,-0.567277,1.86879,0.270997,
2,0,0,0,0,18738.4,0.263781,0.263482,-0.0981485,10,0.0226205,10,-2.58603e-05,-4.00812,-0.13863,-0.425592,1.62063,0.263482,
2,0,0,1,0,18739.9,0.25629,0.255929,-0.110638,10,0.0224411,10,-2.83155e-05,-3.9561,-0.184789,-0.319282,1.3599,0.255929,
2,0,0,0,0,18741.4,0.248799,0.248503,-0.11908,10,0.0222449,10,-2.95918e-05,-3.92416,-0.232139,-0.254158,1.19465,0.2485033,
2,0,0,1,0,18742.9,0.241308,0.240975,-0.12926,10,0.0220339,10,-3.11484e-05,-3.88854,-0.248602,-0.237328,1.20062,0.240975,
2,0,0,0,0,18744.4,0.233817,0.233499,-0.138567,10,0.0218089,10,-3.23553e-05,-3.85834,-0.231132,-0.255265,1.38238,0.233499,
2,0,0,1,0,18745.9,0.226326,0.226026,-0.148349,10,0.02157,10,-3.35308e-05,-3.82871,-0.294071,-0.200632,1.16222,0.226026,
2,0,0,0,0,18747.4,0.218835,0.218548,-0.157382,10,0.0213175,10,-3.43955e-05,-3.80305,-0.286089,-0.20623,1.26503,0.218548,
2,0,0,1,0,18748.9,0.211344,0.211016,-0.166366,10,0.0210519,10,-3.51058e-05,-3.77894,-0.336986,-0.175081,1.13413,0.211016,
2,0,0,1,0,18750.4,0.203854,0.203509,-0.174416,10,0.0207721,10,-3.54953e-05,-3.75841,-0.293335,-0.201135,1.37587,0.203509,
2,0,0,1,0,18751.9,0.196363,0.196051,-0.184609,10,0.0204781,10,-3.61927e-05,-3.73375,-0.283517,-0.208101,1.50195,0.196051,
2,0,0,1,0,18753.4,0.188871,0.188556,-0.196356,10,0.0201675,10,-3.7024e-05,-3.70696,-0.203765,-0.289549,2.21589,0.188556,
2,0,0,1,0,18754.9,0.181381,0.181039,-0.210159,10,0.0198383,10,-3.8047e-05,-3.67745,-0.246417,-0.239431,1.96872,0.181039,
2,0,0,1,0,18756.4,0.173889,0.173564,-0.226691,10,0.019487,10,-3.93456e-05,-3.64457,-0.220202,-0.267935,2.36386,0.173564,
2,0,0,1,0,18757.9,0.166398,0.166084,-0.246649,10,0.019108,10,-4.09645e-05,-3.60792,-0.203896,-0.289363,2.80845,0.166084,
2,0,0,1,0,18759.4,0.158907,0.158593,-0.276976,10,0.0186912,10,-4.39265e-05,-3.55756,-0.123469,-0.477855,5.18313,0.158593,
2,0,0,1,0,18760.9,0.151416,0.151106,-0.326154,10,0.0182169,10,-4.92838e-05,-3.48658,-0.0889153,-0.663553,8.44421,0.1511059,
2,0,0,1,0,18762.4,0.143925,0.143599,-0.404703,10,0.0176487,10,-5.8115e-05,-3.39286,-0.0685875,-0.860215,13.5983,0.143599,
2,0,0,1,0,18763.9,0.136434,0.136072,-0.516448,10,0.0169359,10,-7.02743e-05,-3.28697,-0.078972,-0.7471,14.9656,0.136072,
2,0,0,1,0,18765.4,0.128943,0.128637,-0.618172,10,0.0160571,10,-7.95196e-05,-3.20889,-0.142191,-0.414933,9.93251,0.128637,
2,0,0,0,0,18766.9,0.121453,0.121153,-0.666872,10,0.0150631,10,-8.07933e-05,-3.17596,-0.512127,-0.115206,2.99114,0.121153,
2,0,0,1,0,18768.4,0.113962,0.113643,-0.666392,10,0.0140322,10,-7.57307e-05,-3.17627,0.808179,0.0730037,-1.90352,0.113643,
2,0,0,0,0,18769.9,0.106471,0.106189,-0.650321,10,0.0130164,10,-6.90572e-05,-3.18687,0.629743,0.0936889,-2.38369,0.106189,
2,0,0,1,0,18771.4,0.0989799,0.0986795,-0.6265,10,0.0120333,10,-6.18227e-05,-3.20308,0.44493,0.132605,-3.23714,0.0986795,
2,0,0,0,0,18772.9,0.0914889,0.0911729,-0.600801,10,0.0110887,10,-5.47768e-05,-3.22127,0.368303,0.160194,-3.74195,0.0911729,
2,0,0,1,0,18774.4,0.083998,0.0836896,-0.573534,10,0.0101844,10,-4.79988e-05,-3.24144,0.311486,0.189415,-4.22691,0.08368963,
2,0,0,0,0,18775.9,0.076507,0.0762106,-0.55205,10,0.00931666,10,-4.20721e-05,-3.25802,0.430289,0.137117,-2.94963,0.0762106,
2,0,0,1,0,18777.4,0.0690161,0.0686796,-0.530123,10,0.00847991,10,-3.64086e-05,-3.27562,0.631633,0.0934087,-1.94661,0.0686796,
2,0,0,0,0,18778.9,0.0615251,0.0612196,-0.514657,10,0.00766932,10,-3.15071e-05,-3.28848,0.591368,0.0997688,-2.01142,0.06121961,
2,0,0,1,0,18780.4,0.0540342,0.0536982,-0.498868,10,0.00688455,10,-2.67883e-05,-3.30201,0.53805,0.109655,-2.13393,0.0536982,
2,0,0,1,0,18781.9,0.0465436,0.0462197,-0.481621,10,0.00612536,10,-2.22604e-05,-3.31729,0.518879,0.113707,-2.13961,0.0462197,
2,0,0,1,0,18783.4,0.0390526,0.0386971,-0.464145,10,0.00539247,10,-1.79611e-05,-3.33335,0.358387,0.164626,-2.97498,0.0386971,
2,0,0,1,0,18784.9,0.0315615,0.0312623,-0.446882,10,0.00468606,10,-1.39706e-05,-3.34981,0.455098,0.129643,-2.25953,0.0312623,
2,0,0,1,0,18786.4,0.0240706,0.0237546,-0.429575,10,0.00400442,10,-1.02044e-05,-3.36696,0.593663,0.0993829,-1.67712,0.0237546,
2,0,0,1,0,18787.9,0.0165795,0.0162912,-0.419924,10,0.00334287,10,-6.84107e-06,-3.37683,0.85765,0.0687926,-1.12875,0.0162912,
2,0,0,1,0,18789.4,0.00908846,0.00876749,-0.414854,10,0.00269377,10,-3.63723e-06,-3.3821,1.8181,0.0324515,-0.525269,0.00876749,
2,0,0,1,0,18790.9,0.00159739,0.00122064,-0.420002,10,0.00204752,10,-5.12672e-07,-3.37675, , , ,0.00122064,
2,0,0,0,0,18791.1,0.000199195,-0.00014972,-0.415584,10,0.00192615,10,6.22213e-08,-3.38134, , , ,-0.0001497202,

File: 20221101_1-115_003_TrumpetPlot_ParaChange_from10_every3_03_CV_C01_10.csv
mode,ox/red,error,control changes,counter inc.,time/s,control/V,Ewe/V,<I>/mA,cycle number,(Q-Qo)/C,I Range,P/W,log(|I|),Tafel slope mV/dec,alpha_eff,dI/d(E-IR),E-IR/V,
2,0,0,1,0,20641.3,2.44065e-05,-0.000497109,-0.098122,11,0.0000000E+000,10,4.87774e-08,-4.00823, , , ,-0.000497109,
2,1,0,1,0,20642.8,0.00729041,0.00697647,0.205574,11,0.00026348,10,1.43418e-06,-3.68703,0.0830991,0.709995,5.64526,0.006976468,
2,1,0,1,0,20644.3,0.0147815,0.0144334,0.238061,11,0.00062151,10,3.43603e-06,-3.62331,0.132535,0.445165,4.13884,0.0144334,
2,1,0,1,0,20645.8,0.0222725,0.0219888,0.267215,11,0.00102469,10,5.87573e-06,-3.57314,0.156065,0.378047,3.9423,0.0219888,
2,1,0,1,0,20647.3,0.0297635,0.0294351,0.296255,11,0.00146928,10,8.72027e-06,-3.52834,0.187065,0.315398,3.6257,0.0294351,
2,1,0,1,0,20648.8,0.0372545,0.0368951,0.321419,11,0.00195505,10,1.18588e-05,-3.49293,0.21521,0.274151,3.45217,0.0368951,
2,1,0,1,0,20650.3,0.0447456,0.0443839,0.348105,11,0.00248056,10,1.54502e-05,-3.45829,0.23874,0.24713,3.35084,0.0443839,
2,1,0,1,0,20651.8,0.0522367,0.0519243,0.372037,11,0.00304438,10,1.93178e-05,-3.42941,0.242769,0.243029,3.52992,0.0519243,
2,1,0,1,0,20653.3,0.0597277,0.0594556,0.395258,11,0.003644,10,2.35003e-05,-3.40312,0.28828,0.204662,3.15642,0.0594556,
2,1,0,1,0,20654.8,0.0672187,0.0669241,0.416919,11,0.00427621,10,2.79019e-05,-3.37995,0.375164,0.157265,2.54379,0.0669241,
2,1,0,1,0,20656.3,0.0747092,0.0744068,0.434038,11,0.00493591,10,3.22954e-05,-3.36247,0.435571,0.135455,2.29071,0.0744068,
2,1,0,0,0,20657.8,0.0822001,0.0818774,0.447666,11,0.00561995,10,3.66537e-05,-3.34905,0.511686,0.115305,2.0238,0.0818774,
2,1,0,1,0,20659.3,0.0896911,0.0893607,0.470096,11,0.00633093,10,4.20081e-05,-3.32781,0.251474,0.234617,4.31175,0.0893607,
2,1,0,0,0,20660.8,0.097182,0.0968525,0.504573,11,0.00708396,10,4.88691e-05,-3.29708,0.166703,0.353923,6.96475,0.0968525,
2,1,0,1,0,20662.2,0.104673,0.104351,0.551138,11,0.00789694,10,5.75116e-05,-3.25874,0.215424,0.273879,5.86459,0.104351,
2,1,0,0,0,20663.7,0.112164,0.111835,0.588323,11,0.00877364,10,6.5795e-05,-3.23038,0.449264,0.131326,3.00364,0.111835,
2,1,0,1,0,20665.2,0.119655,0.119343,0.61618,11,0.00969996,10,7.35365e-05,-3.21029,0.522996,0.112812,2.71383,0.119343,
2,1,0,0,0,20666.7,0.127146,0.126803,0.638712,11,0.0106669,10,8.09903e-05,-3.19469,0.508973,0.11592,2.9046,0.126803,
2,1,0,1,0,20668.2,0.134637,0.134296,0.646436,11,0.0116628,10,8.6814e-05,-3.18947,-0.436297,-0.135229,-3.40527,0.134296,
2,1,0,1,0,20669.7,0.142127,0.141798,0.582855,11,0.0126181,10,8.2648e-05,-3.23444,-0.102893,-0.573413,-12.9557,0.141798,
2,1,0,1,0,20671.2,0.149618,0.149332,0.469228,11,0.0134301,10,7.00706e-05,-3.32862,-0.076371,-0.772545,-14.1576,0.149332,
2,1,0,1,0,20672.7,0.157109,0.156789,0.387778,11,0.0140889,10,6.07995e-05,-3.41142,-0.110403,-0.534404,-8.10488,0.156789,
2,1,0,1,0,20674.2,0.1646,0.164276,0.349317,11,0.0146609,10,5.73844e-05,-3.45678,-0.226038,-0.261018,-3.56269,0.164276,
2,1,0,1,0,20675.7,0.172091,0.171792,0.326349,11,0.0151888,10,5.60643e-05,-3.48632,-0.347021,-0.170018,-2.17778,0.171792,
2,1,0,1,0,20677.2,0.179582,0.179234,0.316433,11,0.0156922,10,5.67157e-05,-3.49972,-0.544617,-0.108333,-1.33581,0.179234,
2,1,0,1,0,20678.7,0.187074,0.186766,0.307316,11,0.0161806,10,5.73963e-05,-3.51242,-0.816732,-0.0722391,-0.864718,0.186766,
2,1,0,1,0,20680.2,0.194564,0.19424,0.300668,11,0.0166583,10,5.84019e-05,-3.52191,-0.96555,-0.0611051,-0.718754,0.19424,
2,1,0,1,0,20681.7,0.202056,0.201698,0.296246,11,0.0171274,10,5.97523e-05,-3.52835,-0.81973,-0.0719749,-0.829607,0.2016983,
2,1,0,1,0,20683.2,0.209547,0.209228,0.291717,11,0.0175901,10,6.10355e-05,-3.53504,-1.69827,-0.0347412,-0.396099,0.209228,
2,1,0,1,0,20684.7,0.217038,0.216697,0.287688,11,0.0180472,10,6.23411e-05,-3.54108,-0.965698,-0.0610957,-0.68785,0.2166968,
2,1,0,1,0,20686.2,0.224529,0.224264,0.285811,11,0.0184994,10,6.4097e-05,-3.54392,-1.13152,-0.0521421,-0.580021,0.224264,
2,1,0,1,0,20687.7,0.232019,0.231721,0.282263,11,0.018947,10,6.54064e-05,-3.54935,-0.909623,-0.064862,-0.715039,0.231721,
2,1,0,0,0,20689.2,0.23951,0.239168,0.280592,11,0.0193911,10,6.71086e-05,-3.55192,-2.2307,-0.026449,-0.289072,0.239168,
2,1,0,1,0,20690.7,0.247001,0.246735,0.277796,11,0.0198314,10,6.8542e-05,-3.55627,-1.77231,-0.0332898,-0.361159,0.246735,
2,1,0,0,0,20692.2,0.254492,0.254196,0.275142,11,0.0202682,10,6.99398e-05,-3.56044,-1.70896,-0.0345239,-0.371775,0.254196,
2,1,0,1,0,20693.7,0.261983,0.261679,0.273879,11,0.0207019,10,7.16682e-05,-3.56244,-3.58533,-0.0164559,-0.175257,0.261679,
2,1,0,0,0,20695.2,0.269474,0.269155,0.271792,11,0.0211328,10,7.31542e-05,-3.56576,4.58525,0.0128673,0.136748,0.269155,
2,1,0,1,0,20696.7,0.276965,0.276644,0.269262,11,0.0215607,10,7.44897e-05,-3.56983,-4.32969,-0.0136268,-0.144077,0.276644,
2,1,0,0,0,20698.2,0.284456,0.284137,0.268664,11,0.0219857,10,7.63374e-05,-3.57079,-2.27475,-0.0259369,-0.271288,0.284137,
2,1,0,1,0,20699.7,0.291947,0.291592,0.265679,11,0.0224077,10,7.747e-05,-3.57564,-3.27616,-0.0180089,-0.187206,0.291592,
2,1,0,1,0,20701.2,0.299437,0.299131,0.262184,11,0.0228268,10,7.84272e-05,-3.58139,-0.00243165,-24.2633,-123.524,0.2991311,
2,0,0,1,0,20702.6,0.293744,0.293444,-0.0165361,11,0.0228623,10,-4.85242e-06,-4.78157,-0.00479092,-12.315,5.68766,0.293444,
2,0,0,1,0,20704.1,0.286253,0.285944,-0.0461638,11,0.0227914,10,-1.32003e-05,-4.3357,-0.0343464,-1.71779,3.12203,0.285944,
2,0,0,0,0,20705.6,0.278763,0.278489,-0.0676648,11,0.0226836,10,-1.88439e-05,-4.16964,-0.0689493,-0.855702,2.23289,0.278489,
2,0,0,1,0,20707.1,0.271272,0.270966,-0.083162,11,0.0225485,10,-2.25341e-05,-4.08008,-0.0957019,-0.616497,1.98982,0.2709659,
2,0,0,0,0,20708.6,0.263781,0.263438,-0.0960961,11,0.0223911,10,-2.53154e-05,-4.01729,-0.12562,-0.46967,1.76974,0.263438,
2,0,0,1,0,20710.1,0.25629,0.255962,-0.107972,11,0.022215,10,-2.76367e-05,-3.96669,-0.205552,-0.287032,1.20448,0.255962,
2,0,0,0,0,20711.6,0.248799,0.248494,-0.117768,11,0.0220224,10,-2.92647e-05,-3.92897,-0.200998,-0.293535,1.35945,0.248494,
2,0,0,1,0,20713.1,0.241308,0.241013,-0.128881,11,0.0218145,10,-3.1062e-05,-3.88981,-0.186338,-0.316629,1.5842,0.241013,
2,0,0,0,0,20714.6,0.233817,0.23352,-0.138292,11,0.0215921,10,-3.22939e-05,-3.8592,-0.23998,-0.245854,1.32228,0.23352,
2,0,0,1,0,20716.1,0.226326,0.226039,-0.147376,11,0.0213556,10,-3.33127e-05,-3.83157,-0.275346,-0.214276,1.2389,0.226039,
2,0,0,0,0,20717.6,0.218835,0.218508,-0.157017,11,0.0211055,10,-3.43094e-05,-3.80405,-0.46727,-0.126265,0.76887,0.218508,
2,0,0,1,0,20719.1,0.211344,0.211057,-0.166014,11,0.0208423,10,-3.50384e-05,-3.77986,-0.399297,-0.14776,0.953648,0.211057,
2,0,0,1,0,20720.5,0.203854,0.203516,-0.17488,11,0.020565,10,-3.5591e-05,-3.75726,-0.366045,-0.161182,1.09875,0.203516,
2,0,0,1,0,20722,0.196363,0.196015,-0.184947,11,0.0202735,10,-3.62522e-05,-3.73295,-0.264697,-0.222896,1.60374,0.196015,
2,0,0,1,0,20723.5,0.188871,0.188526,-0.195511,11,0.0199658,10,-3.68588e-05,-3.70883,-0.206342,-0.285933,2.18361,0.188526,
2,0,0,1,0,20725,0.181381,0.18109,-0.208103,11,0.0196405,10,-3.76855e-05,-3.68172,-0.277465,-0.212639,1.72273,0.18109,
2,0,0,1,0,20726.5,0.173889,0.173552,-0.223757,11,0.0192948,10,-3.88334e-05,-3.65022,-0.213777,-0.275988,2.39887,0.173552,
2,0,0,1,0,20728,0.166398,0.166082,-0.242503,11,0.0189225,10,-4.02755e-05,-3.61528,-0.200202,-0.294702,2.81624,0.166082,
2,0,0,1,0,20729.5,0.158907,0.15859,-0.269881,11,0.0185145,10,-4.28006e-05,-3.56883,-0.140126,-0.421051,4.47528,0.15859,
2,0,0,1,0,20731,0.151416,0.151079,-0.315688,11,0.0180532,10,-4.76939e-05,-3.50074,-0.0943298,-0.625465,7.72414,0.151079,
2,0,0,1,0,20732.5,0.143925,0.143636,-0.390498,11,0.0175046,10,-5.60896e-05,-3.40838,-0.0691965,-0.852645,12.9695,0.143636,
2,0,0,1,0,20734,0.136434,0.136112,-0.497956,11,0.0168192,10,-6.77776e-05,-3.30281,-0.0771305,-0.764937,14.7597,0.136112,
2,0,0,1,0,20735.5,0.128943,0.128667,-0.596262,11,0.0159729,10,-7.67194e-05,-3.22456,-0.134766,-0.437794,10.1279,0.128667,
2,0,0,0,0,20737,0.121453,0.121102,-0.649254,11,0.0150089,10,-7.86259e-05,-3.18759,-0.514752,-0.114618,2.89565,0.121102,
2,0,0,1,0,20738.5,0.113962,0.113655,-0.652051,11,0.0140032,10,-7.41086e-05,-3.18572,0.939181,0.0628207,-1.60214,0.113655,
2,0,0,0,0,20740,0.106471,0.106193,-0.638973,11,0.0130082,10,-6.78541e-05,-3.19452,0.788277,0.0748468,-1.87132,0.106193,
2,0,0,1,0,20741.5,0.0989799,0.0986774,-0.619185,11,0.0120399,10,-6.10996e-05,-3.20818,0.590111,0.0999811,-2.41025,0.0986774,
2,0,0,0,0,20743,0.0914889,0.0911538,-0.596484,11,0.0111056,10,-5.43718e-05,-3.2244,0.430813,0.13695,-3.17945,0.0911538,
2,0,0,1,0,20744.5,0.083998,0.0836652,-0.570538,11,0.0102074,10,-4.77342e-05,-3.24372,0.319807,0.184486,-4.10223,0.0836652,
2,0,0,0,0,20746,0.076507,0.0761586,-0.55142,11,0.0093439,10,-4.19954e-05,-3.25852,0.403936,0.146063,-3.13521,0.07615862,
2,0,0,1,0,20747.5,0.0690161,0.0687283,-0.530113,11,0.00851032,10,-3.64338e-05,-3.27563,0.613574,0.0961579,-1.99802,0.0687283,
2,0,0,0,0,20749,0.0615251,0.0612132,-0.514558,11,0.00770227,10,-3.14978e-05,-3.28857,0.472953,0.124748,-2.51086,0.0612132,
2,0,0,1,0,20750.5,0.0540342,0.0537045,-0.499418,11,0.00691936,10,-2.6821e-05,-3.30154,0.510386,0.115599,-2.24772,0.0537045,
2,0,0,1,0,20752,0.0465436,0.0462472,-0.480781,11,0.00616129,10,-2.22348e-05,-3.31805,0.42164,0.13993,-2.62962,0.0462472,
2,0,0,1,0,20753.5,0.0390526,0.0387393,-0.464044,11,0.00542892,10,-1.79767e-05,-3.33344,0.346539,0.170255,-3.07771,0.03873929,
2,0,0,1,0,20755,0.0315615,0.0312601,-0.447923,11,0.00472309,10,-1.40022e-05,-3.3488,0.475879,0.123981,-2.16215,0.0312601,
2,0,0,1,0,20756.5,0.0240706,0.0237566,-0.430653,11,0.00404199,10,-1.02309e-05,-3.36587,0.531109,0.111088,-1.87641,0.0237566,
2,0,0,1,0,20758,0.0165795,0.0162212,-0.42093,11,0.00338127,10,-6.82799e-06,-3.37579,0.706102,0.0835573,-1.37306,0.0162212,
2,0,0,1,0,20759.5,0.00908846,0.0087297,-0.414667,11,0.00273361,10,-3.61992e-06,-3.3823,3.45609,0.0170713,-0.276125,0.0087297,
2,0,0,1,0,20761,0.00159739,0.00123242,-0.41774,11,0.0020886,10,-5.14831e-07,-3.37909, , , ,0.00123242,
2,0,0,0,0,20761.3,0.000199195,-0.000140177,-0.415611,11,0.00196776,10,5.82588e-08,-3.38131, , , ,-0.000140177,