Folder: Figs_alphaMnO2_OER_Tafel_sleope/Figure_codes/Fig_3-5/rawdata_trumpetplot_data/after 10th (part 141)

File: 20221101_1-115_003_TrumpetPlot_ParaChange_from10_every3_10_CV_C01_3.csv
mode,ox/red,error,control changes,counter inc.,time/s,control/V,Ewe/V,<I>/mA,cycle number,(Q-Qo)/C,I Range,P/W,log(|I|),Tafel slope mV/dec,alpha_eff,dI/d(E-IR),E-IR/V,
2,1,0,0,0,7100.91,-2.44065e-05,-0.000306236,5.40228,4,0.0000000E+000,10,-1.65437e-06,-2.26742, , , ,-0.000306236,
2,1,0,1,0,7100.96,0.00977853,0.00943003,8.79265,4,0.000365431,10,8.29149e-05,-2.05588,0.113822,0.518352,176.953,0.00943003,
2,1,0,1,0,7101.01,0.0197755,0.0194665,9.97658,4,0.000838421,10,0.000194209,-2.00102,0.295193,0.19987,77.7838,0.01946649,
2,1,0,1,0,7101.06,0.0297726,0.0294275,10.7057,4,0.00135624,10,0.000315042,-1.97038,0.377709,0.156205,65.2293,0.0294275,
2,1,0,1,0,7101.11,0.0397514,0.0394431,11.3904,4,0.00190746,10,0.000449272,-1.94346,0.347195,0.169933,75.5584,0.0394431,
2,1,0,1,0,7101.16,0.0497393,0.0494049,12.1546,4,0.00249439,10,0.000600497,-1.91526,0.349642,0.168744,79.9482,0.0494049,
2,1,0,1,0,7101.21,0.0597364,0.0593529,12.9684,4,0.00312221,10,0.000769711,-1.88711,0.349362,0.168879,85.3983,0.0593529,
2,1,0,1,0,7101.26,0.0697152,0.069372,13.8039,4,0.00379006,10,0.000957603,-1.86,0.380936,0.154882,83.4794,0.069372,
2,1,0,1,0,7101.31,0.0796941,0.0793625,14.6384,4,0.00450021,10,0.00116174,-1.83451,0.420183,0.140415,80.1808,0.0793625,
2,1,0,1,0,7101.36,0.0896911,0.0893426,15.4067,4,0.00525198,10,0.00137647,-1.81229,0.464102,0.127127,76.5295,0.0893426,
2,1,0,1,0,7101.41,0.099679,0.0993868,16.2043,4,0.00604048,10,0.0016105,-1.79037,0.456967,0.129112,81.5506,0.0993868,
2,1,0,1,0,7101.46,0.109658,0.10935,17.1145,4,0.00687043,10,0.00187147,-1.76664,0.37171,0.158726,106.145,0.1093504,
2,1,0,1,0,7101.51,0.119655,0.11937,18.4056,4,0.00775715,10,0.00219707,-1.73505,0.312206,0.188978,135.646,0.11937,
2,1,0,1,0,7101.56,0.129652,0.129287,19.8359,4,0.00871327,10,0.00256452,-1.70255,0.324293,0.181934,140.884,0.129287,
2,1,0,1,0,7101.61,0.139631,0.139307,21.1525,4,0.00973744,10,0.00294669,-1.67464,0.418727,0.140903,116.253,0.139307,
2,1,0,1,0,7101.66,0.149619,0.149271,22.1807,4,0.0108201,10,0.00331092,-1.65403,0.622943,0.0947117,81.9533,0.149271,
2,1,0,1,0,7101.71,0.159616,0.159298,22.5344,4,0.011943,10,0.00358969,-1.64715,-1.206,-0.0489219,-42.9413,0.159298,
2,1,0,1,0,7101.76,0.169595,0.169271,20.9127,4,0.0130379,10,0.00353991,-1.67959,-0.160184,-0.368325,-299.836,0.169271,
2,1,0,1,0,7101.81,0.179573,0.179293,16.9904,4,0.0139886,10,0.00304626,-1.7698,-0.0896391,-0.658195,-436.208,0.179293,
2,1,0,1,0,7101.86,0.18957,0.189282,13.341,4,0.0147403,10,0.00252521,-1.87481,-0.111537,-0.52897,-276.212,0.189282,
2,1,0,1,0,7101.91,0.199558,0.199283,11.312,4,0.0153494,10,0.00225429,-1.94646,-0.188158,-0.313565,-138.315,0.199283,
2,1,0,1,0,7101.96,0.209537,0.209245,10.2066,4,0.0158832,10,0.00213569,-1.99112,-0.274078,-0.215267,-85.8894,0.209245,
2,1,0,1,0,7102.01,0.219534,0.219238,9.53494,4,0.0163752,10,0.00209042,-2.02068,-0.404436,-0.145882,-54.221,0.219238,
2,1,0,1,0,7102.06,0.229531,0.22924,9.04433,4,0.0168393,10,0.00207333,-2.04362,-0.499806,-0.118046,-41.7537,0.22924,
2,1,0,1,0,7102.11,0.23951,0.239213,8.71258,4,0.0172822,10,0.00208416,-2.05985,-0.673188,-0.0876427,-29.7933,0.239213,
2,1,0,1,0,7102.16,0.249498,0.249167,8.43357,4,0.0177098,10,0.00210136,-2.07399,-0.795737,-0.0741451,-24.4389,0.249167,
2,1,0,1,0,7102.21,0.259495,0.259208,8.21997,4,0.0181259,10,0.00213069,-2.08513,-0.739819,-0.0797492,-25.5412,0.259208,
2,1,0,1,0,7102.26,0.269474,0.269197,8.02173,4,0.0185309,10,0.00215943,-2.09573,-1.18394,-0.0498337,-15.6284,0.269197,
2,1,0,1,0,7102.31,0.279453,0.27915,7.87066,4,0.0189273,10,0.0021971,-2.10399,-1.16531,-0.0506303,-15.5217,0.27915,
2,1,0,1,0,7102.36,0.28945,0.289104,7.70119,4,0.0193165,10,0.00222645,-2.11344,-1.67038,-0.0353212,-10.6352,0.289104,
2,1,0,1,0,7102.41,0.299438,0.299124,7.5777,4,0.0196977,10,0.00226667,-2.12046,-0.0523036,-1.12803,-317.24,0.299124,
2,0,0,1,0,7102.45,0.291747,0.291423,-1.10103,4,0.0197943,10,-0.000320866,-2.9582,-0.00450138,-13.1071,378.32,0.291423,
2,0,0,1,0,7102.5,0.28175,0.281436,-3.00453,4,0.019681,10,-0.000845584,-2.52222,-0.0671663,-0.878416,102.156,0.281436,
2,0,0,1,0,7102.55,0.27178,0.271493,-3.72978,4,0.0195115,10,-0.00101261,-2.42832,-0.145893,-0.404406,58.753,0.271493,
2,0,0,1,0,7102.6,0.261783,0.261485,-4.2136,4,0.0193121,10,-0.00110179,-2.37535,-0.259376,-0.227469,37.3355,0.261485,
2,0,0,1,0,7102.65,0.251786,0.251454,-4.5841,4,0.0190918,10,-0.00115269,-2.33875,-0.312204,-0.188979,33.8186,0.251454,
2,0,0,1,0,7102.7,0.241807,0.241501,-4.90125,4,0.0188546,10,-0.00118366,-2.30969,-0.360187,-0.163804,31.4026,0.241501,
2,0,0,1,0,7102.75,0.231824,0.231536,-5.20038,4,0.0186025,10,-0.00120408,-2.28396,-0.403369,-0.146268,29.6637,0.231536,
2,0,0,1,0,7102.8,0.221822,0.221525,-5.46625,4,0.0183357,10,-0.00121091,-2.26231,-0.455382,-0.129562,27.6329,0.221525,
2,0,0,1,0,7102.85,0.211844,0.211524,-5.74094,4,0.0180561,10,-0.00121435,-2.24102,-0.544088,-0.108438,24.2968,0.211524,
2,0,0,1,0,7102.9,0.201865,0.201549,-6.02254,4,0.0177625,10,-0.00121384,-2.22022,-0.54466,-0.108325,25.481,0.2015491,
2,0,0,1,0,7102.95,0.191868,0.191538,-6.33932,4,0.0174535,10,-0.00121422,-2.19796,-0.425958,-0.138511,34.3144,0.191538,
2,0,0,1,0,7103,0.18188,0.181595,-6.73162,4,0.017128,10,-0.00122243,-2.17188,-0.3353,-0.175962,46.1593,0.1815951,
2,0,0,1,0,7103.05,0.171901,0.171625,-7.22373,4,0.0167807,10,-0.00123978,-2.14124,-0.290297,-0.20324,57.3096,0.171625,
2,0,0,1,0,7103.1,0.161904,0.161578,-7.95238,4,0.0164027,10,-0.00128493,-2.0995,-0.205561,-0.287019,89.0469,0.161578,
2,0,0,1,0,7103.15,0.151907,0.151581,-9.07311,4,0.015979,10,-0.00137531,-2.04224,-0.148383,-0.39762,141.166,0.151581,
2,0,0,1,0,7103.2,0.141928,0.141625,-10.911,4,0.0154838,10,-0.00154527,-1.96214,-0.109513,-0.53875,229.382,0.141625,
2,0,0,1,0,7103.25,0.13194,0.131653,-13.5241,4,0.0148767,10,-0.00178049,-1.86889,-0.106249,-0.555299,293.195,0.131653,
2,0,0,1,0,7103.3,0.121943,0.121659,-16.4573,4,0.0141265,10,-0.00200218,-1.78364,-0.132112,-0.44659,286.23,0.121659,
2,0,0,1,0,7103.35,0.111964,0.11166,-18.9971,4,0.0132386,10,-0.00212122,-1.72131,-0.199879,-0.295179,218.801,0.11166,
2,0,0,1,0,7103.4,0.101985,0.10163,-20.784,4,0.0122427,10,-0.00211229,-1.68227,-0.362517,-0.162751,131.752,0.10163,
2,0,0,1,0,7103.45,0.0919883,0.0916808,-21.6273,4,0.011178,10,-0.00198281,-1.665,-1.2325,-0.0478702,40.4076,0.0916808,
2,0,0,1,0,7103.5,0.0820004,0.0817024,-21.4763,4,0.0100979,10,-0.00175467,-1.66804,0.737012,0.080053,-66.989,0.0817024,
2,0,0,1,0,7103.55,0.0720215,0.0717085,-20.4292,4,0.00905026,10,-0.00146495,-1.68975,0.384127,0.153595,-122.518,0.0717085,
2,0,0,1,0,7103.6,0.0620245,0.061685,-19.2425,4,0.00805934,10,-0.00118697,-1.71574,0.404195,0.145969,-109.602,0.061685,
2,0,0,1,0,7103.65,0.0520275,0.0517076,-18.3119,4,0.00712176,10,-0.000946865,-1.73727,0.496678,0.118789,-84.9174,0.0517076,
2,0,0,1,0,7103.7,0.0420486,0.0417328,-17.5704,4,0.00622696,10,-0.000733263,-1.75522,0.590365,0.0999382,-68.523,0.0417328,
2,0,0,1,0,7103.75,0.0320607,0.0317422,-16.8436,4,0.00536817,10,-0.000534654,-1.77357,0.511288,0.115395,-75.8746,0.0317422,
2,0,0,1,0,7103.8,0.0220637,0.0217795,-16.0154,4,0.00454608,10,-0.000348809,-1.79546,0.389883,0.151328,-94.4651,0.0217795,
2,0,0,1,0,7103.85,0.0120848,0.0117641,-14.9925,4,0.00377209,10,-0.000176374,-1.82412,0.315878,0.186781,-109.378,0.0117641,
2,0,0,1,0,7103.9,0.00210598,0.00172136,-14.0565,4,0.00304962,10,-2.41962e-05,-1.85212,0.409133,0.144207,-78.8456,0.00172136,
2,0,0,1,0,7103.95,-0.00789103,-0.00819971,-13.2557,4,0.00236841,10,0.000108693,-1.8776,0.558774,0.105588,-54.7425,-0.00819971,
2,0,0,1,0,7104,-0.017879,-0.0182738,-12.8908,4,0.00171733,10,0.000235563,-1.88972,1.41526,0.0416883,-20.9481,-0.0182738,
2,0,0,1,0,7104.05,-0.0278578,-0.0281885,-12.7647,4,0.00107843,10,0.000359818,-1.89399,11.1119,0.00530961,-2.64902,-0.02818848,
2,0,0,1,0,7104.1,-0.0378548,-0.0382015,-12.877,4,0.000438069,10,0.000491922,-1.89018,-1.8814,-0.0313596,15.7407,-0.0382015,
2,0,0,1,0,7104.15,-0.0478519,-0.048192,-13.0917,4,-0.000210836,10,0.000630915,-1.883,-0.927391,-0.0636194,32.5663,-0.048192,
2,0,0,1,0,7104.2,-0.0578126,-0.058127,-13.4528,4,-0.000871814,10,0.000781968,-1.87119,-0.777297,-0.0759041,39.8345,-0.058127,
2,0,0,1,0,7104.25,-0.0678187,-0.0681452,-13.8845,4,-0.00155514,10,0.000946165,-1.85747,-0.63194,-0.0933633,50.6389,-0.0681452,
2,0,0,1,0,7104.3,-0.0778157,-0.0781504,-14.4462,4,-0.00226326,10,0.00112898,-1.84025,-0.566173,-0.104208,58.7238,-0.0781504,
2,0,0,1,0,7104.35,-0.0877945,-0.0881755,-15.1071,4,-0.00300017,10,0.00133208,-1.82082,-0.490569,-0.120268,70.959,-0.0881755,
2,0,0,1,0,7104.4,-0.0977734,-0.0981123,-15.8833,4,-0.00377333,10,0.00155835,-1.79906,-0.438099,-0.134673,83.4953,-0.0981123,
2,0,0,1,1,7104.44,-0.0936874,-0.0940862,-5.42118,4,-0.00426342,10,0.000510058,-2.26591,-0.0108509,-5.43733,1126.26,-0.0940862,
2,1,0,1,1,7104.49,-0.0837086,-0.0840987,2.23864,4,-0.00431733,10,-0.000188267,-2.65001,0.00885496,6.66293,517.63,-0.0840987,
2,1,0,1,1,7104.54,-0.0737025,-0.0740848,6.11566,4,-0.0040984,10,-0.000453078,-2.21356,0.0493478,1.1956,283.075,-0.0740848,
2,1,0,1,1,7104.59,-0.0637236,-0.0640643,8.26378,4,-0.00373437,10,-0.000529413,-2.08282,0.121536,0.485454,155.981,-0.0640643,
2,1,0,1,1,7104.64,-0.0537448,-0.0541013,9.44916,4,-0.00328941,10,-0.000511212,-2.02461,0.25331,0.232916,85.8646,-0.0541013,
2,1,0,1,1,7104.69,-0.0437477,-0.0440813,10.1166,4,-0.00279824,10,-0.000445953,-1.99497,0.498634,0.118323,46.6524,-0.0440813,
2,1,0,1,1,7104.74,-0.0337507,-0.0340917,10.448,4,-0.00228296,10,-0.00035619,-1.98097,1.19215,0.0494904,20.1971,-0.03409167,
2,1,0,1,1,7104.79,-0.0237809,-0.0241142,10.5945,4,-0.00175859,10,-0.000255478,-1.97492,2.62483,0.0224776,9.27157,-0.0241142,
2,1,0,1,1,7104.84,-0.0137839,-0.0141506,10.5958,4,-0.00122866,10,-0.000149938,-1.97486,-6.29383,-0.00937425,-3.88159,-0.01415062,
2,1,0,1,1,7104.89,-0.0037869,-0.00415407,10.5846,4,-0.000699094,10,-4.39693e-05,-1.97532,-21.6794,-0.00272147,-1.12284,-0.00415407,
2,1,0,1,1,7104.91,-2.55332e-05,-0.000306236,10.5516,4,-0.000501392,10,-3.23128e-06,-1.97668, , , ,-0.000306236,

File: 20221101_1-115_003_TrumpetPlot_ParaChange_from10_every3_10_CV_C01_4.csv
mode,ox/red,error,control changes,counter inc.,time/s,control/V,Ewe/V,<I>/mA,cycle number,(Q-Qo)/C,I Range,P/W,log(|I|),Tafel slope mV/dec,alpha_eff,dI/d(E-IR),E-IR/V,
2,1,0,0,0,9071.04,-2.44065e-05,-0.000306236,5.32532,5,0.0000000E+000,10,-1.63081e-06,-2.27365, , , ,-0.000306236,
2,1,0,1,0,9071.09,0.00977853,0.00942916,8.65765,5,0.000360322,10,8.16344e-05,-2.0626,0.111702,0.528193,177.779,0.00942916,
2,1,0,1,0,9071.14,0.0197755,0.0194387,9.84616,5,0.000826562,10,0.000191397,-2.00673,0.263917,0.223555,85.8166,0.0194387,
2,1,0,1,0,9071.19,0.0297726,0.0294405,10.5868,5,0.0013383,10,0.00031168,-1.97524,0.36624,0.161096,66.5832,0.0294405,
2,1,0,1,0,9071.24,0.0397514,0.0393866,11.2871,5,0.00188411,10,0.000444561,-1.94742,0.335988,0.175602,77.3645,0.0393866,
2,1,0,1,0,9071.29,0.0497393,0.0494379,12.0504,5,0.00246612,10,0.000595747,-1.919,0.355872,0.16579,77.9237,0.0494379,
2,1,0,1,0,9071.34,0.0597364,0.0593937,12.8555,5,0.00308842,10,0.000763538,-1.89091,0.348653,0.169223,84.8311,0.0593937,
2,1,0,1,0,9071.39,0.0697152,0.0693999,13.6566,5,0.00374979,10,0.000947764,-1.86466,0.380107,0.15522,82.7503,0.0693999,
2,1,0,1,0,9071.44,0.0796941,0.0793625,14.465,5,0.00445188,10,0.00114798,-1.83968,0.421341,0.140029,79.0122,0.0793625,
2,1,0,1,0,9071.49,0.0896911,0.0893634,15.1966,5,0.00519404,10,0.00135802,-1.81825,0.477916,0.123453,73.3036,0.0893634,
2,1,0,1,0,9071.54,0.099679,0.0993606,15.9483,5,0.00597094,10,0.00158464,-1.79728,0.466365,0.12651,78.6511,0.0993606,
2,1,0,1,0,9071.59,0.109658,0.109374,16.8388,5,0.00678767,10,0.00184172,-1.77369,0.359473,0.164129,107.953,0.109374,
2,1,0,1,0,9071.64,0.119655,0.119299,18.0978,5,0.00765975,10,0.00215905,-1.74237,0.307553,0.191837,135.415,0.119299,
2,1,0,1,0,9071.69,0.129652,0.129324,19.4857,5,0.00859955,10,0.00251995,-1.71028,0.32786,0.179955,136.81,0.129324,
2,1,0,1,0,9071.74,0.139631,0.139352,20.7213,5,0.00960412,10,0.00288757,-1.68358,0.435379,0.135514,109.558,0.139352,
2,1,0,1,0,9071.79,0.149619,0.149292,21.678,5,0.0106633,10,0.00323635,-1.66398,0.662771,0.0890203,75.2251,0.149292,
2,1,0,1,0,9071.84,0.159616,0.159334,21.8881,5,0.0117573,10,0.00348751,-1.65979,-0.852042,-0.0692454,-59.0402,0.159334,
2,1,0,1,0,9071.89,0.169595,0.169252,20.1005,5,0.0128155,10,0.00340205,-1.69679,-0.147767,-0.399277,-312.34,0.169252,
2,1,0,1,0,9071.94,0.179573,0.179265,16.2264,5,0.0137254,10,0.00290884,-1.78978,-0.0925342,-0.637602,-403.932,0.1792655,
2,1,0,1,0,9071.99,0.18957,0.189254,12.8625,5,0.0144459,10,0.00243429,-1.89067,-0.118117,-0.499505,-251.221,0.189254,
2,1,0,1,0,9072.04,0.199558,0.199231,10.9966,5,0.0150359,10,0.00219086,-1.95874,-0.197978,-0.298012,-128.013,0.199231,
2,1,0,1,0,9072.09,0.209537,0.209266,9.99854,5,0.0155572,10,0.00209235,-2.00006,-0.272308,-0.216666,-84.568,0.209266,
2,1,0,1,0,9072.14,0.219534,0.21924,9.34838,5,0.0160395,10,0.00204954,-2.02926,-0.416653,-0.141605,-51.6929,0.21924,
2,1,0,1,0,9072.19,0.229531,0.229192,8.8905,5,0.0164952,10,0.00203763,-2.05107,-0.502309,-0.117458,-40.8036,0.229192,
2,1,0,1,0,9072.24,0.23951,0.23919,8.56643,5,0.0169307,10,0.00204901,-2.0672,-0.756913,-0.0779482,-26.0747,0.2391903,
2,1,0,1,0,9072.29,0.249498,0.249196,8.30746,5,0.0173516,10,0.00207019,-2.08053,-0.801612,-0.0736016,-23.867,0.249196,
2,1,0,1,0,9072.34,0.259495,0.259178,8.10034,5,0.0177616,10,0.00209943,-2.0915,-0.85227,-0.0692269,-21.8884,0.259178,
2,1,0,1,0,9072.39,0.269474,0.269169,7.92223,5,0.0181613,10,0.00213241,-2.10115,-1.12485,-0.0524515,-16.2312,0.269169,
2,1,0,1,0,9072.44,0.279453,0.279123,7.76552,5,0.018553,10,0.00216754,-2.10983,-1.26758,-0.0465455,-14.1169,0.2791234,
2,1,0,1,0,9072.49,0.28945,0.289175,7.62997,5,0.018938,10,0.0022064,-2.11748,-1.62499,-0.0363079,-10.8072,0.289175,
2,1,0,1,0,9072.54,0.299438,0.299144,7.50272,5,0.0193154,10,0.00224439,-2.12478,-0.0509493,-1.15802,-322.762,0.299144,
2,0,0,1,0,9072.58,0.291747,0.291441,-0.98715,5,0.0194133,10,-0.000287696,-3.00562,-0.00374172,-15.7681,370.958,0.291441,
2,0,0,1,0,9072.63,0.28175,0.281403,-2.89195,5,0.019306,10,-0.000813805,-2.53881,-0.0642303,-0.918569,102.3,0.281403,
2,0,0,1,0,9072.68,0.27178,0.271462,-3.60915,5,0.0191422,10,-0.000979745,-2.4426,-0.135369,-0.435845,61.5235,0.271462,
2,0,0,1,0,9072.73,0.261783,0.261465,-4.10173,5,0.0189486,10,-0.00107246,-2.38703,-0.230392,-0.256085,40.8761,0.261465,
2,0,0,1,0,9072.78,0.251786,0.251459,-4.464,5,0.018734,10,-0.00112251,-2.35028,-0.283305,-0.208256,36.3794,0.251459,
2,0,0,1,0,9072.83,0.241807,0.241502,-4.78837,5,0.0185025,10,-0.0011564,-2.31981,-0.359504,-0.164115,30.7103,0.241502,
2,0,0,1,0,9072.88,0.231824,0.23153,-5.07897,5,0.0182562,10,-0.00117594,-2.29422,-0.387683,-0.152186,30.1735,0.23153,
2,0,0,1,0,9072.93,0.221822,0.221553,-5.35543,5,0.0179954,10,-0.00118651,-2.27121,-0.463977,-0.127162,26.4978,0.2215526,
2,0,0,1,0,9072.98,0.211844,0.211545,-5.61268,5,0.0177218,10,-0.00118733,-2.25083,-0.538109,-0.109643,24.0516,0.211545,
2,0,0,1,0,9073.03,0.201865,0.201531,-5.89558,5,0.0174346,10,-0.00118814,-2.22947,-0.491958,-0.119929,27.5697,0.201531,
2,0,0,1,0,9073.08,0.191868,0.191573,-6.18787,5,0.0171323,10,-0.00118543,-2.20846,-0.39359,-0.149902,36.3291,0.191573,
2,0,0,1,0,9073.13,0.18188,0.181612,-6.57498,5,0.0168143,10,-0.00119409,-2.18211,-0.33586,-0.175668,44.9566,0.181612,
2,0,0,1,0,9073.18,0.171901,0.171619,-7.03574,5,0.0164755,10,-0.00120747,-2.15269,-0.29448,-0.200353,55.0494,0.171619,
2,0,0,1,0,9073.23,0.161904,0.161611,-7.71968,5,0.0161078,10,-0.00124758,-2.1124,-0.210176,-0.280717,84.5452,0.161611,
2,0,0,1,0,9073.28,0.151907,0.151606,-8.76546,5,0.0156974,10,-0.0013289,-2.05723,-0.15423,-0.382545,131.276,0.151606,
2,0,0,1,0,9073.33,0.141928,0.141646,-10.4988,5,0.0152198,10,-0.00148712,-1.97886,-0.110178,-0.535498,219.629,0.141646,
2,0,0,1,0,9073.38,0.13194,0.13165,-13.0206,5,0.0146353,10,-0.00171415,-1.88537,-0.107616,-0.548245,278.679,0.13165,
2,0,0,1,0,9073.43,0.121943,0.121687,-15.8699,5,0.0139125,10,-0.00193116,-1.79942,-0.130347,-0.452639,279.681,0.121687,
2,0,0,1,0,9073.48,0.111964,0.111689,-18.34,5,0.0130558,10,-0.00204836,-1.7366,-0.198511,-0.297213,212.57,0.111689,
2,0,0,1,0,9073.53,0.101985,0.101739,-20.0698,5,0.0120941,10,-0.00204188,-1.69746,-0.357475,-0.165046,129.099,0.101739,
2,0,0,1,0,9073.58,0.0919883,0.0916426,-20.9062,5,0.0110654,10,-0.0019159,-1.67972,-1.18033,-0.0499862,40.7863,0.0916426,
2,0,0,1,0,9073.63,0.0820004,0.0817231,-20.7762,5,0.0100208,10,-0.00169789,-1.68243,0.770153,0.0766081,-62.0394,0.0817231,
2,0,0,1,0,9073.68,0.0720215,0.0716634,-19.8196,5,0.00900589,10,-0.00142034,-1.7029,0.397132,0.148565,-114.931,0.0716634,
2,0,0,1,0,9073.73,0.0620245,0.0616755,-18.7314,5,0.0080432,10,-0.00115527,-1.72743,0.431999,0.136574,-99.8225,0.0616755,
2,0,0,1,0,9073.78,0.0520275,0.051672,-17.894,5,0.0071288,10,-0.000924618,-1.74729,0.548604,0.107546,-75.0944,0.051672,
2,0,0,1,0,9073.83,0.0420486,0.0417519,-17.2203,5,0.00625323,10,-0.000718981,-1.76396,0.652108,0.0904757,-60.8156,0.0417519,
2,0,0,1,0,9073.88,0.0320607,0.0317657,-16.5672,5,0.00541001,10,-0.000526269,-1.78075,0.558781,0.105587,-68.2654,0.0317657,
2,0,0,1,0,9073.93,0.0220637,0.0217561,-15.8261,5,0.00459957,10,-0.000344314,-1.80063,0.428595,0.137659,-84.9596,0.0217561,
2,0,0,1,0,9073.98,0.0120848,0.0117896,-14.9094,5,0.00383223,10,-0.000175775,-1.82654,0.330794,0.178359,-103.787,0.0117896,
2,0,0,1,0,9074.03,0.00210598,0.00175172,-14.0267,5,0.00311251,10,-2.45709e-05,-1.85305,0.431086,0.136864,-74.6606,0.00175172,
2,0,0,1,0,9074.08,-0.00789103,-0.00827693,-13.2269,5,0.00243267,10,0.000109478,-1.87854,0.522152,0.112994,-58.4244,-0.008276931,
2,0,0,1,0,9074.13,-0.017879,-0.0182396,-12.838,5,0.00178368,10,0.00023416,-1.8915,1.22243,0.0482645,-24.1561,-0.0182396,
2,0,0,1,0,9074.18,-0.0278578,-0.0282241,-12.6883,5,0.00114801,10,0.000358114,-1.8966,7.66516,0.00769717,-3.81449,-0.0282241,
2,0,0,1,0,9074.23,-0.0378548,-0.0382562,-12.7702,5,0.000512232,10,0.000488538,-1.8938,-2.29124,-0.0257503,12.8274,-0.03825618,
2,0,0,1,0,9074.28,-0.0478519,-0.0481443,-12.9837,5,-0.000131234,10,0.000625089,-1.8866,-0.968048,-0.0609474,30.9063,-0.0481443,
2,0,0,1,0,9074.33,-0.0578126,-0.0581625,-13.321,5,-0.000785846,10,0.000774781,-1.87546,-0.784882,-0.0751705,39.0714,-0.0581625,
2,0,0,1,0,9074.38,-0.0678187,-0.0681981,-13.7532,5,-0.00146223,10,0.000937945,-1.8616,-0.630017,-0.0936483,50.2477,-0.0681981,
2,0,0,1,0,9074.43,-0.0778157,-0.078166,-14.2878,5,-0.00216277,10,0.00111682,-1.84503,-0.578885,-0.10192,56.8402,-0.078166,
2,0,0,1,0,9074.48,-0.0877945,-0.0881644,-14.9555,5,-0.00289177,10,0.00131855,-1.8252,-0.467579,-0.126182,73.6169,-0.0881644,
2,0,0,1,0,9074.53,-0.0977734,-0.0981557,-15.7065,5,-0.00365652,10,0.00154169,-1.80392,-0.42827,-0.137763,84.5042,-0.09815567,
2,0,0,1,1,9074.57,-0.0936874,-0.0940616,-5.42269,5,-0.00414115,10,0.000510067,-2.26579,-0.0111527,-5.29022,1098.68,-0.0940616,
2,1,0,1,1,9074.62,-0.0837086,-0.084097,2.01397,5,-0.00420172,10,-0.000169369,-2.69595,0.00795489,7.41682,508.887,-0.084097,
2,1,0,1,1,9074.67,-0.0737025,-0.0740458,5.82524,5,-0.00399605,10,-0.000431335,-2.23469,0.0467051,1.26324,284.527,-0.0740458,
2,1,0,1,1,9074.72,-0.0637236,-0.0640865,7.96826,5,-0.00364691,10,-0.000510658,-2.09864,0.11632,0.507221,157.128,-0.0640865,
2,1,0,1,1,9074.77,-0.0537447,-0.0540961,9.17743,5,-0.0032162,10,-0.000496463,-2.03728,0.240933,0.244882,87.6207,-0.0540961,
2,1,0,1,1,9074.82,-0.0437477,-0.0440743,9.86603,5,-0.00273832,10,-0.000434839,-2.00586,0.476558,0.123805,47.6163,-0.0440743,
2,1,0,1,1,9074.87,-0.0337507,-0.0341021,10.2203,5,-0.00223495,10,-0.000348532,-1.99054,0.951956,0.0619776,24.7282,-0.0341021,
2,1,0,1,1,9074.92,-0.0237809,-0.0241333,10.3827,5,-0.00172154,10,-0.000250568,-1.98369,2.31582,0.025477,10.305,-0.0241333,
2,1,0,1,1,9074.97,-0.0137839,-0.0141593,10.4034,5,-0.00120156,10,-0.000147305,-1.98282,-14.5572,-0.00405296,-1.6468,-0.0141593,
2,1,0,1,1,9075.02,-0.0037869,-0.00411416,10.4062,5,-0.000681266,10,-4.28127e-05,-1.98271,-35.6209,-0.00165633,-0.671804,-0.00411416,
2,1,0,1,1,9075.04,-2.55332e-05,-0.000363498,10.3748,5,-0.000486826,10,-3.77121e-06,-1.98402, , , ,-0.000363498,