Folder: Figs_alphaMnO2_OER_Tafel_sleope/Figure_codes/Fig_3-5/rawdata_trumpetplot_data/after 10th

Note: README.md
# Figs_alphaMnO2_OER_Tafel_sleope
Figures and analyses of "A Non-Rate-Determining Redox Process Dictates the Oxygen Evolution Tafel Slope of MnO2"

File: 20221101_1-115_003_TrumpetPlot_ParaChange_from10_every3_02_CV_C01_0.csv
mode,ox/red,error,control changes,counter inc.,time/s,control/V,Ewe/V,<I>/mA,cycle number,(Q-Qo)/C,I Range,P/W,log(|I|),Tafel slope mV/dec,alpha_eff,dI/d(E-IR),E-IR/V,
2,0,0,0,0,340.03,2.44065e-05,-0.000325324,-0.329638,1,0.0000000E+000,10,1.07239e-07,-3.48196, , , ,-0.000325324,
2,0,0,1,0,347.296,0.00729061,0.00698938,-0.0864336,1,-0.000821222,10,-6.04117e-07,-4.06332,-0.0290975,-2.02766,6.98992,0.00698938,
2,0,0,1,0,354.787,0.0147815,0.0144207,-0.0529139,1,-0.00120449,10,-7.63053e-07,-4.27643,-0.0365852,-1.61267,3.33043,0.0144207,
2,0,0,1,0,362.278,0.0222725,0.0219846,-0.034377,1,-0.00140004,10,-7.55764e-07,-4.46373,-0.0368262,-1.60212,2.14613,0.0219846,
2,0,0,1,0,369.769,0.0297635,0.02947,-0.0202691,1,-0.00147604,10,-5.97331e-07,-4.69317,-0.0289839,-2.03561,1.60026,0.02947,
2,0,0,1,0,377.26,0.0372544,0.0369543,-0.00847567,1,-0.0014564,10,-3.13212e-07,-5.07183,-0.012532,-4.70795,1.47,0.0369543,
2,1,0,1,0,384.751,0.0447454,0.0444259,0.00395786,1,-0.00134685,10,1.75832e-07,-5.40254,0.00313965,18.7919,1.42091,0.0444259,
2,0,0,1,0,392.242,0.0522363,0.0519166,0.0147402,1,-0.00114898,10,7.65264e-07,-4.8315,0.017842,3.3068,1.86456,0.0519166,
2,1,0,1,0,399.733,0.0597273,0.0594519,0.027048,1,-0.000863726,10,1.60806e-06,-4.56786,0.0486098,1.21375,1.25389,0.0594519,
2,1,0,1,0,407.224,0.0672183,0.0668886,0.0372091,1,-0.000496065,10,2.48887e-06,-4.42935,0.0742269,0.79486,1.12498,0.0668886,
2,1,0,1,0,414.715,0.0747092,0.0743751,0.0457046,1,-5.84287e-05,10,3.39929e-06,-4.34004,0.0954389,0.618197,1.10442,0.0743751,
2,1,0,1,0,422.206,0.0822001,0.0819462,0.0539257,1,0.000445426,10,4.41901e-06,-4.2682,0.125188,0.47129,0.990208,0.0819462,
2,1,0,1,0,429.697,0.0896911,0.089402,0.0628417,1,0.00101244,10,5.61817e-06,-4.20175,0.0991726,0.594922,1.46828,0.089402,
2,1,0,1,0,437.188,0.0971821,0.0968684,0.0725453,1,0.00164865,10,7.02735e-06,-4.13939,0.0864619,0.682382,1.94121,0.0968684,
2,1,0,1,0,444.679,0.104673,0.104365,0.0864348,1,0.00237156,10,9.0208e-06,-4.06331,0.0963277,0.612492,2.04518,0.104365,
2,1,0,1,0,452.17,0.112164,0.111863,0.100724,1,0.00320348,10,1.12673e-05,-3.99687,0.138916,0.424716,1.66253,0.111863,
2,1,0,1,0,459.661,0.119655,0.119337,0.116023,1,0.00415168,10,1.38458e-05,-3.93546,0.137347,0.429568,1.93746,0.119337,
2,1,0,1,0,467.152,0.127146,0.126832,0.128453,1,0.0052113,10,1.62919e-05,-3.89126,0.16112,0.366186,1.84808,0.126832,
2,1,0,1,0,474.643,0.134637,0.134325,0.143222,1,0.0063758,10,1.92383e-05,-3.84399,0.351704,0.167755,0.916095,0.134325,
2,1,0,1,0,482.133,0.142128,0.141809,0.13714,1,0.00757277,10,1.94477e-05,-3.86284,-0.171453,-0.344118,-1.81577,0.141809,
2,1,0,1,0,489.624,0.149619,0.149314,0.113879,1,0.00865984,10,1.70038e-05,-3.94355,-0.0732437,-0.80553,-3.59218,0.149314,
2,1,0,1,0,497.115,0.15711,0.15682,0.0882277,1,0.00954979,10,1.38358e-05,-4.0544,-0.0672276,-0.877615,-3.03002,0.15682,
2,1,0,1,0,504.606,0.164601,0.164303,0.0720157,1,0.0102751,10,1.18324e-05,-4.14257,-0.100681,-0.586006,-1.64566,0.164303,
2,1,0,1,0,512.097,0.172091,0.171807,0.0632816,1,0.010908,10,1.08722e-05,-4.19872,-0.18028,-0.327269,-0.809259,0.171807,
2,1,0,1,0,519.588,0.179582,0.179282,0.0586882,1,0.0114876,10,1.05217e-05,-4.23145,-0.300775,-0.19616,-0.448713,0.179282,
2,1,0,1,0,527.079,0.187073,0.186744,0.0561193,1,0.0120418,10,1.048e-05,-4.25089,-0.379736,-0.155371,-0.339721,0.1867442,
2,1,0,1,0,534.57,0.194564,0.194255,0.0550408,1,0.0125798,10,1.06919e-05,-4.25932,-0.824677,-0.0715432,-0.154699,0.194255,
2,1,0,1,0,542.061,0.202055,0.201779,0.0541961,1,0.0131122,10,1.09356e-05,-4.26603,-0.495319,-0.119115,-0.253298,0.201779,
2,1,0,1,0,549.552,0.209546,0.209223,0.0542528,1,0.0136391,10,1.13509e-05,-4.26558,2.58604,0.0228148,0.0483961,0.209223,
2,1,0,1,0,557.043,0.217037,0.216766,0.0545508,1,0.0141663,10,1.18248e-05,-4.2632,0.439968,0.134101,0.287506,0.216766,
2,1,0,1,0,564.534,0.224528,0.224212,0.0549259,1,0.0146968,10,1.2315e-05,-4.26022,-1.199,-0.0492077,-0.105968,0.224212,
2,1,0,1,0,572.025,0.232019,0.23173,0.0550391,1,0.0152302,10,1.27542e-05,-4.25933,1.95019,0.0302534,0.0658411,0.23173,
2,1,0,1,0,579.516,0.23951,0.239199,0.0564239,1,0.0157657,10,1.34966e-05,-4.24854,0.414736,0.142259,0.314387,0.239199,
2,1,0,1,0,587.007,0.247001,0.246684,0.056638,1,0.0163073,10,1.39717e-05,-4.24689,3.18192,0.0185422,0.0410809,0.246684,
2,1,0,1,0,594.498,0.254492,0.254231,0.0579454,1,0.0168543,10,1.47315e-05,-4.23698,0.841219,0.0701363,0.159671,0.254231,
2,1,0,1,0,601.989,0.261983,0.261698,0.0584355,1,0.0174075,10,1.52925e-05,-4.23332,2.35572,0.0250455,0.0574352,0.261698,
2,1,0,1,0,609.48,0.269474,0.269154,0.0592274,1,0.0179655,10,1.59413e-05,-4.22748,3.26791,0.0180543,0.0420445,0.269154,
2,1,0,1,0,616.971,0.276965,0.276688,0.0599644,1,0.0185279,10,1.65914e-05,-4.22211,-2.03859,-0.0289415,-0.0680301,0.2766878,
2,1,0,1,0,624.462,0.284456,0.284153,0.0602741,1,0.0190927,10,1.71271e-05,-4.21987,0.885533,0.0666265,0.156936,0.2841531,
2,1,0,1,0,631.953,0.291947,0.291643,0.0614735,1,0.0196637,10,1.79283e-05,-4.21131,-2.33132,-0.0253076,-0.0607573,0.291643,
2,1,0,1,0,639.443,0.299438,0.299186,0.0623724,1,0.0202394,10,1.8661e-05,-4.20501,-0.00670333,-8.80159,-15.9051,0.299186,
2,1,0,1,0,646.286,0.293745,0.293478,0.0189545,1,0.0203531,10,5.56272e-06,-4.72229,0.0301982,1.95376,1.45855,0.293478,
2,1,0,1,0,653.777,0.286254,0.285961,0.0113279,1,0.0203489,10,3.23935e-06,-4.94585,0.0247055,2.38813,0.967586,0.285961,
2,1,0,1,0,661.268,0.278763,0.278501,0.00540778,1,0.0202946,10,1.50607e-06,-5.26698,0.0218371,2.70183,0.545274,0.278501,
2,1,0,1,0,668.759,0.271272,0.270967,0.000632562,1,0.020203,10,1.71403e-07,-6.1989,0.00348473,16.931,0.562295,0.270967,
2,1,0,1,0,676.25,0.263781,0.263492,-0.00304744,1,0.0200792,10,-8.02975e-07,-5.51607,-0.0166165,-3.55069,0.504264,0.263492,
2,0,0,1,0,683.741,0.25629,0.255991,-0.00690011,1,0.0199265,10,-1.76637e-06,-5.16114,-0.0463942,-1.27171,0.32881,0.255991,
2,1,0,1,0,691.232,0.248799,0.248512,-0.010442,1,0.0197473,10,-2.59497e-06,-4.98122,-0.0449859,-1.31152,0.522907,0.248512,
2,0,0,1,0,698.722,0.241308,0.240998,-0.0139568,1,0.0195412,10,-3.36357e-06,-4.85521,-0.0787688,-0.749027,0.40309,0.240998,
2,0,0,1,0,706.213,0.233817,0.233542,-0.0171123,1,0.0193103,10,-3.99643e-06,-4.76669,-0.10201,-0.578377,0.383283,0.233542,
2,0,0,1,0,713.704,0.226326,0.226064,-0.0200709,1,0.0190553,10,-4.53732e-06,-4.69743,-0.163191,-0.36154,0.279455,0.226064,
2,0,0,1,0,721.195,0.218835,0.218529,-0.0224248,1,0.0187796,10,-4.90046e-06,-4.64927,-0.396623,-0.148756,0.131519,0.218529,
2,0,0,1,0,728.686,0.211344,0.211058,-0.0259976,1,0.0184812,10,-5.48702e-06,-4.58507,-0.167475,-0.352291,0.352565,0.2110583,
2,0,0,1,0,736.177,0.203853,0.203518,-0.0292323,1,0.0181554,10,-5.94929e-06,-4.53414,-0.130673,-0.45151,0.516199,0.203518,
2,0,0,1,0,743.668,0.196362,0.196014,-0.0330012,1,0.0178016,10,-6.4687e-06,-4.48147,-0.121196,-0.486815,0.62679,0.196014,
2,0,0,1,0,751.159,0.188871,0.188568,-0.037104,1,0.017417,10,-6.99663e-06,-4.43058,-0.120112,-0.491208,0.714637,0.188568,
2,0,0,1,0,758.65,0.18138,0.181106,-0.0429055,1,0.016995,10,-7.77043e-06,-4.36749,-0.127418,-0.463042,0.775962,0.181106,
2,0,0,1,0,766.141,0.173889,0.173579,-0.0496343,1,0.0165213,10,-8.61548e-06,-4.30422,-0.190943,-0.308992,0.615533,0.173579,
2,0,0,1,0,773.632,0.166398,0.16609,-0.0601356,1,0.0159796,10,-9.98789e-06,-4.22087,-0.0814312,-0.724538,1.71273,0.1660895,
2,0,0,1,0,781.123,0.158907,0.158616,-0.0762989,1,0.0153373,10,-1.21022e-05,-4.11748,-0.0609123,-0.968606,2.89879,0.158616,
2,0,0,1,0,788.614,0.151417,0.15111,-0.102216,1,0.0145358,10,-1.5446e-05,-3.99048,-0.0573853,-1.02814,4.12492,0.15111,
2,0,0,1,0,796.105,0.143926,0.143601,-0.135324,1,0.0135051,10,-1.94326e-05,-3.86862,-0.0707149,-0.834336,4.39512,0.143601,
2,0,0,1,0,803.596,0.136435,0.136114,-0.162069,1,0.0122428,10,-2.20599e-05,-3.7903,-0.161012,-0.366433,2.28909,0.136114,
2,0,0,1,0,811.087,0.128944,0.128641,-0.169472,1,0.010848,10,-2.18011e-05,-3.7709,-8.05377,-0.00732576,0.0484722,0.128641,
2,0,0,1,0,818.578,0.121453,0.121123,-0.167111,1,0.00943764,10,-2.0241e-05,-3.77699,0.539025,0.109457,-0.711563,0.121123,
2,0,0,1,0,826.069,0.113962,0.113681,-0.158106,1,0.00807246,10,-1.79737e-05,-3.80105,0.29135,0.202505,-1.2555,0.113681,
2,0,0,1,0,833.56,0.106471,0.10615,-0.149294,1,0.00677587,10,-1.58475e-05,-3.82596,0.263803,0.223652,-1.30974,0.1061501,
2,0,0,1,0,841.051,0.0989798,0.0986689,-0.139226,1,0.00555813,10,-1.37373e-05,-3.85628,0.241133,0.244679,-1.32258,0.0986689,
2,0,0,1,0,848.542,0.0914889,0.0912004,-0.130818,1,0.0044131,10,-1.19307e-05,-3.88333,0.41419,0.142447,-0.726992,0.0912004,
2,0,0,1,0,856.032,0.083998,0.0836823,-0.124818,1,0.00331843,10,-1.04451e-05,-3.90372,0.317522,0.185814,-0.906648,0.0836823,
2,0,0,1,0,863.523,0.076507,0.0761682,-0.120291,1,0.00226422,10,-9.16237e-06,-3.91977,0.471171,0.12522,-0.586836,0.0761682,
2,0,0,1,0,871.014,0.069016,0.0687198,-0.115688,1,0.00124379,10,-7.95003e-06,-3.93671,0.406192,0.145252,-0.657841,0.0687198,
2,0,0,1,0,878.505,0.0615251,0.0612059,-0.111405,1,0.000258626,10,-6.81862e-06,-3.9531,0.342751,0.172137,-0.74561,0.0612059,
2,0,0,1,0,885.996,0.0540342,0.0537163,-0.106793,1,-0.000689393,10,-5.73653e-06,-3.97146,0.288555,0.204467,-0.846003,0.05371625,
2,0,0,1,0,893.487,0.0465432,0.0461863,-0.10156,1,-0.00160047,10,-4.69066e-06,-3.99328,0.672711,0.0877049,-0.346845,0.0461863,
2,0,0,1,0,900.978,0.0390522,0.0387273,-0.0974263,1,-0.00247928,10,-3.77306e-06,-4.01132,0.527681,0.11181,-0.426642,0.0387273,
2,0,0,1,0,908.469,0.0315613,0.0312313,-0.0953586,1,-0.00333325,10,-2.97817e-06,-4.02064,1.49254,0.0395298,-0.146957,0.0312313,
2,0,0,1,0,915.96,0.0240703,0.0237141,-0.0936553,1,-0.00417313,10,-2.22095e-06,-4.02847,-16.9874,-0.00347316,0.0127747,0.0237141,
2,0,0,1,0,923.451,0.0165794,0.0162563,-0.09534,1,-0.00501452,10,-1.54988e-06,-4.02072,-0.760692,-0.0775609,0.287025,0.0162563,
2,0,0,1,0,930.942,0.00908843,0.00878889,-0.0981975,1,-0.0058707,10,-8.63047e-07,-4.0079,-0.66285,-0.0890095,0.34197,0.00878889,
2,0,0,1,0,938.433,0.00159744,0.00123871,-0.102728,1,-0.00675302,10,-1.2725e-07,-3.98831, , , ,0.00123871,
2,0,0,1,0,939.831,0.000199235,-0.000159207,-0.103415,1,-0.00692103,10,1.64644e-08,-3.98542, , , ,-0.000159207,

File: 20221101_1-115_003_TrumpetPlot_ParaChange_from10_every3_02_CV_C01_1.csv
mode,ox/red,error,control changes,counter inc.,time/s,control/V,Ewe/V,<I>/mA,cycle number,(Q-Qo)/C,I Range,P/W,log(|I|),Tafel slope mV/dec,alpha_eff,dI/d(E-IR),E-IR/V,
2,0,0,1,0,2310.16,2.44065e-05,-0.000229887,-0.332818,2,0.0000000E+000,10,7.65104e-08,-3.47779, , , ,-0.000229887,
2,0,0,1,0,2317.43,0.00729061,0.00699147,-0.094021,2,-0.000871811,10,-6.57344e-07,-4.02678,-0.0326671,-1.8061,6.71811,0.006991466,
2,0,0,1,0,2324.92,0.0147815,0.0145129,-0.0607639,2,-0.00131657,10,-8.81859e-07,-4.21635,-0.0445433,-1.32455,3.15761,0.01451287,
2,0,0,1,0,2332.41,0.0222725,0.0219167,-0.041652,2,-0.00157703,10,-9.12873e-07,-4.38036,-0.0447211,-1.31929,2.1757,0.0219167,
2,0,0,1,0,2339.9,0.0297635,0.02947,-0.0274674,2,-0.00171558,10,-8.09464e-07,-4.56118,-0.0346586,-1.70232,1.79474,0.02947,
2,0,0,1,0,2347.39,0.0372544,0.0369246,-0.0154549,2,-0.0017526,10,-5.70668e-07,-4.81093,-0.0200878,-2.93711,1.6591,0.0369246,
2,0,0,1,0,2354.88,0.0447454,0.0444345,-0.00236023,2,-0.00169705,10,-1.04876e-07,-5.62705,-0.00376197,-15.6833,1.59054,0.0444345,
2,1,0,1,0,2362.37,0.0522363,0.0519379,0.00870846,2,-0.00155226,10,4.52299e-07,-5.06006,0.0116297,5.0732,1.60653,0.0519379,
2,1,0,1,0,2369.86,0.0597273,0.0594074,0.0192735,2,-0.00132206,10,1.14499e-06,-4.71504,0.0324265,1.8195,1.35238,0.0594074,
2,1,0,1,0,2377.35,0.0672183,0.0669321,0.0296839,2,-0.00101429,10,1.9868e-06,-4.52748,0.060656,0.972698,1.09155,0.0669321,
2,1,0,1,0,2384.85,0.0747092,0.0744058,0.0386172,2,-0.000637389,10,2.87334e-06,-4.41322,0.085028,0.693889,1.04283,0.0744058,
2,1,0,1,0,2392.34,0.0822001,0.0818954,0.047027,2,-0.000193765,10,3.85129e-06,-4.32765,0.100063,0.58963,1.06923,0.0818954,
2,1,0,1,0,2399.83,0.0896911,0.0893968,0.0559042,2,0.000314886,10,4.99765e-06,-4.25256,0.0874804,0.674437,1.49534,0.0893968,
2,1,0,1,0,2407.32,0.0971821,0.096878,0.0672757,2,0.000898076,10,6.51754e-06,-4.17214,0.0785585,0.751032,1.95106,0.096878,
2,1,0,1,0,2414.81,0.104673,0.104394,0.0811844,2,0.00157217,10,8.47517e-06,-4.09053,0.099022,0.595827,1.85744,0.104394,
2,1,0,1,0,2422.3,0.112164,0.111894,0.0941324,2,0.00235364,10,1.05329e-05,-4.02626,0.154166,0.382705,1.39804,0.111894,
2,1,0,1,0,2429.79,0.119655,0.119326,0.107353,2,0.00323635,10,1.28099e-05,-3.96919,0.14583,0.404582,1.68531,0.119326,
2,1,0,1,0,2437.28,0.127146,0.126827,0.118424,2,0.00421607,10,1.50193e-05,-3.92656,0.170657,0.345724,1.6042,0.126827,
2,1,0,1,0,2444.77,0.134637,0.134364,0.127527,2,0.00527856,10,1.71351e-05,-3.8944,0.76452,0.0771726,0.38331,0.134364,
2,1,0,1,0,2452.26,0.142128,0.141838,0.120197,2,0.00635055,10,1.70485e-05,-3.92011,-0.127098,-0.464209,-2.14632,0.141838,
2,1,0,1,0,2459.75,0.149619,0.149251,0.0957492,2,0.0072923,10,1.42907e-05,-4.01886,-0.0648875,-0.909267,-3.39736,0.149251,
2,1,0,1,0,2467.25,0.15711,0.156786,0.0742009,2,0.00804765,10,1.16336e-05,-4.12959,-0.0728543,-0.809836,-2.33546,0.156786,
2,1,0,1,0,2474.74,0.164601,0.164267,0.0625451,2,0.00867248,10,1.02741e-05,-4.20381,-0.117461,-0.502292,-1.21315,0.164267,
2,1,0,1,0,2482.23,0.172091,0.171824,0.0557078,2,0.00922881,10,9.57195e-06,-4.25408,-0.167873,-0.351457,-0.763543,0.1718242,
2,1,0,1,0,2489.72,0.179582,0.179245,0.0518123,2,0.00974711,10,9.2871e-06,-4.28557,-0.221079,-0.266873,-0.53886,0.179245,
2,1,0,1,0,2497.21,0.187073,0.186773,0.0508091,2,0.0102444,10,9.48976e-06,-4.29406,-1.18501,-0.0497887,-0.0974397,0.186773,
2,1,0,1,0,2504.7,0.194564,0.194286,0.0496268,2,0.0107321,10,9.64178e-06,-4.30428,-3.16087,-0.0186657,-0.036262,0.194286,
2,1,0,1,0,2512.19,0.202055,0.201769,0.0491558,2,0.011216,10,9.91812e-06,-4.30843,0.661286,0.0892202,0.171392,0.201769,
2,1,0,1,0,2519.68,0.209546,0.209287,0.0500407,2,0.0116996,10,1.04729e-05,-4.30068,1.73595,0.0339871,0.0661176,0.209287,
2,1,0,1,0,2527.17,0.217037,0.216725,0.0499019,2,0.0121874,10,1.0815e-05,-4.30188,-6.43538,-0.00916807,-0.0179447,0.216725,
2,1,0,1,0,2534.66,0.224528,0.224252,0.0506453,2,0.0126765,10,1.13573e-05,-4.29546,0.756972,0.0779421,0.153525,0.224252,
2,1,0,1,0,2542.16,0.232019,0.231703,0.0511373,2,0.0131708,10,1.18487e-05,-4.29126,2.3974,0.02461,0.0499703,0.2317033,
2,1,0,1,0,2549.65,0.23951,0.239213,0.0525205,2,0.0136703,10,1.25636e-05,-4.27967,0.511563,0.115333,0.237023,0.239213,
2,1,0,1,0,2557.14,0.247001,0.246724,0.0535099,2,0.0141765,10,1.32022e-05,-4.27157,4.67536,0.0126193,0.0263933,0.246724,
2,1,0,1,0,2564.63,0.254492,0.254219,0.0541874,2,0.0146871,10,1.37755e-05,-4.2661,0.703888,0.0838201,0.178709,0.254219,
2,1,0,1,0,2572.12,0.261983,0.261649,0.0548357,2,0.0152067,10,1.43477e-05,-4.26094,-1.43235,-0.041191,-0.0885895,0.261649,
2,1,0,1,0,2579.61,0.269474,0.269187,0.0551825,2,0.0157287,10,1.48544e-05,-4.2582,0.595001,0.0991595,0.216418,0.269187,
2,1,0,1,0,2587.1,0.276965,0.276669,0.0565281,2,0.0162579,10,1.56396e-05,-4.24774,2.82693,0.0208707,0.0462916,0.276669,
2,1,0,1,0,2594.59,0.284456,0.284164,0.0573525,2,0.0167919,10,1.62975e-05,-4.24145,18.9495,0.00311355,0.007002,0.284164,
2,1,0,1,0,2602.08,0.291947,0.291648,0.0583082,2,0.0173321,10,1.70055e-05,-4.23427,17.0839,0.00345355,0.00787095,0.291648,
2,1,0,1,0,2609.57,0.299438,0.299132,0.0588464,2,0.0178758,10,1.76029e-05,-4.23028,-0.00583179,-10.117,-16.4985,0.299132,
2,1,0,1,0,2616.42,0.293745,0.29341,0.0144276,2,0.0179628,10,4.23319e-06,-4.84081,0.0218624,2.6987,1.51883,0.29341,
2,0,0,1,0,2623.91,0.286254,0.285961,0.00614008,2,0.0179323,10,1.75582e-06,-5.21183,0.0156499,3.77,0.889392,0.285961,
2,1,0,1,0,2631.4,0.278763,0.278469,0.000899813,2,0.0178501,10,2.5057e-07,-6.04585,0.00773355,7.62909,0.617164,0.278469,
2,0,0,1,0,2638.89,0.271272,0.270971,-0.00468468,2,0.0177294,10,-1.26941e-06,-5.32932,-0.0164348,-3.58994,0.545171,0.270971,
2,0,0,1,0,2646.38,0.263781,0.263463,-0.00886515,2,0.0175744,10,-2.33564e-06,-5.05231,-0.0524553,-1.12477,0.365246,0.263463,
2,1,0,1,0,2653.87,0.25629,0.256031,-0.0113538,2,0.0173916,10,-2.90692e-06,-4.94486,-0.0513491,-1.149,0.505008,0.256031,
2,0,0,1,0,2661.36,0.248799,0.248483,-0.0145184,2,0.0171854,10,-3.60757e-06,-4.83808,-0.106608,-0.553428,0.317028,0.248483,
2,0,0,1,0,2668.85,0.241308,0.241017,-0.0178591,2,0.0169545,10,-4.30435e-06,-4.74814,-0.167284,-0.352693,0.24764,0.241017,
2,0,0,1,0,2676.34,0.233817,0.233492,-0.0209415,2,0.0166998,10,-4.88967e-06,-4.67899,-0.164006,-0.359743,0.290816,0.233492,
2,1,0,1,0,2683.83,0.226326,0.226043,-0.0233496,2,0.0164246,10,-5.27801e-06,-4.63172,-0.14373,-0.410493,0.381702,0.226043,
2,0,0,1,0,2691.33,0.218835,0.218526,-0.0265392,2,0.0161258,10,-5.79949e-06,-4.57611,-0.157265,-0.375164,0.38852,0.218526,
2,0,0,1,0,2698.82,0.211344,0.211013,-0.0296154,2,0.0158042,10,-6.24922e-06,-4.52848,-0.200291,-0.294572,0.339546,0.211013,
2,0,0,1,0,2706.31,0.203853,0.203544,-0.0331878,2,0.0154573,10,-6.75518e-06,-4.47902,-0.16274,-0.362541,0.463087,0.203544,
2,0,0,1,0,2713.8,0.196362,0.196032,-0.0360844,2,0.0150848,10,-7.0737e-06,-4.44268,-0.130924,-0.450642,0.638977,0.196032,
2,0,0,1,0,2721.29,0.188871,0.188537,-0.0398543,2,0.0146811,10,-7.51403e-06,-4.39952,-0.147968,-0.398734,0.623903,0.188537,
2,0,0,1,0,2728.78,0.18138,0.181104,-0.0452839,2,0.0142447,10,-8.20109e-06,-4.34406,-0.108776,-0.542398,0.954476,0.181104,
2,0,0,1,0,2736.27,0.173889,0.173573,-0.0514216,2,0.0137657,10,-8.92539e-06,-4.28885,-0.135843,-0.434326,0.876082,0.173573,
2,0,0,1,0,2743.76,0.166398,0.1661,-0.0598939,2,0.0132289,10,-9.94838e-06,-4.22262,-0.119852,-0.492275,1.1609,0.1661001,
2,0,0,1,0,2751.25,0.158907,0.158634,-0.0726262,2,0.012609,10,-1.1521e-05,-4.13891,-0.0794094,-0.742986,2.13008,0.158634,
2,0,0,1,0,2758.74,0.151417,0.151105,-0.094885,2,0.0118575,10,-1.43376e-05,-4.0228,-0.0620668,-0.950588,3.51974,0.151105,
2,0,0,1,0,2766.24,0.143926,0.143627,-0.124607,2,0.0109067,10,-1.78969e-05,-3.90446,-0.0621576,-0.9492,4.60731,0.143627,
2,0,0,1,0,2773.73,0.136435,0.136129,-0.153745,2,0.00972391,10,-2.09291e-05,-3.8132,-0.122397,-0.482037,2.85948,0.136129,
2,0,0,1,0,2781.22,0.128944,0.128664,-0.165196,2,0.0083821,10,-2.12546e-05,-3.782,-0.74794,-0.0788834,0.508547,0.128664,
2,0,0,1,0,2788.71,0.121453,0.121104,-0.164934,2,0.00700179,10,-1.99742e-05,-3.78269,0.576466,0.102348,-0.659899,0.121104,
2,0,0,1,0,2796.2,0.113962,0.113686,-0.157935,2,0.00565212,10,-1.79551e-05,-3.80152,0.51477,0.114614,-0.709435,0.113686,
2,0,0,1,0,2803.69,0.106471,0.106171,-0.150485,2,0.00435741,10,-1.59772e-05,-3.82251,0.417713,0.141245,-0.83573,0.1061713,
2,0,0,1,0,2811.18,0.0989798,0.0986509,-0.143275,2,0.00312607,10,-1.41342e-05,-3.84383,0.313679,0.18809,-1.04549,0.0986509,
2,0,0,1,0,2818.67,0.0914889,0.0911877,-0.134024,2,0.00196312,10,-1.22214e-05,-3.87282,0.344238,0.171393,-0.894088,0.09118773,
2,0,0,1,0,2826.16,0.083998,0.0837151,-0.127987,2,0.000856114,10,-1.07145e-05,-3.89283,0.329161,0.179244,-0.893992,0.0837151,
2,0,0,1,0,2833.65,0.076507,0.0761936,-0.123508,2,-0.000211577,10,-9.41055e-06,-3.9083,0.505066,0.116817,-0.562269,0.0761936,
2,0,0,1,0,2841.14,0.069016,0.0687336,-0.119426,2,-0.00124728,10,-8.20859e-06,-3.9229,0.451496,0.130677,-0.61002,0.06873364,
2,0,0,1,0,2848.64,0.0615251,0.0612313,-0.114935,2,-0.00225129,10,-7.03764e-06,-3.93955,0.39765,0.148372,-0.664393,0.0612313,
2,0,0,1,0,2856.13,0.0540342,0.0537215,-0.111432,2,-0.00322203,10,-5.98632e-06,-3.95299,0.388307,0.151942,-0.656913,0.0537215,
2,0,0,1,0,2863.62,0.0465432,0.0462117,-0.106197,2,-0.00415895,10,-4.90752e-06,-3.97389,0.479615,0.123015,-0.512786,0.0462117,
2,0,0,1,0,2871.11,0.0390522,0.0387506,-0.102839,2,-0.00506463,10,-3.98507e-06,-3.98784,0.763467,0.077279,-0.307275,0.03875063,
2,0,0,1,0,2878.6,0.0315613,0.0312483,-0.0995036,2,-0.00594396,10,-3.10932e-06,-4.00216,0.59683,0.0988557,-0.383893,0.0312483,
2,0,0,1,0,2886.09,0.0240703,0.0238106,-0.0981839,2,-0.00680676,10,-2.33781e-06,-4.00796,-2.78618,-0.0211759,0.0811972,0.0238106,
2,0,0,1,0,2893.58,0.0165794,0.0162669,-0.0988286,2,-0.00766743,10,-1.60764e-06,-4.00512,-0.937985,-0.0629008,0.24279,0.0162669,
2,0,0,1,0,2901.07,0.00908843,0.0087507,-0.101019,2,-0.00853778,10,-8.83987e-07,-3.9956,-0.456288,-0.129304,0.508947,0.0087507,
2,0,0,1,0,2908.56,0.00159744,0.00119839,-0.104322,2,-0.0094299,10,-1.25019e-07,-3.98162, , , ,0.00119839,
2,0,0,1,0,2909.96,0.000199235,-0.000195464,-0.10551,2,-0.00959926,10,2.06234e-08,-3.97671, , , ,-0.000195464,