Folder: Figs_alphaMnO2_OER_Tafel_sleope/Figure_codes/Fig_3-5/rawdata_trumpetplot_data/after 10th (part 131)

File: 20221101_1-115_003_TrumpetPlot_ParaChange_from10_every3_09_CV_C01_18.csv
mode,ox/red,error,control changes,counter inc.,time/s,control/V,Ewe/V,<I>/mA,cycle number,(Q-Qo)/C,I Range,P/W,log(|I|),Tafel slope mV/dec,alpha_eff,dI/d(E-IR),E-IR/V,
2,0,0,0,0,36644.9,2.44065e-05,-0.000248974,-5.31104,19,0.0000000E+000,10,1.32231e-06,-2.27482, , , ,-0.000248974,
2,1,0,1,0,36645,0.00978761,0.00943177,1.07445,19,-0.000117828,10,1.0134e-05,-2.96881,0.00702206,8.40209,289.739,0.00943177,
2,1,0,1,0,36645.1,0.0197755,0.019428,2.89179,19,9.42691e-05,10,5.61816e-05,-2.53883,0.0567979,1.03877,116.498,0.019428,
2,1,0,1,0,36645.2,0.0297635,0.0294535,3.79361,19,0.000431972,10,0.000111735,-2.42095,0.125556,0.469909,69.3533,0.0294535,
2,1,0,1,0,36645.3,0.0397514,0.0394336,4.42256,19,0.000843371,10,0.000174397,-2.35433,0.16264,0.362764,62.6177,0.0394336,
2,1,0,1,0,36645.4,0.0497484,0.0494483,4.98314,19,0.00131372,10,0.000246408,-2.3025,0.219453,0.26885,52.1915,0.0494483,
2,1,0,1,0,36645.5,0.0597273,0.0594123,5.48549,19,0.00183638,10,0.000325906,-2.26078,0.248685,0.237248,50.7572,0.0594123,
2,1,0,1,0,36645.6,0.0697152,0.0693845,5.95018,19,0.0024084,10,0.00041285,-2.22547,0.329152,0.179249,41.6494,0.0693845,
2,1,0,1,0,36645.7,0.0797031,0.0793586,6.36748,19,0.00302431,10,0.000505314,-2.19603,0.376691,0.156627,38.9148,0.0793586,
2,1,0,1,0,36645.8,0.0896911,0.089393,6.71361,19,0.00367854,10,0.00060015,-2.17304,0.463908,0.12718,33.3801,0.089393,
2,1,0,1,0,36645.9,0.099679,0.0993441,7.09272,19,0.00436699,10,0.00070462,-2.14919,0.376469,0.156719,43.344,0.0993441,
2,1,0,1,0,36646,0.109667,0.109354,7.62703,19,0.00510025,10,0.000834049,-2.11764,0.27855,0.211811,63.0949,0.109354,
2,1,0,1,0,36646.1,0.119655,0.119344,8.33561,19,0.00589683,10,0.000994803,-2.07906,0.27663,0.213281,69.3678,0.119344,
2,1,0,1,0,36646.2,0.129643,0.12929,8.97554,19,0.0067633,10,0.00116045,-2.04694,0.377805,0.156165,54.6922,0.12929,
2,1,0,1,0,36646.3,0.139631,0.13933,9.4149,19,0.00768426,10,0.00131178,-2.02618,0.643076,0.0917465,33.7175,0.13933,
2,1,0,1,0,36646.4,0.149619,0.149337,9.56472,19,0.00863564,10,0.00142837,-2.01933,-1.16927,-0.0504589,-18.7785,0.149337,
2,1,0,1,0,36646.5,0.159607,0.159277,8.82567,19,0.00956367,10,0.00140572,-2.05425,-0.154866,-0.380975,-130.894,0.159277,
2,1,0,1,0,36646.6,0.169595,0.169276,7.20362,19,0.010367,10,0.0012194,-2.14245,-0.102085,-0.577948,-162.433,0.169276,
2,1,0,1,0,36646.7,0.179582,0.179265,5.80619,19,0.0110117,10,0.00104084,-2.23611,-0.125175,-0.471339,-107.063,0.179265,
2,1,0,1,0,36646.8,0.18957,0.189237,4.99985,19,0.011548,10,0.000946158,-2.30104,-0.195878,-0.301207,-58.8587,0.189237,
2,1,0,1,0,36646.9,0.199558,0.199265,4.54679,19,0.0120225,10,0.000906018,-2.3423,-0.324092,-0.182047,-32.3073,0.199265,
2,1,0,1,0,36647,0.209546,0.209264,4.28029,19,0.0124623,10,0.00089571,-2.36853,-0.408869,-0.144301,-24.1214,0.209264,
2,1,0,1,0,36647.1,0.219534,0.219258,4.10355,19,0.0128802,10,0.000899735,-2.38684,-0.717543,-0.082225,-13.1668,0.219258,
2,1,0,1,0,36647.2,0.229522,0.229236,3.97824,19,0.0132841,10,0.000911955,-2.40031,-0.904617,-0.065221,-10.1374,0.229236,
2,1,0,1,0,36647.3,0.23951,0.239212,3.89782,19,0.013678,10,0.000932405,-2.40918,-1.82419,-0.0323432,-4.92634,0.239212,
2,1,0,1,0,36647.4,0.249498,0.249174,3.84037,19,0.0140644,10,0.000956918,-2.41563,-1.57356,-0.0374946,-5.61673,0.249174,
2,1,0,1,0,36647.5,0.259486,0.259163,3.78317,19,0.0144454,10,0.000980458,-2.42214,-1.43385,-0.041148,-6.07528,0.259163,
2,1,0,1,0,36647.6,0.269474,0.269178,3.7374,19,0.0148215,10,0.00100603,-2.42743,-1.62044,-0.0364098,-5.31251,0.269178,
2,1,0,1,0,36647.7,0.279462,0.279113,3.69548,19,0.0151932,10,0.00103146,-2.43233,-1.76771,-0.0333764,-4.81181,0.279113,
2,1,0,1,0,36647.8,0.28945,0.289201,3.65012,19,0.0155604,10,0.00105562,-2.43769,-3.43275,-0.0171874,-2.44606,0.289201,
2,1,0,1,0,36647.9,0.299438,0.299173,3.60611,19,0.0159229,10,0.00107885,-2.44296,-0.0362982,-1.62542,-213.535,0.299173,
2,0,0,1,0,36647.9,0.291747,0.291442,-0.602177,19,0.0160032,10,-0.0001755,-3.22028,-0.00633247,-9.31706,170.341,0.291442,
2,0,0,1,0,36648,0.281759,0.281433,-1.51493,19,0.0158881,10,-0.00042635,-2.81961,-0.0662459,-0.890622,52.2329,0.281433,
2,0,0,1,0,36648.1,0.271771,0.271446,-1.89892,19,0.0157154,10,-0.000515452,-2.72149,-0.143447,-0.411302,30.466,0.271446,
2,0,0,1,0,36648.2,0.261783,0.261426,-2.15019,19,0.0155121,10,-0.000562115,-2.66752,-0.239693,-0.246148,20.6274,0.261426,
2,0,0,1,0,36648.3,0.251795,0.251449,-2.33912,19,0.0152872,10,-0.000588171,-2.63095,-0.323715,-0.182259,16.6397,0.251449,
2,0,0,1,0,36648.4,0.241807,0.241491,-2.49616,19,0.0150448,10,-0.0006028,-2.60273,-0.370444,-0.159268,15.546,0.241491,
2,0,0,1,0,36648.5,0.231815,0.231504,-2.63842,19,0.0147875,10,-0.000610804,-2.57866,-0.375716,-0.157034,16.1855,0.231504,
2,0,0,1,0,36648.6,0.221831,0.221502,-2.77561,19,0.0145168,10,-0.000614802,-2.55664,-0.505679,-0.116675,12.6262,0.221502,
2,0,0,1,0,36648.7,0.211843,0.211486,-2.90143,19,0.0142331,10,-0.000613613,-2.53739,-0.661334,-0.0892137,10.0888,0.211486,
2,0,0,1,0,36648.8,0.201856,0.201545,-3.02428,19,0.0139367,10,-0.000609528,-2.51938,-0.562273,-0.104931,12.3965,0.201545,
2,0,0,1,0,36648.9,0.191868,0.191558,-3.15935,19,0.0136273,10,-0.0006052,-2.5004,-0.52748,-0.111853,13.8154,0.191558,
2,0,0,1,0,36649,0.18188,0.181563,-3.32022,19,0.0133041,10,-0.000602829,-2.47883,-0.39167,-0.150637,19.4643,0.181563,
2,0,0,1,0,36649.1,0.171892,0.171586,-3.49602,19,0.0129641,10,-0.000599869,-2.45643,-0.40494,-0.145701,19.8881,0.171586,
2,0,0,1,0,36649.2,0.161904,0.161538,-3.75293,19,0.0126027,10,-0.00060624,-2.42563,-0.276791,-0.213157,31.186,0.1615376,
2,0,0,1,0,36649.3,0.151916,0.15161,-4.13772,19,0.0122097,10,-0.000627319,-2.38324,-0.190611,-0.30953,50.1575,0.15161,
2,0,0,1,0,36649.4,0.141928,0.141591,-4.84797,19,0.0117636,10,-0.000686431,-2.31444,-0.117679,-0.501362,95.0132,0.141591,
2,0,0,1,0,36649.5,0.13194,0.131624,-6.00734,19,0.011225,10,-0.000790712,-2.22132,-0.100839,-0.585089,137.132,0.131624,
2,0,0,1,0,36649.6,0.121952,0.121649,-7.3687,19,0.010556,10,-0.000896397,-2.13261,-0.132654,-0.444765,127.69,0.121649,
2,0,0,1,0,36649.7,0.111964,0.111594,-8.50926,19,0.0097597,10,-0.000949583,-2.07011,-0.199231,-0.296139,98.2622,0.111594,
2,0,0,1,0,36649.8,0.101976,0.10166,-9.294,19,0.00886641,10,-0.000944832,-2.0318,-0.396332,-0.148865,53.8998,0.10166,
2,0,0,1,0,36649.9,0.0919883,0.0916477,-9.57626,19,0.0079192,10,-0.000877643,-2.0188,-4.32603,-0.0136384,5.09559,0.0916477,
2,0,0,1,0,36650,0.0820004,0.08168,-9.39499,19,0.00696894,10,-0.000767383,-2.0271,0.665025,0.0887185,-32.5087,0.08168,
2,0,0,1,0,36650.1,0.0720124,0.0716907,-9.02674,19,0.00604871,10,-0.000647133,-2.04447,0.59093,0.0998426,-35.1875,0.0716907,
2,0,0,1,0,36650.2,0.0620245,0.0616973,-8.73418,19,0.00516213,10,-0.000538875,-2.05878,0.736927,0.0800622,-27.293,0.0616973,
2,0,0,1,0,36650.3,0.0520366,0.0517306,-8.48136,19,0.00430206,10,-0.000438746,-2.07153,0.73472,0.0803027,-26.5819,0.0517306,
2,0,0,1,0,36650.4,0.0420486,0.0417709,-8.21268,19,0.00346752,10,-0.000343051,-2.08552,0.73305,0.0804857,-25.8134,0.0417709,
2,0,0,1,0,36650.5,0.0320607,0.0317239,-7.91236,19,0.00266198,10,-0.000251011,-2.10169,0.534802,0.110321,-34.0387,0.0317239,
2,0,0,1,0,36650.6,0.0220728,0.0217453,-7.53944,19,0.0018897,10,-0.000163947,-2.12266,0.428171,0.137796,-40.5302,0.0217453,
2,0,0,1,0,36650.7,0.0120848,0.011747,-7.14146,19,0.00115651,10,-8.38906e-05,-2.14621,0.411722,0.143301,-39.954,0.01174699,
2,0,0,1,0,36650.8,0.0020969,0.00168795,-6.85323,19,0.000460424,10,-1.15679e-05,-2.1641,0.77784,0.0758511,-20.1941,0.00168795,
2,0,0,1,0,36650.9,-0.00789103,-0.00830383,-6.59965,19,-0.000209913,10,5.48024e-05,-2.18048,1.11633,0.052852,-13.6438,-0.00830383,
2,0,0,1,0,36651,-0.017879,-0.0182035,-6.54323,19,-0.000864867,10,0.00011911,-2.18421,-5827.41,-1.01246e-05,0.00258268,-0.0182035,
2,0,0,1,0,36651.1,-0.0278669,-0.0282353,-6.58618,19,-0.00151939,10,0.000185963,-2.18137,-1.87875,-0.0314038,8.07835,-0.0282353,
2,0,0,1,0,36651.2,-0.0378548,-0.0382514,-6.72461,19,-0.00218334,10,0.000257226,-2.17233,-0.953873,-0.0618531,16.22,-0.0382514,
2,0,0,1,0,36651.3,-0.0478428,-0.0482211,-6.92705,19,-0.00286457,10,0.000334029,-2.15945,-0.58613,-0.10066,27.228,-0.0482211,
2,0,0,1,0,36651.4,-0.0578216,-0.058222,-7.19993,19,-0.00356895,10,0.000419194,-2.14267,-0.562623,-0.104866,29.4489,-0.058222,
2,0,0,1,0,36651.5,-0.0678187,-0.0681654,-7.53085,19,-0.00430396,10,0.000513344,-2.12316,-0.462411,-0.127592,37.492,-0.0681654,
2,0,0,1,0,36651.6,-0.0778066,-0.0782233,-7.93517,19,-0.00507576,10,0.000620715,-2.10044,-0.431768,-0.136648,42.3326,-0.0782233,
2,0,0,1,0,36651.7,-0.0877945,-0.0881909,-8.41403,19,-0.0058917,10,0.000742041,-2.075,-0.38159,-0.154616,50.7761,-0.0881909,
2,0,0,1,0,36651.8,-0.0977825,-0.0981835,-8.91599,19,-0.00675741,10,0.000875403,-2.04983,-0.390233,-0.151192,52.6647,-0.0981835,
2,0,0,1,1,36651.9,-0.0927386,-0.0930975,-2.81771,19,-0.00733769,10,0.000262322,-2.5501,-0.0124839,-4.72609,513.074,-0.0930975,
2,1,0,1,1,36652,-0.0827529,-0.0831027,0.726493,19,-0.00741982,10,-6.03736e-05,-3.13877,0.00510226,11.5635,250.705,-0.0831027,
2,1,0,1,1,36652.1,-0.0727627,-0.0731269,2.62721,19,-0.00724312,10,-0.000192119,-2.58051,0.0414912,1.42199,143.868,-0.0731269,
2,1,0,1,1,36652.2,-0.0627748,-0.0631599,3.74726,19,-0.00691967,10,-0.000236677,-2.42629,0.0995717,0.592538,86.3817,-0.0631599,
2,1,0,1,1,36652.3,-0.0527868,-0.05314,4.42777,19,-0.00650765,10,-0.000235292,-2.35381,0.203606,0.289775,49.9678,-0.05314,
2,1,0,1,1,36652.4,-0.0427989,-0.0431859,4.83078,19,-0.00604255,10,-0.000208622,-2.31598,0.340278,0.173388,32.6793,-0.0431859,
2,1,0,1,1,36652.5,-0.0328109,-0.0331551,5.06065,19,-0.00554696,10,-0.000167786,-2.29579,0.780371,0.0756051,14.9105,-0.0331551,
2,1,0,1,1,36652.6,-0.022823,-0.0231608,5.1673,19,-0.00503506,10,-0.000119679,-2.28674,1.90684,0.0309413,6.23513,-0.0231608,
2,1,0,1,1,36652.7,-0.0128351,-0.0131902,5.19522,19,-0.00451652,10,-6.8526e-05,-2.2844,7.62043,0.00774234,1.56971,-0.0131902,
2,1,0,1,1,36652.8,-0.00284713,-0.0031905,5.19946,19,-0.00399658,10,-1.65889e-05,-2.28404,-17.7122,-0.00333103,-0.675384,-0.0031905,
2,1,0,1,1,36652.9,-2.55332e-05,-0.000439847,5.20893,19,-0.00385038,10,-2.29113e-06,-2.28325, , , ,-0.000439847,

File: 20221101_1-115_003_TrumpetPlot_ParaChange_from10_every3_09_CV_C01_19.csv
mode,ox/red,error,control changes,counter inc.,time/s,control/V,Ewe/V,<I>/mA,cycle number,(Q-Qo)/C,I Range,P/W,log(|I|),Tafel slope mV/dec,alpha_eff,dI/d(E-IR),E-IR/V,
2,0,0,0,0,38615,2.44065e-05,-0.000363498,-5.29514,20,0.0000000E+000,10,1.92477e-06,-2.27612, , , ,-0.000363498,
2,1,0,1,0,38615.1,0.00978761,0.00948903,1.26756,20,-0.000100578,10,1.20279e-05,-2.89703,0.00872999,6.75831,289.138,0.00948903,
2,1,0,1,0,38615.2,0.0197755,0.0194242,3.03755,20,0.000129285,10,5.90021e-05,-2.51748,0.0621664,0.949065,111.945,0.0194242,
2,1,0,1,0,38615.3,0.0297635,0.0294487,3.9037,20,0.000480617,10,0.000114959,-2.40852,0.131744,0.447838,67.9862,0.0294487,
2,1,0,1,0,38615.4,0.0397514,0.0394502,4.50965,20,0.000902983,10,0.000177906,-2.34586,0.171257,0.344512,60.7118,0.0394502,
2,1,0,1,0,38615.5,0.0497484,0.0494175,5.07011,20,0.00138275,10,0.000250552,-2.29498,0.2242,0.263158,51.9305,0.0494175,
2,1,0,1,0,38615.6,0.0597273,0.059398,5.56381,20,0.0019141,10,0.00033048,-2.25463,0.256452,0.230062,49.9115,0.059398,
2,1,0,1,0,38615.7,0.0697152,0.0693612,6.01803,20,0.0024943,10,0.000417418,-2.22055,0.318258,0.185384,43.5835,0.0693612,
2,1,0,1,0,38615.8,0.0797031,0.0793803,6.43644,20,0.00311824,10,0.000510926,-2.19135,0.393559,0.149914,37.669,0.0793803,
2,1,0,1,0,38615.9,0.0896911,0.0893452,6.78147,20,0.00378003,10,0.000605892,-2.16868,0.456677,0.129194,34.2389,0.0893452,
2,1,0,1,0,38616,0.099679,0.0993582,7.16665,20,0.00447602,10,0.000712065,-2.14468,0.373992,0.157757,44.0775,0.0993582,
2,1,0,1,0,38616.1,0.109667,0.109333,7.71697,20,0.00521811,10,0.00084372,-2.11255,0.280291,0.210496,63.439,0.109333,
2,1,0,1,0,38616.2,0.119655,0.119328,8.44781,20,0.00602557,10,0.00100806,-2.07326,0.272187,0.216763,71.4182,0.119328,
2,1,0,1,0,38616.3,0.129643,0.129308,9.09167,20,0.00690429,10,0.00117563,-2.04136,0.389872,0.151332,53.6602,0.129308,
2,1,0,1,0,38616.4,0.139631,0.139306,9.51383,20,0.00783669,10,0.00132533,-2.02164,0.709036,0.0832116,30.8954,0.139306,
2,1,0,1,0,38616.5,0.149619,0.149319,9.59917,20,0.00879597,10,0.00143334,-2.01777,-0.816782,-0.0722347,-26.9869,0.149319,
2,1,0,1,0,38616.6,0.159607,0.159289,8.73472,20,0.00972236,10,0.00139135,-2.05875,-0.138818,-0.425016,-144.531,0.159289,
2,1,0,1,0,38616.7,0.169595,0.169323,7.03023,20,0.0105122,10,0.00119038,-2.15303,-0.0956536,-0.616809,-169.28,0.169323,
2,1,0,1,0,38616.8,0.179582,0.179274,5.66279,20,0.0111411,10,0.00101519,-2.24697,-0.125824,-0.468907,-103.892,0.179274,
2,1,0,1,0,38616.9,0.18957,0.189236,4.90414,20,0.0116657,10,0.000928038,-2.30944,-0.203542,-0.289866,-55.4949,0.189236,
2,1,0,1,0,38617,0.199558,0.199265,4.48498,20,0.0121328,10,0.000893698,-2.34824,-0.333884,-0.176708,-30.9111,0.199265,
2,1,0,1,0,38617.1,0.209546,0.209215,4.23748,20,0.0125678,10,0.000886543,-2.37289,-0.429936,-0.13723,-22.7119,0.209215,
2,1,0,1,0,38617.2,0.219534,0.219264,4.07031,20,0.0129828,10,0.000892471,-2.39037,-0.755291,-0.0781155,-12.4198,0.219264,
2,1,0,1,0,38617.3,0.229522,0.229254,3.9549,20,0.0133847,10,0.000906676,-2.40286,-0.900168,-0.0655434,-10.1435,0.229254,
2,1,0,1,0,38617.4,0.23951,0.239191,3.88367,20,0.0137773,10,0.00092894,-2.41076,-1.51602,-0.0389176,-5.89851,0.239191,
2,1,0,1,0,38617.5,0.249498,0.249216,3.82561,20,0.0141627,10,0.000953406,-2.4173,-1.94293,-0.0303665,-4.53019,0.249216,
2,1,0,1,0,38617.6,0.259486,0.25923,3.78029,20,0.0145429,10,0.000979964,-2.42247,-1.56754,-0.0376385,-5.54355,0.25923,
2,1,0,1,0,38617.7,0.269474,0.269191,3.7267,20,0.0149183,10,0.0010032,-2.42868,-2.11392,-0.0279102,-4.06416,0.269191,
2,1,0,1,0,38617.8,0.279462,0.279121,3.68247,20,0.0152894,10,0.00102785,-2.43386,-1.49077,-0.039577,-5.69399,0.279121,
2,1,0,1,0,38617.9,0.28945,0.289128,3.64138,20,0.0156559,10,0.00105283,-2.43873,-2.69049,-0.0219291,-3.11405,0.289128,
2,1,0,1,0,38618,0.299438,0.29918,3.60006,20,0.0160179,10,0.00107707,-2.44369,-0.0336619,-1.75272,-228.324,0.29918,
2,0,0,1,0,38618.1,0.291747,0.291426,-0.701799,20,0.0160904,10,-0.000204523,-3.15379,-0.00805798,-7.32194,167.922,0.291426,
2,0,0,1,0,38618.2,0.281759,0.281412,-1.59094,20,0.0159672,10,-0.000447709,-2.79835,-0.074014,-0.797146,49.0424,0.281412,
2,0,0,1,0,38618.3,0.271771,0.271472,-1.96243,20,0.0157887,10,-0.000532744,-2.70721,-0.150809,-0.391223,29.874,0.271472,
2,0,0,1,0,38618.4,0.261783,0.261447,-2.2027,20,0.0155804,10,-0.000575888,-2.65705,-0.263086,-0.224262,19.2533,0.261447,
2,0,0,1,0,38618.5,0.251795,0.251464,-2.38567,20,0.015351,10,-0.00059991,-2.62239,-0.31862,-0.185174,17.244,0.251464,
2,0,0,1,0,38618.6,0.241807,0.241525,-2.5408,20,0.0151047,10,-0.000613666,-2.59503,-0.373861,-0.157813,15.6883,0.2415251,
2,0,0,1,0,38618.7,0.231815,0.231478,-2.68901,20,0.0148437,10,-0.000622447,-2.57041,-0.403775,-0.146121,15.321,0.231478,
2,0,0,1,0,38618.8,0.221831,0.221552,-2.81662,20,0.0145696,10,-0.000624027,-2.55027,-0.519239,-0.113628,12.4607,0.221552,
2,0,0,1,0,38618.9,0.211843,0.211565,-2.93649,20,0.0142826,10,-0.000621258,-2.53217,-0.672857,-0.0876858,10.0409,0.211565,
2,0,0,1,0,38619,0.201856,0.201527,-3.06338,20,0.013983,10,-0.000617354,-2.5138,-0.55905,-0.105536,12.6253,0.2015274,
2,0,0,1,0,38619.1,0.191868,0.191526,-3.19885,20,0.0136706,10,-0.000612662,-2.49501,-0.503673,-0.11714,14.6498,0.191526,
2,0,0,1,0,38619.2,0.18188,0.181505,-3.35561,20,0.0133444,10,-0.000609061,-2.47423,-0.424538,-0.138975,18.1586,0.181505,
2,0,0,1,0,38619.3,0.171892,0.171558,-3.5348,20,0.0130012,10,-0.000606422,-2.45164,-0.403894,-0.146078,20.1743,0.171558,
2,0,0,1,0,38619.4,0.161904,0.161607,-3.79716,20,0.0126363,10,-0.000613649,-2.42054,-0.284168,-0.207624,30.7396,0.161607,
2,0,0,1,0,38619.5,0.151916,0.151543,-4.19202,20,0.0122392,10,-0.000635273,-2.37758,-0.183429,-0.321651,52.7425,0.151543,
2,0,0,1,0,38619.6,0.141928,0.141633,-4.92887,20,0.0117875,10,-0.000698092,-2.30725,-0.113267,-0.520891,100.317,0.141633,
2,0,0,1,0,38619.7,0.13194,0.131599,-6.12669,20,0.0112401,10,-0.000806267,-2.21277,-0.100853,-0.585012,139.881,0.131599,
2,0,0,1,0,38619.8,0.121952,0.121665,-7.50937,20,0.0105587,10,-0.000913629,-2.1244,-0.134455,-0.438808,128.391,0.121665,
2,0,0,1,0,38619.9,0.111964,0.111653,-8.65565,20,0.00974889,10,-0.000966433,-2.0627,-0.203241,-0.290295,97.9867,0.111653,
2,0,0,1,0,38620,0.101976,0.101682,-9.42155,20,0.00884275,10,-0.000958003,-2.02588,-0.431399,-0.136764,50.1754,0.101682,
2,0,0,1,0,38620.1,0.0919883,0.0916345,-9.64995,20,0.00788607,10,-0.000884268,-2.01548,-68.9822,-0.000855293,0.322065,0.0916345,
2,0,0,1,0,38620.2,0.0820004,0.0816746,-9.41461,20,0.0069318,10,-0.000768935,-2.0262,0.572558,0.103046,-37.8295,0.0816746,
2,0,0,1,0,38620.3,0.0720124,0.0716877,-9.02185,20,0.00601172,10,-0.000646755,-2.0447,0.568,0.103873,-36.594,0.0716877,
2,0,0,1,0,38620.4,0.0620245,0.0617433,-8.71886,20,0.00512668,10,-0.000538332,-2.05954,0.72198,0.0817197,-27.8113,0.0617433,
2,0,0,1,0,38620.5,0.0520366,0.0516907,-8.46369,20,0.00426861,10,-0.000437494,-2.07244,0.716448,0.0823507,-27.1939,0.0516907,
2,0,0,1,0,38620.6,0.0420486,0.0417178,-8.18733,20,0.00343668,10,-0.000341557,-2.08686,0.678369,0.0869733,-27.8107,0.0417178,
2,0,0,1,0,38620.7,0.0320607,0.0317235,-7.87831,20,0.00263466,10,-0.000249928,-2.10357,0.533917,0.110504,-33.9485,0.0317235,
2,0,0,1,0,38620.8,0.0220728,0.0216889,-7.49313,20,0.00186689,10,-0.000162517,-2.12534,0.418917,0.140839,-41.1849,0.02168886,
2,0,0,1,0,38620.9,0.0120848,0.0117445,-7.09409,20,0.00113873,10,-8.33165e-05,-2.1491,0.410972,0.143562,-39.7806,0.0117445,
2,0,0,1,0,38621,0.0020969,0.00170184,-6.82132,20,0.000446986,10,-1.16088e-05,-2.16613,0.866709,0.0680736,-18.0303,0.00170184,
2,0,0,1,0,38621.1,-0.00789103,-0.00828349,-6.58947,20,-0.00022081,10,5.45838e-05,-2.18115,1.15651,0.0510153,-13.1423,-0.00828349,
2,0,0,1,0,38621.2,-0.017879,-0.0182844,-6.54917,20,-0.000874946,10,0.000119748,-2.18381,-6.03923,-0.00976946,2.49325,-0.0182844,
2,0,0,1,0,38621.3,-0.0278669,-0.028254,-6.60072,20,-0.00153036,10,0.000186497,-2.18041,-1.70241,-0.0346568,8.93581,-0.028254,
2,0,0,1,0,38621.4,-0.0378548,-0.0382527,-6.75608,20,-0.00219666,10,0.000258438,-2.17031,-0.927919,-0.0635831,16.7479,-0.0382527,
2,0,0,1,0,38621.5,-0.0478428,-0.0482428,-6.96218,20,-0.00288138,10,0.000335875,-2.15725,-0.562376,-0.104912,28.5461,-0.0482428,
2,0,0,1,0,38621.6,-0.0578216,-0.0581512,-7.24611,20,-0.0035904,10,0.00042137,-2.1399,-0.525874,-0.112194,31.7289,-0.0581512,
2,0,0,1,0,38621.7,-0.0678187,-0.0681982,-7.59405,20,-0.00433124,10,0.0005179,-2.11953,-0.436762,-0.135085,40.0318,-0.0681982,
2,0,0,1,0,38621.8,-0.0778066,-0.0781804,-8.01267,20,-0.00511042,10,0.000626434,-2.09622,-0.423999,-0.139151,43.5298,-0.0781804,
2,0,0,1,0,38621.9,-0.0877945,-0.088159,-8.51155,20,-0.00593549,10,0.00075037,-2.06999,-0.380349,-0.155121,51.5224,-0.088159,
2,0,0,1,0,38622,-0.0977825,-0.0981657,-9.03217,20,-0.00681208,10,0.000886649,-2.04421,-0.394681,-0.149488,52.6991,-0.0981657,
2,0,0,1,1,38622.1,-0.0927386,-0.0930654,-2.67888,20,-0.00739055,10,0.000249311,-2.57205,-0.0114685,-5.14455,528.61,-0.0930654,
2,1,0,1,1,38622.2,-0.0827529,-0.083134,0.907481,20,-0.00745658,10,-7.54424e-05,-3.04216,0.00718478,8.2118,248.555,-0.083134,
2,1,0,1,1,38622.3,-0.0727627,-0.0731177,2.80124,20,-0.00726239,10,-0.00020482,-2.55265,0.0447678,1.31791,142.465,-0.07311774,
2,1,0,1,1,38622.4,-0.0627748,-0.0631369,3.90568,20,-0.00692246,10,-0.000246593,-2.4083,0.105239,0.560628,85.2598,-0.0631369,
2,1,0,1,1,38622.5,-0.0527868,-0.0531142,4.56938,20,-0.00649585,10,-0.000242699,-2.34014,0.204528,0.28847,51.3882,-0.0531142,
2,1,0,1,1,38622.6,-0.0427989,-0.0431634,4.95777,20,-0.00601787,10,-0.000213994,-2.30471,0.37615,0.156853,30.3026,-0.0431634,
2,1,0,1,1,38622.7,-0.0328109,-0.0331976,5.16493,20,-0.00551144,10,-0.000171463,-2.28694,0.834407,0.0707089,14.2375,-0.0331976,
2,1,0,1,1,38622.8,-0.022823,-0.0231948,5.25275,20,-0.0049903,10,-0.000121837,-2.27961,2.33839,0.025231,5.17193,-0.0231948,
2,1,0,1,1,38622.9,-0.0128351,-0.013201,5.2678,20,-0.00446415,10,-6.95403e-05,-2.27837,-8.30227,-0.00710649,-1.46094,-0.013201,
2,1,0,1,1,38623,-0.00284713,-0.0031768,5.26177,20,-0.00393782,10,-1.67156e-05,-2.27887,-7.61895,-0.00774385,-1.58954,-0.0031768,
2,1,0,1,1,38623,-2.55332e-05,-0.000344411,5.26172,20,-0.00378996,10,-1.81219e-06,-2.27887, , , ,-0.000344411,