Folder: Figs_alphaMnO2_OER_Tafel_sleope/Figure_codes/Fig_3-5/rawdata_trumpetplot_data/after 10th (part 151)

File: 20221101_1-115_003_TrumpetPlot_ParaChange_from10_every3_10_CV_C01_23.csv
mode,ox/red,error,control changes,counter inc.,time/s,control/V,Ewe/V,<I>/mA,cycle number,(Q-Qo)/C,I Range,P/W,log(|I|),Tafel slope mV/dec,alpha_eff,dI/d(E-IR),E-IR/V,
2,1,0,0,0,46503.5,-2.44065e-05,-0.000401673,5.13324,24,0.0000000E+000,10,-2.06188e-06,-2.28961, , , ,-0.000401673,
2,1,0,1,0,46503.6,0.00977853,0.0094309,7.51353,24,0.000320629,10,7.08594e-05,-2.12416,0.118894,0.496242,145.196,0.0094309,
2,1,0,1,0,46503.6,0.0197755,0.0194569,8.61838,24,0.000726333,10,0.000167687,-2.06457,0.237539,0.24838,83.4029,0.0194569,
2,1,0,1,0,46503.7,0.0297726,0.029457,9.33977,24,0.00117617,10,0.000275121,-2.02966,0.343346,0.171838,62.614,0.029457,
2,1,0,1,0,46503.7,0.0397514,0.0394264,9.94315,24,0.00165756,10,0.000392023,-2.00248,0.361087,0.163396,63.4145,0.0394264,
2,1,0,1,0,46503.8,0.0497393,0.0494197,10.5527,24,0.00216885,10,0.000521509,-1.97664,0.403586,0.146189,60.1799,0.0494197,
2,1,0,1,0,46503.8,0.0597364,0.0594267,11.171,24,0.00271154,10,0.000663856,-1.95191,0.391767,0.1506,65.5995,0.0594267,
2,1,0,1,0,46503.9,0.0697152,0.0693641,11.8057,24,0.00328477,10,0.00081889,-1.92791,0.425496,0.138662,63.9518,0.0693641,
2,1,0,1,0,46503.9,0.0796941,0.0793807,12.462,24,0.00389052,10,0.000989246,-1.90441,0.452084,0.130507,63.4426,0.0793807,
2,1,0,1,0,46504,0.0896911,0.0893009,13.0643,24,0.00452901,10,0.00116665,-1.88391,0.486777,0.121205,61.8589,0.0893009,
2,1,0,1,0,46504,0.099679,0.0993486,13.6672,24,0.00519618,10,0.00135782,-1.86432,0.563332,0.104734,55.799,0.0993486,
2,1,0,1,0,46504.1,0.109658,0.109316,14.2659,24,0.00589251,10,0.00155949,-1.8457,0.481078,0.122641,68.346,0.1093157,
2,1,0,1,0,46504.1,0.119655,0.119297,15.0688,24,0.00662513,10,0.00179765,-1.82192,0.399063,0.147846,86.8967,0.119297,
2,1,0,1,0,46504.2,0.129652,0.129305,16.0012,24,0.00740167,10,0.00206904,-1.79585,0.377818,0.15616,97.5437,0.129305,
2,1,0,1,0,46504.2,0.139631,0.139274,16.9158,24,0.00822375,10,0.00235592,-1.77171,0.46488,0.126914,83.745,0.139274,
2,1,0,1,0,46504.3,0.149619,0.149299,17.6238,24,0.00908673,10,0.00263122,-1.7539,0.700591,0.0842146,57.9008,0.149299,
2,1,0,1,0,46504.3,0.159616,0.159294,17.9121,24,0.00997788,10,0.0028533,-1.74685,-3.95509,-0.0149175,-10.4194,0.159294,
2,1,0,1,0,46504.4,0.169595,0.169255,17.3153,24,0.0108612,10,0.0029307,-1.76157,-0.344357,-0.171334,-115.607,0.169255,
2,1,0,1,0,46504.4,0.179573,0.179313,15.6527,24,0.0116871,10,0.00280674,-1.80541,-0.174164,-0.338761,-206.751,0.179313,
2,1,0,1,0,46504.5,0.18957,0.189253,13.5607,24,0.012417,10,0.0025664,-1.86772,-0.154183,-0.382662,-202.58,0.189253,
2,1,0,1,0,46504.5,0.199558,0.199225,11.8017,24,0.0130474,10,0.0023512,-1.92805,-0.18806,-0.31373,-144.518,0.199225,
2,1,0,1,0,46504.6,0.209537,0.209232,10.5473,24,0.0136027,10,0.00220682,-1.97686,-0.233132,-0.253076,-104.254,0.209232,
2,1,0,1,0,46504.6,0.219534,0.21925,9.6729,24,0.0141066,10,0.00212078,-2.01444,-0.319963,-0.184396,-69.6105,0.21925,
2,1,0,1,0,46504.7,0.229531,0.229212,9.04945,24,0.0145739,10,0.00207424,-2.04338,-0.387593,-0.152222,-53.8302,0.229212,
2,1,0,1,0,46504.7,0.23951,0.239185,8.6162,24,0.0150141,10,0.00206086,-2.06468,-0.562756,-0.104841,-35.2365,0.239185,
2,1,0,1,0,46504.8,0.249498,0.249169,8.27314,24,0.0154351,10,0.00206141,-2.08233,-0.641147,-0.0920226,-29.7264,0.249169,
2,1,0,1,0,46504.8,0.259495,0.259238,8.01892,24,0.015842,10,0.00207881,-2.09588,-0.747464,-0.0789336,-24.6797,0.259238,
2,1,0,1,0,46504.9,0.269474,0.269164,7.80168,24,0.0162365,10,0.00209993,-2.10781,-0.944638,-0.0624578,-19.0312,0.269164,
2,1,0,1,0,46504.9,0.279453,0.279142,7.63123,24,0.0166215,10,0.00213019,-2.11741,-0.975074,-0.0605082,-18.0112,0.2791416,
2,1,0,1,0,46505,0.28945,0.289139,7.46849,24,0.016999,10,0.00215943,-2.12677,-1.3023,-0.0453044,-13.2202,0.289139,
2,1,0,1,0,46505,0.299438,0.299156,7.33781,24,0.0173684,10,0.00219515,-2.13443,-0.0671495,-0.878636,-242.796,0.299156,
2,1,0,1,0,46505.1,0.291747,0.291423,1.02134,24,0.0175295,10,0.000297642,-2.99083,0.00496754,11.8771,401.462,0.291423,
2,0,0,1,0,46505.1,0.28175,0.281417,-1.51683,24,0.0175074,10,-0.000426864,-2.81906,-0.0203881,-2.89384,165.242,0.281417,
2,0,0,1,0,46505.2,0.27178,0.271473,-2.7156,24,0.0173988,10,-0.000737211,-2.56613,-0.0674384,-0.874872,92.4667,0.271473,
2,0,0,1,0,46505.2,0.261783,0.261509,-3.44842,24,0.0172434,10,-0.000901794,-2.46238,-0.135069,-0.436813,58.5675,0.2615093,
2,0,0,1,0,46505.3,0.251786,0.251482,-3.94536,24,0.0170578,10,-0.000992189,-2.40391,-0.207707,-0.284054,43.8141,0.251482,
2,0,0,1,0,46505.3,0.241807,0.241472,-4.34191,24,0.0168503,10,-0.00104845,-2.36232,-0.270605,-0.21803,36.9797,0.241472,
2,0,0,1,0,46505.4,0.231824,0.231517,-4.67283,24,0.016625,10,-0.00108184,-2.33042,-0.325283,-0.181381,33.0935,0.231517,
2,0,0,1,0,46505.4,0.221822,0.221534,-4.95982,24,0.0163841,10,-0.00109877,-2.30453,-0.41198,-0.143211,27.6836,0.221534,
2,0,0,1,0,46505.5,0.211843,0.211516,-5.22291,24,0.0161299,10,-0.00110473,-2.28209,-0.518402,-0.113811,23.1997,0.211516,
2,0,0,1,0,46505.5,0.201865,0.20156,-5.48061,24,0.0158629,10,-0.00110467,-2.26117,-0.522016,-0.113023,24.1417,0.20156,
2,0,0,1,0,46505.6,0.191868,0.191546,-5.72774,24,0.0155827,10,-0.00109712,-2.24202,-0.521379,-0.113161,25.3385,0.191546,
2,0,0,1,0,46505.6,0.18188,0.181583,-6.01245,24,0.0152901,10,-0.00109176,-2.22095,-0.426978,-0.13818,32.3295,0.181583,
2,0,0,1,0,46505.7,0.171901,0.171584,-6.30868,24,0.0149831,10,-0.00108247,-2.20006,-0.45132,-0.130728,32.2099,0.171584,
2,0,0,1,0,46505.7,0.161904,0.161567,-6.70167,24,0.0146583,10,-0.00108277,-2.17382,-0.349045,-0.169033,44.1413,0.161567,
2,0,0,1,0,46505.8,0.151907,0.151607,-7.23418,24,0.0143107,10,-0.00109675,-2.14061,-0.253016,-0.233187,66.0015,0.151607,
2,0,0,1,0,46505.8,0.141928,0.141603,-8.12123,24,0.0139293,10,-0.00114999,-2.09038,-0.169811,-0.347446,110.104,0.141603,
2,0,0,1,0,46505.9,0.13194,0.131624,-9.51963,24,0.0134917,10,-0.00125302,-2.02138,-0.130052,-0.453666,168.714,0.131624,
2,0,0,1,0,46505.9,0.121943,0.121681,-11.3556,24,0.0129707,10,-0.00138175,-1.94479,-0.136285,-0.432917,191.576,0.121681,
2,0,0,1,0,46506,0.111964,0.11162,-13.1898,24,0.0123572,10,-0.00147225,-1.87976,-0.176061,-0.335112,172.484,0.1116202,
2,0,0,1,0,46506,0.101985,0.101686,-14.7595,24,0.0116582,10,-0.00150083,-1.83093,-0.247672,-0.238218,137.026,0.101686,
2,0,0,1,0,46506.1,0.0919883,0.0917397,-15.9093,24,0.0108893,10,-0.00145952,-1.79835,-0.38472,-0.153358,95.2382,0.0917397,
2,0,0,1,0,46506.1,0.0820004,0.0816674,-16.5418,24,0.010077,10,-0.00135093,-1.78142,-1.22729,-0.0480734,30.9856,0.0816674,
2,0,0,1,0,46506.2,0.0720215,0.0716911,-16.6066,24,0.00924854,10,-0.00119054,-1.77972,2.90121,0.0203363,-13.175,0.0716911,
2,0,0,1,0,46506.2,0.0620245,0.0617206,-16.3773,24,0.00842332,10,-0.00101081,-1.78576,1.24077,0.047551,-30.3844,0.0617206,
2,0,0,1,0,46506.3,0.0520275,0.0517267,-16.0783,24,0.00761182,10,-0.000831679,-1.79376,1.19055,0.0495569,-31.1014,0.0517267,
2,0,0,1,0,46506.3,0.0420486,0.0417511,-15.7781,24,0.00681695,10,-0.000658751,-1.80195,1.22575,0.0481338,-29.6288,0.0417511,
2,0,0,1,0,46506.4,0.0320607,0.0317266,-15.4231,24,0.00603828,10,-0.000489323,-1.81183,0.858147,0.0687528,-41.3811,0.0317266,
2,0,0,1,0,46506.4,0.0220637,0.0217726,-14.9891,24,0.00527772,10,-0.000326351,-1.82422,0.693501,0.0850755,-49.7231,0.0217726,
2,0,0,1,0,46506.5,0.0120848,0.0117832,-14.4258,24,0.00454352,10,-0.000169982,-1.84086,0.512785,0.115058,-64.7955,0.0117832,
2,0,0,1,0,46506.5,0.00210598,0.0017283,-13.845,24,0.00383932,10,-2.39283e-05,-1.85871,0.591751,0.0997041,-53.7263,0.0017283,
2,0,0,1,0,46506.6,-0.00789103,-0.00823876,-13.2238,24,0.00316318,10,0.000108948,-1.87864,0.58858,0.100241,-51.8044,-0.00823876,
2,0,0,1,0,46506.6,-0.017879,-0.0182563,-12.809,24,0.00251434,10,0.000233844,-1.89249,0.948735,0.0621881,-31.0566,-0.0182563,
2,0,0,1,0,46506.7,-0.0278578,-0.0282041,-12.5355,24,0.00188275,10,0.000353552,-1.90186,1.4878,0.0396559,-19.4278,-0.0282041,
2,0,0,1,0,46506.7,-0.0378549,-0.0382475,-12.4548,24,0.00125856,10,0.000476365,-1.90466,8.2267,0.00717177,-3.48336,-0.0382475,
2,0,0,1,0,46506.8,-0.0478519,-0.0482189,-12.4867,24,0.00063538,10,0.000602092,-1.90355,-2.16102,-0.0273019,13.3224,-0.0482189,
2,0,0,1,0,46506.8,-0.0578126,-0.0581998,-12.6537,24,9.60378e-06,10,0.000736445,-1.89778,-1.45085,-0.0406659,20.0746,-0.0581998,
2,0,0,1,0,46506.9,-0.0678187,-0.0681756,-12.8988,24,-0.000628841,10,0.000879382,-1.88945,-0.942419,-0.0626049,31.522,-0.0681756,
2,0,0,1,0,46506.9,-0.0778157,-0.0781513,-13.2405,24,-0.00128205,10,0.00103476,-1.8781,-0.838732,-0.0703443,36.3334,-0.0781513,
2,0,0,1,0,46507,-0.0877945,-0.088166,-13.6688,24,-0.00195308,10,0.00120512,-1.86427,-0.658253,-0.0896312,47.848,-0.088166,
2,0,0,1,0,46507,-0.0977734,-0.0981323,-14.1841,24,-0.00264783,10,0.00139192,-1.8482,-0.582539,-0.101281,56.0822,-0.09813226,
2,0,0,1,1,46507.1,-0.0936874,-0.0940322,-7.15731,24,-0.00312499,10,0.000673017,-2.14525,-0.021301,-2.76982,772.703,-0.0940322,
2,0,0,1,1,46507.1,-0.0837086,-0.0840987,-1.44506,24,-0.00332603,10,0.000121528,-2.84011,-0.00676614,-8.7199,439.846,-0.0840987,
2,1,0,1,1,46507.2,-0.0737025,-0.0741256,2.16134,24,-0.0033016,10,-0.00016021,-2.66528,0.0163218,3.6148,294.915,-0.0741256,
2,1,0,1,1,46507.2,-0.0637236,-0.0641247,4.65758,24,-0.00312759,10,-0.000298666,-2.33184,0.052764,1.11819,202.012,-0.0641247,
2,1,0,1,1,46507.3,-0.0537448,-0.0541264,6.4223,24,-0.00284845,10,-0.000347616,-2.19231,0.101698,0.58015,145.081,-0.0541264,
2,1,0,1,1,46507.3,-0.0437477,-0.0441064,7.67164,24,-0.00249411,10,-0.000338369,-2.11511,0.170155,0.346743,103.612,-0.04410645,
2,1,0,1,1,46507.4,-0.0337507,-0.034103,8.53029,24,-0.0020875,10,-0.000290908,-2.06904,0.272436,0.216565,72.1168,-0.034103,
2,1,0,1,1,46507.4,-0.0237809,-0.024129,9.1133,24,-0.00164709,10,-0.000219894,-2.04032,0.4461,0.132257,46.9667,-0.024129,
2,1,0,1,1,46507.4,-0.0137839,-0.0141029,9.46891,24,-0.00118182,10,-0.000133539,-2.0237,0.862758,0.0683853,25.2718,-0.0141029,
2,1,0,1,1,46507.5,-0.0037869,-0.00415754,9.68223,24,-0.000702584,10,-4.02542e-05,-2.01402,1.39023,0.0424391,16.0243,-0.00415754,
2,1,0,1,1,46507.5,-2.55332e-05,-0.000325324,9.70822,24,-0.000521083,10,-3.15831e-06,-2.01286, , , ,-0.000325324,

File: 20221101_1-115_003_TrumpetPlot_ParaChange_from10_every3_10_CV_C01_24.csv
mode,ox/red,error,control changes,counter inc.,time/s,control/V,Ewe/V,<I>/mA,cycle number,(Q-Qo)/C,I Range,P/W,log(|I|),Tafel slope mV/dec,alpha_eff,dI/d(E-IR),E-IR/V,
2,1,0,0,0,48473.6,-2.44065e-05,-0.000344411,5.13769,25,0.0000000E+000,10,-1.76948e-06,-2.28923, , , ,-0.000344411,
2,1,0,1,0,48473.7,0.00977853,0.00944825,7.43667,25,0.000318097,10,7.02635e-05,-2.12862,0.119339,0.494388,143.169,0.00944825,
2,1,0,1,0,48473.7,0.0197755,0.0194205,8.53659,25,0.000719863,10,0.000165785,-2.06872,0.231866,0.254458,84.6928,0.0194205,
2,1,0,1,0,48473.8,0.0297726,0.0294656,9.26347,25,0.00116591,10,0.000272954,-2.03323,0.343646,0.171688,62.0552,0.0294656,
2,1,0,1,0,48473.8,0.0397514,0.0394232,9.86923,25,0.00164365,10,0.000389077,-2.00572,0.362392,0.162807,62.7106,0.03942322,
2,1,0,1,0,48473.9,0.0497393,0.0493451,10.4673,25,0.00215099,10,0.00051651,-1.98017,0.399411,0.147717,60.3173,0.0493451,
2,1,0,1,0,48473.9,0.0597364,0.059405,11.0689,25,0.0026891,10,0.00065755,-1.95589,0.398648,0.148,63.8823,0.059405,
2,1,0,1,0,48474,0.0697152,0.0693832,11.6976,25,0.00325714,10,0.000811618,-1.9319,0.437768,0.134775,61.5711,0.0693832,
2,1,0,1,0,48474,0.0796941,0.0793356,12.3291,25,0.00385694,10,0.000978139,-1.90907,0.460631,0.128085,61.6239,0.0793356,
2,1,0,1,0,48474.1,0.0896911,0.0893304,12.9448,25,0.00448925,10,0.00115636,-1.88791,0.497527,0.118586,59.9583,0.0893304,
2,1,0,1,0,48474.1,0.099679,0.0993518,13.5299,25,0.0051499,10,0.00134422,-1.86871,0.559633,0.105426,55.6044,0.0993518,
2,1,0,1,0,48474.2,0.109658,0.109324,14.111,25,0.00583907,10,0.00154267,-1.85044,0.501168,0.117725,64.8914,0.109324,
2,1,0,1,0,48474.2,0.119655,0.119298,14.873,25,0.00656299,10,0.00177433,-1.8276,0.417566,0.141295,81.9913,0.119298,
2,1,0,1,0,48474.3,0.129652,0.129307,15.7671,25,0.00732874,10,0.0020388,-1.80225,0.38151,0.154649,95.2035,0.129307,
2,1,0,1,0,48474.3,0.139631,0.139291,16.6755,25,0.00813891,10,0.00232275,-1.77792,0.45968,0.12835,83.5068,0.139291,
2,1,0,1,0,48474.4,0.149619,0.149255,17.4079,25,0.00899036,10,0.00259822,-1.75925,0.643161,0.0917344,62.2938,0.149255,
2,1,0,1,0,48474.4,0.159616,0.159291,17.7682,25,0.00987206,10,0.00283031,-1.75036,21.8686,0.00269793,1.86923,0.159291,
2,1,0,1,0,48474.5,0.169595,0.16927,17.3401,25,0.0107521,10,0.00293517,-1.76095,-0.41879,-0.140882,-95.2221,0.16927,
2,1,0,1,0,48474.5,0.179573,0.179226,15.874,25,0.0115844,10,0.00284503,-1.79931,-0.194308,-0.303641,-187.967,0.179226,
2,1,0,1,0,48474.6,0.18957,0.189233,13.8427,25,0.0123279,10,0.00261948,-1.85878,-0.157809,-0.373869,-202.081,0.189233,
2,1,0,1,0,48474.6,0.199558,0.199221,12.0212,25,0.012971,10,0.00239487,-1.92005,-0.176859,-0.333599,-156.418,0.199221,
2,1,0,1,0,48474.7,0.209537,0.209181,10.6663,25,0.0135347,10,0.00223119,-1.97199,-0.215874,-0.273307,-113.895,0.209181,
2,1,0,1,0,48474.7,0.219534,0.219189,9.72903,25,0.0140429,10,0.0021325,-2.01193,-0.296695,-0.198858,-75.5123,0.219189,
2,1,0,1,0,48474.8,0.229531,0.229188,9.06095,25,0.014512,10,0.00207666,-2.04283,-0.368389,-0.160157,-56.734,0.229188,
2,1,0,1,0,48474.8,0.23951,0.239201,8.60767,25,0.0149523,10,0.00205896,-2.06511,-0.517902,-0.113921,-38.2776,0.239201,
2,1,0,1,0,48474.9,0.249498,0.249174,8.25934,25,0.0153727,10,0.00205801,-2.08305,-0.623205,-0.094672,-30.5334,0.249174,
2,1,0,1,0,48474.9,0.259495,0.259155,8.00143,25,0.0157787,10,0.00207361,-2.09683,-0.719472,-0.0820046,-25.5741,0.259155,
2,1,0,1,0,48475,0.269474,0.269155,7.77916,25,0.0161722,10,0.0020938,-2.10907,-0.91345,-0.0645903,-19.6365,0.269155,
2,1,0,1,0,48475,0.279453,0.279137,7.6135,25,0.0165562,10,0.00212521,-2.11842,-1.04433,-0.0564957,-16.7804,0.279137,
2,1,0,1,0,48475.1,0.28945,0.289138,7.45299,25,0.0169329,10,0.00215494,-2.12767,-1.31331,-0.0449246,-13.0817,0.289138,
2,1,0,1,0,48475.1,0.299438,0.299159,7.3284,25,0.0173017,10,0.00219235,-2.13499,-0.0752522,-0.78403,-216.865,0.299159,
2,1,0,1,0,48475.2,0.291747,0.291377,1.18892,25,0.0174684,10,0.000346423,-2.92485,0.00628742,9.38382,392.527,0.291377,
2,0,0,1,0,48475.2,0.28175,0.28141,-1.40048,25,0.0174536,10,-0.000394111,-2.85372,-0.018342,-3.21667,168.558,0.28141,
2,0,0,1,0,48475.3,0.27178,0.271438,-2.64653,25,0.0173495,10,-0.000718369,-2.57732,-0.0637261,-0.925838,95.3193,0.271438,
2,0,0,1,0,48475.3,0.261783,0.261452,-3.40756,25,0.0171968,10,-0.000890912,-2.46756,-0.132137,-0.446508,59.0858,0.261452,
2,0,0,1,0,48475.4,0.251786,0.251484,-3.91994,25,0.0170129,10,-0.000985802,-2.40672,-0.200872,-0.29372,44.9583,0.2514841,
2,0,0,1,0,48475.4,0.241807,0.241476,-4.32804,25,0.0168065,10,-0.00104512,-2.36371,-0.268878,-0.21943,37.0467,0.241476,
2,0,0,1,0,48475.5,0.231824,0.231521,-4.65757,25,0.0165822,10,-0.00107833,-2.33184,-0.336601,-0.175282,31.8775,0.231521,
2,0,0,1,0,48475.5,0.221822,0.221509,-4.94438,25,0.016342,10,-0.00109523,-2.30589,-0.436005,-0.13532,26.0765,0.2215092,
2,0,0,1,0,48475.6,0.211843,0.211515,-5.21142,25,0.0160885,10,-0.0011023,-2.28304,-0.501576,-0.117629,23.9309,0.211515,
2,0,0,1,0,48475.6,0.201865,0.201539,-5.46428,25,0.0158222,10,-0.00110126,-2.26247,-0.522377,-0.112945,24.0647,0.201539,
2,0,0,1,0,48475.7,0.191868,0.191523,-5.70571,25,0.0155428,10,-0.00109278,-2.24369,-0.518248,-0.113845,25.4118,0.191523,
2,0,0,1,0,48475.7,0.18188,0.181531,-5.99312,25,0.0152511,10,-0.00108793,-2.22235,-0.440903,-0.133816,31.2105,0.1815307,
2,0,0,1,0,48475.8,0.171901,0.17154,-6.27902,25,0.0149454,10,-0.00107711,-2.20211,-0.434246,-0.135868,33.3224,0.17154,
2,0,0,1,0,48475.8,0.161904,0.161547,-6.65521,25,0.0146224,10,-0.00107513,-2.17684,-0.355036,-0.16618,43.133,0.161547,
2,0,0,1,0,48475.9,0.151907,0.151575,-7.16652,25,0.0142775,10,-0.00108627,-2.14469,-0.263288,-0.224089,62.8143,0.151575,
2,0,0,1,0,48475.9,0.141928,0.141567,-7.99468,25,0.0139008,10,-0.00113179,-2.0972,-0.174524,-0.338062,105.458,0.141567,
2,0,0,1,0,48476,0.13194,0.131641,-9.2962,25,0.0134716,10,-0.00122376,-2.03169,-0.135423,-0.435673,158.301,0.131641,
2,0,0,1,0,48476,0.121943,0.121623,-11.0519,25,0.0129638,10,-0.00134416,-1.95656,-0.141096,-0.418155,180.12,0.121623,
2,0,0,1,0,48476.1,0.111964,0.11162,-12.8285,25,0.0123676,10,-0.00143192,-1.89182,-0.174624,-0.337869,169.105,0.11162,
2,0,0,1,0,48476.1,0.101985,0.101695,-14.3981,25,0.0116869,10,-0.00146421,-1.84169,-0.240616,-0.245204,137.59,0.101695,
2,0,0,1,0,48476.2,0.0919883,0.0917068,-15.5792,25,0.0109355,10,-0.00142872,-1.80745,-0.349764,-0.168685,102.612,0.0917068,
2,0,0,1,0,48476.2,0.0820004,0.0816626,-16.3159,25,0.010137,10,-0.0013324,-1.78739,-0.860264,-0.0685836,43.6221,0.0816626,
2,0,0,1,0,48476.3,0.0720215,0.0716911,-16.4986,25,0.00931629,10,-0.0011828,-1.78255,10.892,0.00541683,-3.48838,0.0716911,
2,0,0,1,0,48476.3,0.0620245,0.0617024,-16.3435,25,0.00849426,10,-0.00100843,-1.78665,1.44988,0.040693,-25.9483,0.0617024,
2,0,0,1,0,48476.4,0.0520275,0.0517215,-16.073,25,0.00768351,10,-0.000831319,-1.7939,1.3034,0.0452662,-28.4062,0.0517215,
2,0,0,1,0,48476.4,0.0420486,0.0417296,-15.7889,25,0.00688825,10,-0.000658867,-1.80165,1.25195,0.0471265,-29.0402,0.0417296,
2,0,0,1,0,48476.5,0.0320607,0.03175,-15.4553,25,0.00610842,10,-0.000490706,-1.81092,0.999667,0.0590197,-35.5927,0.03175,
2,0,0,1,0,48476.5,0.0220637,0.0217353,-15.0405,25,0.00534574,10,-0.000326909,-1.82274,0.736838,0.0800718,-46.9671,0.0217353,
2,0,0,1,0,48476.6,0.0120848,0.0117331,-14.4992,25,0.00460826,10,-0.000170121,-1.83865,0.532513,0.110795,-62.7116,0.01173309,
2,0,0,1,0,48476.6,0.00210598,0.00171268,-13.9118,25,0.00390016,10,-2.38265e-05,-1.85662,0.544225,0.108411,-58.7339,0.00171268,
2,0,0,1,0,48476.7,-0.00789103,-0.00827606,-13.2775,25,0.0032209,10,0.000109886,-1.87688,0.586694,0.100564,-52.1693,-0.00827606,
2,0,0,1,0,48476.7,-0.017879,-0.0182777,-12.8282,25,0.00257035,10,0.000234471,-1.89183,0.821131,0.0718521,-35.9419,-0.0182777,
2,0,0,1,0,48476.8,-0.0278578,-0.028251,-12.528,25,0.00193867,10,0.000353928,-1.90212,1.24431,0.047416,-23.2062,-0.028251,
2,0,0,1,0,48476.8,-0.0378548,-0.0382345,-12.4189,25,0.00131563,10,0.000474831,-1.90592,5.38474,0.0109569,-5.30764,-0.0382345,
2,0,0,1,0,48476.9,-0.0478519,-0.0482432,-12.4383,25,0.000694599,10,0.000600062,-1.90524,-2.34656,-0.0251431,12.216,-0.0482432,
2,0,0,1,0,48476.9,-0.0578126,-0.0581729,-12.5928,25,7.16944e-05,10,0.000732558,-1.89988,-1.49832,-0.0393774,19.3402,-0.0581729,
2,0,0,1,0,48477,-0.0678187,-0.0682033,-12.8218,25,-0.000563253,10,0.00087449,-1.89205,-1.00718,-0.0585791,29.3165,-0.06820333,
2,0,0,1,0,48477,-0.0778157,-0.0782216,-13.148,25,-0.00121219,10,0.00102846,-1.88114,-0.890316,-0.0662686,33.9942,-0.0782216,
2,0,0,1,0,48477.1,-0.0877945,-0.0881787,-13.551,25,-0.0018779,10,0.00119491,-1.86803,-0.666697,-0.088496,46.8296,-0.0881787,
2,0,0,1,0,48477.1,-0.0977734,-0.0981591,-14.0429,25,-0.00256616,10,0.00137844,-1.85254,-0.617054,-0.0956156,52.3976,-0.0981591,
2,0,0,1,1,48477.2,-0.0936874,-0.0940719,-7.33125,25,-0.00304389,10,0.000689665,-2.13482,-0.022656,-2.60416,744.626,-0.09407194,
2,0,0,1,1,48477.2,-0.0837086,-0.0840779,-1.72103,25,-0.00325686,10,0.000144701,-2.76421,-0.00842726,-7.00109,439.659,-0.08407791,
2,1,0,1,1,48477.3,-0.0737025,-0.0741239,1.87888,25,-0.00324681,10,-0.00013927,-2.7261,0.0136971,4.30747,301.723,-0.0741239,
2,1,0,1,1,48477.3,-0.0637236,-0.0641374,4.39205,25,-0.00308671,10,-0.000281695,-2.35733,0.0477723,1.23502,210.268,-0.0641374,
2,1,0,1,1,48477.4,-0.0537447,-0.0541125,6.19343,25,-0.00281988,10,-0.000335142,-2.20807,0.0956441,0.61687,148.848,-0.0541125,
2,1,0,1,1,48477.4,-0.0437477,-0.044116,7.48809,25,-0.00247567,10,-0.000330345,-2.12563,0.159209,0.370583,108.12,-0.044116,
2,1,0,1,1,48477.5,-0.0337507,-0.0341186,8.39134,25,-0.00207698,10,-0.000286301,-2.07617,0.254277,0.232031,76.0385,-0.0341186,
2,1,0,1,1,48477.5,-0.0237809,-0.0241142,9.02059,25,-0.00164226,10,-0.000217524,-2.04476,0.397973,0.148251,52.1128,-0.0241142,
2,1,0,1,1,48477.6,-0.0137839,-0.0141714,9.40525,25,-0.00118071,10,-0.000133286,-2.02663,0.762164,0.0774112,28.4377,-0.0141714,
2,1,0,1,1,48477.6,-0.0037869,-0.00414539,9.65426,25,-0.00070359,10,-4.00207e-05,-2.01528,1.18794,0.0496658,18.6916,-0.00414539,
2,1,0,1,1,48477.6,-2.55332e-05,-0.000439847,9.69232,25,-0.00052256,10,-4.26314e-06,-2.01357, , , ,-0.000439847,