Folder: Figs_alphaMnO2_OER_Tafel_sleope/Figure_codes/Fig_3-5/rawdata_trumpetplot_data/after 10th (part 45)

File: 20221101_1-115_003_TrumpetPlot_ParaChange_from10_every3_04_CV_C01_19.csv
mode,ox/red,error,control changes,counter inc.,time/s,control/V,Ewe/V,<I>/mA,cycle number,(Q-Qo)/C,I Range,P/W,log(|I|),Tafel slope mV/dec,alpha_eff,dI/d(E-IR),E-IR/V,
2,0,0,1,0,38492.5,2.44065e-05,-0.000439847,-0.392605,20,0.0000000E+000,10,1.72686e-07,-3.40604, , , ,-0.000439847,
2,1,0,1,0,38493.2,0.00729063,0.00696497,0.357998,20,0.000183152,10,2.49345e-06,-3.44612,0.0603303,0.97795,13.4908,0.00696497,
2,1,0,1,0,38494,0.0147814,0.0144394,0.431327,20,0.000493093,10,6.22812e-06,-3.36519,0.124176,0.475131,7.98759,0.0144394,
2,1,0,1,0,38494.7,0.0222725,0.0219411,0.486073,20,0.000848671,10,1.0665e-05,-3.3133,0.149239,0.39534,7.49441,0.0219411,
2,1,0,1,0,38495.5,0.0297635,0.0294544,0.537695,20,0.00124373,10,1.58375e-05,-3.26946,0.184609,0.319594,6.6984,0.0294544,
2,1,0,1,0,38496.2,0.0372544,0.0369777,0.587102,20,0.0016768,10,2.17097e-05,-3.23129,0.197772,0.298323,6.86265,0.0369777,
2,1,0,1,0,38497,0.0447458,0.0444309,0.637916,20,0.00214832,10,2.83432e-05,-3.19524,0.201335,0.293043,7.29748,0.0444309,
2,1,0,1,0,38497.7,0.0522363,0.0518615,0.685045,20,0.00265661,10,3.55275e-05,-3.16428,0.237759,0.24815,6.63286,0.0518615,
2,1,0,1,0,38498.5,0.0597282,0.0593832,0.72878,20,0.00319779,10,4.32773e-05,-3.1374,0.314526,0.187584,5.31759,0.0593832,
2,1,0,1,0,38499.2,0.0672182,0.0668758,0.766354,20,0.00376899,10,5.12506e-05,-3.11557,0.398588,0.148023,4.41214,0.0668758,
2,1,0,1,0,38500,0.0747092,0.074358,0.795358,20,0.00436614,10,5.91413e-05,-3.09944,0.539133,0.109435,3.40176,0.074358,
2,1,0,1,0,38500.7,0.0822001,0.0818488,0.822587,20,0.00498488,10,6.73277e-05,-3.08482,0.58123,0.101509,3.26383,0.0818488,
2,1,0,1,0,38501.5,0.0896911,0.0893596,0.858349,20,0.00562573,10,7.67017e-05,-3.06634,0.339755,0.173655,5.83227,0.0893596,
2,1,0,1,0,38502.2,0.097182,0.0968503,0.912798,20,0.0063009,10,8.84047e-05,-3.03963,0.21079,0.279899,9.99228,0.0968503,
2,1,0,1,0,38503,0.104673,0.104327,0.998403,20,0.00702752,10,0.000104161,-3.00069,0.194615,0.303162,11.7712,0.104327,
2,1,0,1,0,38503.7,0.112164,0.111847,1.07578,20,0.00781651,10,0.000120322,-2.96828,0.299034,0.197302,8.26828,0.1118466,
2,1,0,1,0,38504.5,0.119655,0.119326,1.12996,20,0.00865539,10,0.000134834,-2.94694,0.585205,0.100819,4.44195,0.119326,
2,1,0,1,0,38505.2,0.127146,0.126813,1.15914,20,0.00952663,10,0.000146994,-2.93587,0.723768,0.0815179,3.69607,0.126813,
2,1,0,1,0,38506,0.134637,0.13432,1.17015,20,0.0104164,10,0.000157174,-2.93176,-0.583591,-0.101098,-4.61426,0.13432,
2,1,0,1,0,38506.7,0.142127,0.141825,1.07803,20,0.0112795,10,0.000152892,-2.96737,-0.125301,-0.470865,-19.6813,0.141825,
2,1,0,1,0,38507.5,0.149619,0.149261,0.875222,20,0.0120265,10,0.000130636,-3.05788,-0.0705846,-0.835876,-28.5632,0.149261,
2,1,0,1,0,38508.2,0.157109,0.156805,0.704082,20,0.0126243,10,0.000110404,-3.15238,-0.097593,-0.604552,-16.6898,0.156805,
2,1,0,1,0,38509,0.164601,0.164258,0.621748,20,0.0131293,10,0.000102127,-3.20639,-0.180841,-0.326253,-7.92502,0.164258,
2,1,0,1,0,38509.7,0.172091,0.171766,0.578071,20,0.0135895,10,9.92928e-05,-3.23802,-0.358979,-0.164355,-3.72767,0.171766,
2,1,0,1,0,38510.4,0.179582,0.179251,0.557674,20,0.0140267,10,9.99638e-05,-3.25362,-0.504863,-0.116863,-2.55151,0.179251,
2,1,0,1,0,38511.2,0.187074,0.186756,0.544729,20,0.0144506,10,0.000101731,-3.26382,-1.14127,-0.051697,-1.09844,0.186756,
2,1,0,1,0,38511.9,0.194564,0.194209,0.536476,20,0.0148662,10,0.000104189,-3.27045,-0.961408,-0.0613683,-1.28162,0.194209,
2,1,0,1,0,38512.7,0.202056,0.201776,0.528011,20,0.0152755,10,0.00010654,-3.27736,-1.24399,-0.0474279,-0.976221,0.201776,
2,1,0,1,0,38513.4,0.209546,0.209206,0.522942,20,0.0156804,10,0.000109403,-3.28155,-1.01588,-0.0580775,-1.18413,0.209206,
2,1,0,1,0,38514.2,0.217038,0.21673,0.515961,20,0.0160809,10,0.000111824,-3.28738,-5.77722,-0.0102125,-0.206747,0.21673,
2,1,0,1,0,38514.9,0.224528,0.22423,0.513455,20,0.0164784,10,0.000115132,-3.2895,-2.6358,-0.0223841,-0.448405,0.22423,
2,1,0,1,0,38515.7,0.232019,0.231709,0.509803,20,0.0168727,10,0.000118126,-3.2926,-6.10688,-0.00966123,-0.192129,0.231709,
2,1,0,1,0,38516.4,0.23951,0.23918,0.506191,20,0.0172645,10,0.000121071,-3.29569,14.3406,0.00411419,0.0812878,0.23918,
2,1,0,1,0,38517.2,0.247001,0.246719,0.502822,20,0.0176535,10,0.000124056,-3.29859,-1.52171,-0.0387721,-0.759409,0.246719,
2,1,0,1,0,38517.9,0.254492,0.254157,0.498947,20,0.0180398,10,0.000126811,-3.30195,-1.22449,-0.0481832,-0.940012,0.254157,
2,1,0,1,0,38518.7,0.261983,0.261634,0.495104,20,0.0184233,10,0.000129536,-3.3053,-1.62264,-0.0363606,-0.702426,0.261634,
2,1,0,1,0,38519.4,0.269474,0.269146,0.492357,20,0.0188043,10,0.000132516,-3.30772,-15.0635,-0.00391675,-0.0751658,0.2691462,
2,1,0,1,0,38520.2,0.276965,0.276668,0.487325,20,0.0191824,10,0.000134827,-3.31218,-1.83521,-0.032149,-0.612581,0.276668,
2,1,0,1,0,38520.9,0.284456,0.284141,0.484957,20,0.0195573,10,0.000137796,-3.3143,-1.65492,-0.0356513,-0.671581,0.284141,
2,1,0,1,0,38521.7,0.291947,0.291594,0.479954,20,0.0199291,10,0.000139952,-3.3188,-1.49913,-0.0393562,-0.736602,0.291594,
2,1,0,1,0,38522.4,0.299437,0.299127,0.474596,20,0.0202979,10,0.000141965,-3.32368,-0.00262998,-22.4336,-207.46,0.299127,
2,0,0,1,0,38523.1,0.293745,0.293406,-0.0753249,20,0.0203179,10,-2.21008e-05,-4.12306,-0.015568,-3.78982,10.4978,0.293406,
2,0,0,1,0,38523.9,0.286253,0.285933,-0.130985,20,0.0202274,10,-3.74529e-05,-3.88278,-0.0526784,-1.12,5.72067,0.285933,
2,0,0,1,0,38524.6,0.278763,0.278428,-0.167644,20,0.0201038,10,-4.66767e-05,-3.77561,-0.0973584,-0.606009,3.92753,0.278428,
2,0,0,1,0,38525.4,0.271272,0.270942,-0.194993,20,0.0199568,10,-5.28317e-05,-3.70998,-0.13577,-0.434557,3.28858,0.2709415,
2,0,0,1,0,38526.1,0.263781,0.26346,-0.218029,20,0.0197902,10,-5.74419e-05,-3.66149,-0.151523,-0.389379,3.32453,0.26346,
2,0,0,1,0,38526.9,0.25629,0.255957,-0.239147,20,0.0196072,10,-6.12114e-05,-3.62133,-0.319531,-0.184645,1.71971,0.255957,
2,0,0,1,0,38527.6,0.248799,0.248474,-0.25657,20,0.0194098,10,-6.3751e-05,-3.59079,-0.250191,-0.23582,2.37115,0.248474,
2,0,0,1,0,38528.4,0.241308,0.240997,-0.273302,20,0.0191996,10,-6.58648e-05,-3.56336,-0.369011,-0.159887,1.71183,0.240997,
2,0,0,1,0,38529.1,0.233817,0.233464,-0.288487,20,0.0189775,10,-6.73512e-05,-3.53987,-0.280615,-0.210253,2.36909,0.233464,
2,0,0,1,0,38529.9,0.226326,0.226,-0.304517,20,0.0187438,10,-6.8821e-05,-3.51639,-0.348071,-0.169506,2.0122,0.226,
2,0,0,1,0,38530.6,0.218835,0.218531,-0.318525,20,0.0184988,10,-6.96075e-05,-3.49686,-0.338537,-0.174279,2.16531,0.218531,
2,0,0,1,0,38531.4,0.211344,0.211037,-0.332977,20,0.018243,10,-7.02704e-05,-3.47759,-0.435213,-0.135566,1.76214,0.211037,
2,0,0,1,0,38532.1,0.203854,0.20352,-0.349826,20,0.0179756,10,-7.11967e-05,-3.45615,-0.554843,-0.106336,1.44855,0.20352,
2,0,0,1,0,38532.9,0.196362,0.196041,-0.363188,20,0.0176971,10,-7.11997e-05,-3.43987,-0.38433,-0.153514,2.18279,0.196041,
2,0,0,1,0,38533.6,0.188872,0.188526,-0.381654,20,0.0174062,10,-7.19518e-05,-3.41833,-0.256,-0.230469,3.43376,0.188526,
2,0,0,1,0,38534.4,0.18138,0.181066,-0.400331,20,0.0171018,10,-7.24863e-05,-3.39758,-0.274809,-0.214695,3.36121,0.181066,
2,0,0,1,0,38535.1,0.17389,0.173567,-0.423124,20,0.016782,10,-7.34402e-05,-3.37353,-0.261226,-0.225858,3.73408,0.173567,
2,0,0,1,0,38535.9,0.166398,0.166125,-0.452548,20,0.0164425,10,-7.51793e-05,-3.34434,-0.241605,-0.2442,4.31817,0.166125,
2,0,0,1,0,38536.6,0.158907,0.1586,-0.493108,20,0.0160766,10,-7.8207e-05,-3.30706,-0.159608,-0.369656,7.14919,0.1586,
2,0,0,1,0,38537.4,0.151417,0.151107,-0.558641,20,0.015672,10,-8.44147e-05,-3.25287,-0.11829,-0.498775,10.903,0.151107,
2,0,0,1,0,38538.1,0.143925,0.143586,-0.666885,20,0.0152035,10,-9.57553e-05,-3.17595,-0.0787119,-0.749569,19.5876,0.143586,
2,0,0,1,0,38538.9,0.136435,0.136081,-0.831873,20,0.0146319,10,-0.000113202,-3.07994,-0.0793379,-0.743654,24.0743,0.136081,
2,0,0,1,0,38539.6,0.128943,0.128626,-1.00639,20,0.0139303,10,-0.000129449,-2.99723,-0.112843,-0.522852,20.449,0.128626,
2,0,0,1,0,38540.3,0.121453,0.121134,-1.13392,20,0.0131131,10,-0.000137356,-2.94542,-0.219722,-0.268521,11.8436,0.121134,
2,0,0,1,0,38541.1,0.113962,0.113625,-1.18555,20,0.0122265,10,-0.000134708,-2.92608,-1.27235,-0.0463707,2.14612,0.113625,
2,0,0,1,0,38541.8,0.106471,0.106151,-1.17778,20,0.0113247,10,-0.000125023,-2.92894,0.811314,0.0727216,-3.3512,0.106151,
2,0,0,1,0,38542.6,0.0989798,0.0986742,-1.14812,20,0.0104396,10,-0.00011329,-2.94001,0.685313,0.0860921,-3.85478,0.0986742,
2,0,0,1,0,38543.3,0.0914889,0.091122,-1.11597,20,0.0095803,10,-0.00010169,-2.95235,0.609153,0.0968558,-4.20529,0.091122,
2,0,0,1,0,38544.1,0.083998,0.083678,-1.07811,20,0.00874686,10,-9.02139e-05,-2.96734,0.41069,0.143661,-6.03723,0.083678,
2,0,0,1,0,38544.8,0.076507,0.076166,-1.04719,20,0.00793849,10,-7.97606e-05,-2.97997,0.570592,0.103401,-4.22041,0.076166,
2,0,0,1,0,38545.6,0.069016,0.0686732,-1.00989,20,0.00715529,10,-6.93521e-05,-2.99573,0.4944,0.119336,-4.7183,0.0686732,
2,0,0,1,0,38546.3,0.0615251,0.0611846,-0.982845,20,0.0063954,10,-6.0135e-05,-3.00751,0.573493,0.102878,-3.95099,0.0611846,
2,0,0,1,0,38547.1,0.0540342,0.0536706,-0.951644,20,0.00565943,10,-5.10753e-05,-3.02153,0.582977,0.101205,-3.75137,0.0536706,
2,0,0,1,0,38547.8,0.0465441,0.0462159,-0.917171,20,0.00494742,10,-4.23879e-05,-3.03755,0.516321,0.11427,-4.09554,0.0462159,
2,0,0,1,0,38548.6,0.0390523,0.0387231,-0.883321,20,0.0042612,10,-3.42049e-05,-3.05388,0.377437,0.156318,-5.37403,0.0387231,
2,0,0,1,0,38549.3,0.0315618,0.0312222,-0.851028,20,0.00360078,10,-2.6571e-05,-3.07006,0.436223,0.135252,-4.48119,0.0312222,
2,0,0,1,0,38550.1,0.0240704,0.023712,-0.814668,20,0.00296527,10,-1.93174e-05,-3.08902,0.453126,0.130207,-4.15223,0.02371197,
2,0,0,1,0,38550.8,0.0165796,0.0162783,-0.791748,20,0.00235115,10,-1.28883e-05,-3.10141,0.81905,0.0720347,-2.22971,0.0162783,
2,0,0,1,0,38551.6,0.00908846,0.00874857,-0.77673,20,0.00175181,10,-6.79528e-06,-3.10973,1.64446,0.0358781,-1.08773,0.00874857,
2,0,0,1,0,38552.3,0.00159728,0.0012164,-0.783472,20,0.00115826,10,-9.53018e-07,-3.10598, , , ,0.0012164,
2,0,0,1,0,38552.5,0.000199195,-0.000216526,-0.776095,20,0.00104702,10,1.68045e-07,-3.11009, , , ,-0.000216526,

File: 20221101_1-115_003_TrumpetPlot_ParaChange_from10_every3_04_CV_C01_20.csv
mode,ox/red,error,control changes,counter inc.,time/s,control/V,Ewe/V,<I>/mA,cycle number,(Q-Qo)/C,I Range,P/W,log(|I|),Tafel slope mV/dec,alpha_eff,dI/d(E-IR),E-IR/V,
2,0,0,1,0,40462.6,2.44065e-05,-0.000306236,-0.385608,21,0.0000000E+000,10,1.18087e-07,-3.41385, , , ,-0.000306236,
2,1,0,1,0,40463.4,0.00729063,0.00698088,0.352651,21,0.000171513,10,2.46181e-06,-3.45266,0.0586308,1.0063,13.6558,0.00698088,
2,1,0,1,0,40464.1,0.0147814,0.0144069,0.427365,21,0.000476744,10,6.15702e-06,-3.3692,0.112556,0.524184,8.752,0.0144069,
2,1,0,1,0,40464.8,0.0222725,0.0219771,0.482357,21,0.000828455,10,1.06008e-05,-3.31663,0.152695,0.386391,7.26709,0.0219771,
2,1,0,1,0,40465.6,0.0297635,0.0294741,0.53366,21,0.00121947,10,1.57291e-05,-3.27274,0.191972,0.307336,6.40308,0.0294741,
2,1,0,1,0,40466.3,0.0372544,0.0369257,0.58444,21,0.00164828,10,2.15809e-05,-3.23326,0.200842,0.293764,6.69265,0.0369257,
2,1,0,1,0,40467.1,0.0447458,0.0444666,0.632969,21,0.00211544,10,2.8146e-05,-3.19862,0.222829,0.264777,6.5622,0.0444666,
2,1,0,1,0,40467.8,0.0522363,0.0519262,0.68165,21,0.00261923,10,3.53955e-05,-3.16644,0.24364,0.24216,6.42916,0.0519262,
2,1,0,1,0,40468.6,0.0597282,0.0594097,0.7226,21,0.00315634,10,4.29295e-05,-3.1411,0.298521,0.197641,5.58123,0.0594097,
2,1,0,1,0,40469.3,0.0672182,0.0669161,0.762102,21,0.0037231,10,5.09969e-05,-3.11799,0.334169,0.176558,5.22713,0.0669161,
2,1,0,1,0,40470.1,0.0747092,0.0743835,0.794316,21,0.00431587,10,5.9084e-05,-3.10001,0.5171,0.114098,3.52795,0.0743835,
2,1,0,1,0,40470.8,0.0822001,0.081888,0.817814,21,0.00493027,10,6.69691e-05,-3.08735,0.545233,0.108211,3.46183,0.08188799,
2,1,0,1,0,40471.6,0.0896911,0.0893586,0.853776,21,0.00556624,10,7.62922e-05,-3.06866,0.357441,0.165062,5.5111,0.0893586,
2,1,0,1,0,40472.3,0.097182,0.0968737,0.90854,21,0.00623557,10,8.80136e-05,-3.04166,0.214001,0.2757,9.76967,0.0968737,
2,1,0,1,0,40473.1,0.104673,0.104383,0.988432,21,0.00695492,10,0.000103176,-3.00505,0.193035,0.305643,11.7614,0.104383,
2,1,0,1,0,40473.8,0.112164,0.111831,1.06538,21,0.00773504,10,0.000119142,-2.9725,0.271958,0.216946,8.99957,0.111831,
2,1,0,1,0,40474.6,0.119655,0.119342,1.12025,21,0.00856511,10,0.000133692,-2.95069,0.548315,0.107602,4.70071,0.119342,
2,1,0,1,0,40475.3,0.127146,0.126806,1.15132,21,0.00942811,10,0.000145994,-2.9388,0.713468,0.0826947,3.724,0.126806,
2,1,0,1,0,40476.1,0.134637,0.134299,1.16306,21,0.0103099,10,0.000156197,-2.9344,-0.708272,-0.0833013,-3.7797,0.134299,
2,1,0,1,0,40476.8,0.142127,0.141805,1.07724,21,0.0111681,10,0.000152758,-2.96769,-0.128415,-0.459447,-19.2314,0.141805,
2,1,0,1,0,40477.6,0.149619,0.149309,0.883428,21,0.0119162,10,0.000131903,-3.05383,-0.0749671,-0.787012,-27.0927,0.149309,
2,1,0,1,0,40478.3,0.157109,0.156763,0.711469,21,0.0125177,10,0.000111532,-3.14784,-0.0985233,-0.598843,-16.653,0.156763,
2,1,0,1,0,40479.1,0.164601,0.164283,0.625264,21,0.0130247,10,0.00010272,-3.20394,-0.178824,-0.329933,-8.05725,0.164283,
2,1,0,1,0,40479.8,0.172091,0.171755,0.580362,21,0.0134856,10,9.96802e-05,-3.2363,-0.376089,-0.156878,-3.57705,0.171755,
2,1,0,1,0,40480.6,0.179582,0.179245,0.560062,21,0.0139229,10,0.000100388,-3.25176,-0.632763,-0.0932419,-2.0443,0.179245,
2,1,0,1,0,40481.3,0.187074,0.186757,0.547889,21,0.0143469,10,0.000102322,-3.26131,-1.36628,-0.0431829,-0.920015,0.186757,
2,1,0,1,0,40482.1,0.194564,0.194268,0.53766,21,0.0147624,10,0.00010445,-3.26949,-1.21693,-0.0484828,-1.01669,0.194268,
2,1,0,1,0,40482.8,0.202056,0.201733,0.530336,21,0.0151718,10,0.000106986,-3.27545,-1.54545,-0.0381766,-0.788901,0.201733,
2,1,0,1,0,40483.6,0.209546,0.209253,0.524459,21,0.0155767,10,0.000109745,-3.28029,-1.0591,-0.0557077,-1.14223,0.209253,
2,1,0,1,0,40484.3,0.217038,0.216707,0.518937,21,0.0159773,10,0.000112457,-3.28489,-2.69286,-0.0219098,-0.444603,0.216707,
2,1,0,1,0,40485.1,0.224528,0.224261,0.514921,21,0.0163748,10,0.000115477,-3.28826,-1.47484,-0.0400042,-0.804883,0.224261,
2,1,0,1,0,40485.8,0.232019,0.231719,0.512425,21,0.0167689,10,0.000118739,-3.29037,-2.18637,-0.0269854,-0.537921,0.231719,
2,1,0,1,0,40486.6,0.23951,0.239167,0.506959,21,0.0171606,10,0.000121248,-3.29503,-1.88561,-0.0312896,-0.618762,0.239167,
2,1,0,1,0,40487.3,0.247001,0.246693,0.505393,21,0.0175496,10,0.000124677,-3.29637,-1.23375,-0.0478216,-0.939503,0.246693,
2,1,0,1,0,40488.1,0.254492,0.254201,0.500469,21,0.017936,10,0.00012722,-3.30062,-3.61411,-0.0163249,-0.319473,0.254201,
2,1,0,1,0,40488.8,0.261983,0.261657,0.497569,21,0.0183196,10,0.000130192,-3.30315,-1.91461,-0.0308157,-0.599251,0.261657,
2,1,0,1,0,40489.6,0.269474,0.269142,0.492451,21,0.0187005,10,0.000132539,-3.30764,-9.37998,-0.00628999,-0.120964,0.269142,
2,1,0,1,0,40490.3,0.276965,0.276641,0.489748,21,0.0190785,10,0.000135484,-3.31003,-1.56417,-0.0377197,-0.721076,0.276641,
2,1,0,1,0,40491.1,0.284456,0.284153,0.484766,21,0.0194535,10,0.000137748,-3.31447,-1.73857,-0.033936,-0.64173,0.2841531,
2,1,0,1,0,40491.8,0.291947,0.291629,0.481279,21,0.0198252,10,0.000140355,-3.3176,-1.76861,-0.0333594,-0.628171,0.291629,
2,1,0,1,0,40492.6,0.299437,0.299165,0.475963,21,0.0201939,10,0.000142392,-3.32243,-0.00282077,-20.9163,-205.75,0.299165,
2,0,0,1,0,40493.2,0.293745,0.293435,-0.074683,21,0.020219,10,-2.19146e-05,-4.12678,-0.0141962,-4.15605,10.9001,0.293435,
2,0,0,1,0,40494,0.286253,0.28594,-0.13051,21,0.0201307,10,-3.73179e-05,-3.88436,-0.0519555,-1.13559,5.75559,0.28594,
2,0,0,1,0,40494.7,0.278763,0.27844,-0.16702,21,0.020009,10,-4.65049e-05,-3.77723,-0.092879,-0.635235,4.12547,0.27844,
2,0,0,1,0,40495.5,0.271272,0.270944,-0.193748,21,0.0198635,10,-5.24947e-05,-3.71276,-0.129783,-0.454605,3.44444,0.270944,
2,0,0,1,0,40496.2,0.263781,0.263473,-0.218624,21,0.0196984,10,-5.76014e-05,-3.6603,-0.165044,-0.35748,3.05367,0.263473,
2,0,0,1,0,40497,0.25629,0.255978,-0.239942,21,0.0195166,10,-6.142e-05,-3.61989,-0.263301,-0.224078,2.08693,0.255978,
2,0,0,1,0,40497.7,0.248799,0.24848,-0.25736,21,0.0193205,10,-6.39487e-05,-3.58946,-0.249914,-0.236081,2.37676,0.24848,
2,0,0,1,0,40498.5,0.241308,0.240998,-0.273116,21,0.0191116,10,-6.58204e-05,-3.56365,-0.329102,-0.179276,1.9176,0.240998,
2,0,0,1,0,40499.2,0.233817,0.233495,-0.289615,21,0.018891,10,-6.76237e-05,-3.53818,-0.25062,-0.235416,2.65443,0.233495,
2,0,0,1,0,40500,0.226326,0.22605,-0.303834,21,0.0186589,10,-6.86818e-05,-3.51736,-0.368177,-0.160249,1.89771,0.22605,
2,0,0,1,0,40500.7,0.218835,0.218479,-0.319246,21,0.0184155,10,-6.97486e-05,-3.49587,-0.317792,-0.185656,2.30828,0.218479,
2,0,0,1,0,40501.5,0.211344,0.211005,-0.332523,21,0.0181611,10,-7.01641e-05,-3.47818,-0.495712,-0.119021,1.54728,0.211005,
2,0,0,1,0,40502.2,0.203854,0.203498,-0.348317,21,0.0178953,10,-7.08818e-05,-3.45803,-0.387186,-0.152382,2.07707,0.203498,
2,0,0,1,0,40503,0.196362,0.196057,-0.363509,21,0.0176184,10,-7.12684e-05,-3.43948,-0.358356,-0.164641,2.33437,0.196057,
2,0,0,1,0,40503.7,0.188872,0.188593,-0.381887,21,0.017329,10,-7.20212e-05,-3.41807,-0.285611,-0.206575,3.07895,0.188593,
2,0,0,1,0,40504.5,0.18138,0.181046,-0.40024,21,0.0170261,10,-7.24617e-05,-3.39768,-0.327108,-0.180369,2.81761,0.181046,
2,0,0,1,0,40505.2,0.17389,0.173564,-0.423,21,0.016708,10,-7.34173e-05,-3.37366,-0.273956,-0.215363,3.54987,0.173564,
2,0,0,1,0,40506,0.166398,0.166035,-0.450487,21,0.0163708,10,-7.47968e-05,-3.34632,-0.293135,-0.201273,3.55443,0.166035,
2,0,0,1,0,40506.7,0.158907,0.158578,-0.491748,21,0.0160084,10,-7.79807e-05,-3.30826,-0.172421,-0.342185,6.56983,0.158578,
2,0,0,1,0,40507.5,0.151417,0.151105,-0.55297,21,0.0156086,10,-8.35565e-05,-3.2573,-0.120788,-0.488459,10.5772,0.151105,
2,0,0,1,0,40508.2,0.143925,0.143636,-0.658499,21,0.0151475,10,-9.45843e-05,-3.18144,-0.0829377,-0.711377,18.2789,0.143636,
2,0,0,1,0,40509,0.136435,0.1361,-0.815557,21,0.0145875,10,-0.000110997,-3.08855,-0.0804396,-0.733469,23.3383,0.1361002,
2,0,0,1,0,40509.7,0.128943,0.128608,-0.986987,21,0.0139015,10,-0.000126935,-3.00569,-0.109409,-0.539259,20.6452,0.128608,
2,0,0,1,0,40510.5,0.121453,0.121115,-1.11493,21,0.0131006,10,-0.000135034,-2.95275,-0.202894,-0.290792,12.617,0.121115,
2,0,0,1,0,40511.2,0.113962,0.113646,-1.17255,21,0.0122276,10,-0.000133255,-2.93087,-0.901004,-0.0654825,2.99567,0.113646,
2,0,0,1,0,40512,0.106471,0.106164,-1.17078,21,0.0113352,10,-0.000124294,-2.93153,1.13905,0.0517977,-2.37018,0.106164,
2,0,0,1,0,40512.7,0.0989798,0.0986965,-1.14455,21,0.0104562,10,-0.000112963,-2.94136,0.65883,0.0895527,-3.99461,0.0986965,
2,0,0,1,0,40513.5,0.0914889,0.0911687,-1.11381,21,0.00960071,10,-0.000101545,-2.95319,0.593661,0.0993833,-4.31168,0.0911687,
2,0,0,1,0,40514.2,0.083998,0.0836377,-1.07786,21,0.00877005,10,-9.01498e-05,-2.96744,0.428304,0.137753,-5.79029,0.0836377,
2,0,0,1,0,40515,0.076507,0.0761841,-1.04684,21,0.00796376,10,-7.97523e-05,-2.98012,0.491492,0.120043,-4.89897,0.0761841,
2,0,0,1,0,40515.7,0.069016,0.068704,-1.01177,21,0.00718213,10,-6.95124e-05,-2.99492,0.539779,0.109304,-4.32784,0.068704,
2,0,0,1,0,40516.5,0.0615251,0.0611772,-0.981623,21,0.00642373,10,-6.00529e-05,-3.00806,0.525043,0.112372,-4.3124,0.06117719,
2,0,0,1,0,40517.2,0.0540342,0.0537246,-0.950355,21,0.00568886,10,-5.10575e-05,-3.02211,0.574639,0.102673,-3.80723,0.0537246,
2,0,0,1,0,40518,0.0465441,0.046237,-0.916696,21,0.00497796,10,-4.23853e-05,-3.03777,0.506101,0.116578,-4.17665,0.04623704,
2,0,0,1,0,40518.7,0.0390523,0.0387188,-0.885423,21,0.00429236,10,-3.42826e-05,-3.05285,0.388541,0.15185,-5.23843,0.0387188,
2,0,0,1,0,40519.5,0.0315618,0.0312542,-0.851368,21,0.00363216,10,-2.66088e-05,-3.06988,0.452122,0.130496,-4.33513,0.0312542,
2,0,0,1,0,40520.2,0.0240704,0.023782,-0.817082,21,0.00299644,10,-1.94318e-05,-3.08773,0.490783,0.120216,-3.84817,0.023782,
2,0,0,1,0,40521,0.0165796,0.0162742,-0.79462,21,0.0023824,10,-1.29318e-05,-3.09984,0.829593,0.0711192,-2.20475,0.0162742,
2,0,0,1,0,40521.7,0.00908846,0.00873585,-0.779203,21,0.00178326,10,-6.807e-06,-3.10835,1.86207,0.0316852,-0.964772,0.00873585,
2,0,0,1,0,40522.5,0.00159728,0.00122603,-0.784919,21,0.0011901,10,-9.62336e-07,-3.10518, , , ,0.00122603,
2,0,0,1,0,40522.6,0.000199195,-0.000206982,-0.778459,21,0.00107896,10,1.61127e-07,-3.10876, , , ,-0.000206982,