Folder: Figs_alphaMnO2_OER_Tafel_sleope/Figure_codes/Fig_3-5/rawdata_trumpetplot_data/after 10th (part 146)

File: 20221101_1-115_003_TrumpetPlot_ParaChange_from10_every3_10_CV_C01_13.csv
mode,ox/red,error,control changes,counter inc.,time/s,control/V,Ewe/V,<I>/mA,cycle number,(Q-Qo)/C,I Range,P/W,log(|I|),Tafel slope mV/dec,alpha_eff,dI/d(E-IR),E-IR/V,
2,1,0,0,0,26802.2,-2.44065e-05,-0.000287149,5.2897,14,0.0000000E+000,10,-1.51893e-06,-2.27657, , , ,-0.0002871489,
2,1,0,1,0,26802.3,0.00977853,0.00945085,8.09851,14,0.000341654,10,7.65378e-05,-2.09159,0.116175,0.507854,159.801,0.00945085,
2,1,0,1,0,26802.3,0.0197755,0.019424,9.27881,14,0.000779214,10,0.000180231,-2.03251,0.242866,0.242933,87.968,0.019424,
2,1,0,1,0,26802.4,0.0297726,0.0294787,10.06,14,0.00126355,10,0.000296554,-1.9974,0.342817,0.172103,67.4653,0.0294787,
2,1,0,1,0,26802.4,0.0397514,0.0394041,10.718,14,0.00178214,10,0.000422332,-1.96989,0.349025,0.169042,70.7896,0.0394041,
2,1,0,1,0,26802.5,0.0497393,0.0494171,11.4162,14,0.00233426,10,0.000564155,-1.94248,0.379231,0.155578,69.2134,0.0494171,
2,1,0,1,0,26802.5,0.0597364,0.0594171,12.1181,14,0.0029223,10,0.000720022,-1.91657,0.371817,0.15868,75.0793,0.05941711,
2,1,0,1,0,26802.6,0.0697152,0.0693458,12.8504,14,0.00354559,10,0.00089112,-1.89108,0.421569,0.139953,70.174,0.0693458,
2,1,0,1,0,26802.6,0.0796941,0.0793365,13.5716,14,0.00420479,10,0.00107672,-1.86737,0.435078,0.135608,71.8452,0.0793365,
2,1,0,1,0,26802.7,0.0896911,0.0893365,14.2421,14,0.00490065,10,0.00127234,-1.84643,0.510099,0.115664,64.2764,0.0893365,
2,1,0,1,0,26802.7,0.099679,0.0993908,14.8757,14,0.00562703,10,0.0014785,-1.82752,0.53824,0.109617,63.6086,0.09939079,
2,1,0,1,0,26802.8,0.109658,0.109365,15.5865,14,0.00638604,10,0.00170461,-1.80725,0.439498,0.134244,81.6604,0.109365,
2,1,0,1,0,26802.8,0.119655,0.119323,16.5381,14,0.00718825,10,0.00197337,-1.78151,0.364199,0.162,104.64,0.119323,
2,1,0,1,0,26802.9,0.129652,0.129317,17.6793,14,0.00804371,10,0.00228625,-1.75253,0.351454,0.167874,115.738,0.129317,
2,1,0,1,0,26802.9,0.139631,0.139362,18.7109,14,0.00895287,10,0.00260759,-1.7279,0.460115,0.128229,93.704,0.139362,
2,1,0,1,0,26803,0.149619,0.14929,19.5112,14,0.00990788,10,0.00291283,-1.70972,0.766646,0.0769586,58.5061,0.14929,
2,1,0,1,0,26803,0.159616,0.159301,19.7046,14,0.0108918,10,0.00313896,-1.70543,-1.34567,-0.0438445,-33.7023,0.159301,
2,1,0,1,0,26803.1,0.169595,0.169249,18.6586,14,0.0118554,10,0.00315795,-1.72912,-0.227028,-0.25988,-188.724,0.169249,
2,1,0,1,0,26803.1,0.179573,0.179261,16.1179,14,0.012727,10,0.00288931,-1.79269,-0.129387,-0.455996,-286.892,0.179261,
2,1,0,1,0,26803.2,0.18957,0.189251,13.3657,14,0.0134618,10,0.00252947,-1.87401,-0.127242,-0.463683,-241.913,0.1892508,
2,1,0,1,0,26803.2,0.199558,0.19924,11.3686,14,0.0140749,10,0.00226508,-1.94429,-0.170731,-0.345573,-153.491,0.19924,
2,1,0,1,0,26803.3,0.209537,0.209189,10.1303,14,0.0146085,10,0.00211914,-1.99438,-0.229562,-0.257011,-101.645,0.209189,
2,1,0,1,0,26803.3,0.219534,0.219258,9.32638,14,0.0150933,10,0.00204488,-2.03029,-0.349681,-0.168725,-61.5029,0.219258,
2,1,0,1,0,26803.4,0.229531,0.229237,8.80119,14,0.015546,10,0.00201756,-2.05546,-0.463885,-0.127187,-43.7093,0.229237,
2,1,0,1,0,26803.4,0.23951,0.239189,8.43496,14,0.0159757,10,0.00201755,-2.07392,-0.647494,-0.0911205,-30.031,0.239189,
2,1,0,1,0,26803.5,0.249498,0.249197,8.17424,14,0.0163897,10,0.002037,-2.08755,-0.755996,-0.0780427,-24.869,0.249197,
2,1,0,1,0,26803.5,0.259495,0.259184,7.9564,14,0.0167925,10,0.00206217,-2.09928,-0.895172,-0.0659091,-20.4728,0.259184,
2,1,0,1,0,26803.6,0.269474,0.269161,7.78826,14,0.0171851,10,0.0020963,-2.10856,-1.10768,-0.0532646,-16.1853,0.269161,
2,1,0,1,0,26803.6,0.279453,0.279123,7.63594,14,0.0175699,10,0.00213137,-2.11714,-1.26221,-0.0467434,-13.9437,0.2791234,
2,1,0,1,0,26803.7,0.28945,0.289164,7.50827,14,0.0179485,10,0.00217112,-2.12446,-1.81196,-0.0325614,-9.53413,0.289164,
2,1,0,1,0,26803.7,0.299438,0.29917,7.38186,14,0.01832,10,0.00220843,-2.13183,-0.0575865,-1.02455,-283.007,0.29917,
2,1,0,1,0,26803.8,0.291747,0.291427,0.053615,14,0.0184523,10,1.56249e-05,-4.27071,0.02337,2.5246,406.854,0.291427,
2,0,0,1,0,26803.8,0.28175,0.28141,-2.30992,14,0.0183854,10,-0.000650034,-2.6364,-0.03698,-1.59546,141.384,0.28141,
2,0,0,1,0,26803.9,0.27178,0.271464,-3.30481,14,0.0182428,10,-0.000897137,-2.48085,-0.100263,-0.58845,75.6217,0.2714642,
2,0,0,1,0,26803.9,0.261783,0.261444,-3.89363,14,0.0180618,10,-0.00101797,-2.40965,-0.192867,-0.30591,46.4579,0.261444,
2,0,0,1,0,26804,0.251786,0.25144,-4.3225,14,0.0178558,10,-0.00108685,-2.36426,-0.270374,-0.218216,36.7447,0.25144,
2,0,0,1,0,26804,0.241807,0.241493,-4.65496,14,0.0176315,10,-0.00112414,-2.33208,-0.335338,-0.175942,32.0559,0.241493,
2,0,0,1,0,26804.1,0.231824,0.231484,-4.96177,14,0.0173914,10,-0.00114857,-2.30436,-0.386015,-0.152844,29.5316,0.231484,
2,0,0,1,0,26804.1,0.221822,0.221488,-5.21433,14,0.0171368,10,-0.00115491,-2.2828,-0.454189,-0.129902,26.4915,0.221488,
2,0,0,1,0,26804.2,0.211844,0.211524,-5.4846,14,0.0168698,10,-0.00116012,-2.26086,-0.554996,-0.106307,22.702,0.211524,
2,0,0,1,0,26804.2,0.201865,0.201563,-5.72899,14,0.0165901,10,-0.00115475,-2.24192,-0.530349,-0.111248,24.913,0.201563,
2,0,0,1,0,26804.3,0.191868,0.191549,-5.99913,14,0.016297,10,-0.00114913,-2.22191,-0.466955,-0.12635,29.5611,0.191549,
2,0,0,1,0,26804.3,0.18188,0.18159,-6.2997,14,0.0159906,10,-0.00114396,-2.20068,-0.417442,-0.141337,34.7199,0.18159,
2,0,0,1,0,26804.4,0.171901,0.171615,-6.65464,14,0.0156679,10,-0.00114204,-2.17688,-0.37535,-0.157186,40.7586,0.171615,
2,0,0,1,0,26804.4,0.161904,0.16158,-7.11913,14,0.0153241,10,-0.00115031,-2.14757,-0.292044,-0.202024,56.25,0.16158,
2,0,0,1,0,26804.5,0.151907,0.151618,-7.83585,14,0.014951,10,-0.00118805,-2.10591,-0.205344,-0.287323,88.0272,0.151618,
2,0,0,1,0,26804.5,0.141928,0.141594,-9.01885,14,0.0145328,10,-0.00127701,-2.04485,-0.139433,-0.423142,149.137,0.141594,
2,0,0,1,0,26804.6,0.13194,0.131624,-10.8632,14,0.0140395,10,-0.00142985,-1.96404,-0.11614,-0.508007,215.233,0.131624,
2,0,0,1,0,26804.6,0.121943,0.121637,-13.0991,14,0.0134404,10,-0.00159333,-1.88276,-0.134209,-0.439613,225.065,0.121637,
2,0,0,1,0,26804.7,0.111964,0.111628,-15.2792,14,0.0127302,10,-0.00170559,-1.8159,-0.178,-0.331461,197.452,0.111628,
2,0,0,1,0,26804.7,0.101985,0.101681,-16.9832,14,0.011923,10,-0.00172686,-1.76998,-0.272812,-0.216266,143.212,0.101681,
2,0,0,1,0,26804.8,0.0919883,0.0916868,-18.1143,14,0.0110427,10,-0.00166084,-1.74198,-0.505421,-0.116734,82.4729,0.0916868,
2,0,0,1,0,26804.8,0.0820004,0.0816587,-18.5367,14,0.0101248,10,-0.00151368,-1.73197,-7.37447,-0.00800058,5.78432,0.0816587,
2,0,0,1,0,26804.9,0.0720215,0.0717215,-18.2828,14,0.00920406,10,-0.00131127,-1.73796,0.845338,0.0697946,-49.7607,0.0717215,
2,0,0,1,0,26804.9,0.0620245,0.0616538,-17.6991,14,0.00830431,10,-0.00109121,-1.75205,0.660545,0.0893202,-61.7374,0.0616538,
2,0,0,1,0,26805,0.0520275,0.0517275,-17.1665,14,0.00743287,10,-0.000887979,-1.76532,0.744528,0.0792448,-53.0628,0.0517275,
2,0,0,1,0,26805,0.0420486,0.0417113,-16.6751,14,0.0065884,10,-0.000695541,-1.77793,0.844684,0.0698486,-45.5029,0.0417113,
2,0,0,1,0,26805.1,0.0320607,0.0317622,-16.2033,14,0.00576765,10,-0.000514651,-1.7904,0.735297,0.0802396,-50.6992,0.0317622,
2,0,0,1,0,26805.1,0.0220637,0.0217483,-15.6119,14,0.00497174,10,-0.000339532,-1.80654,0.561397,0.105095,-64.0795,0.0217483,
2,0,0,1,0,26805.2,0.0120848,0.0117355,-14.9182,14,0.00420937,10,-0.000175072,-1.82628,0.427649,0.137964,-80.2476,0.0117355,
2,0,0,1,0,26805.2,0.00210598,0.0016962,-14.1642,14,0.00348522,10,-2.40253e-05,-1.84881,0.465896,0.126638,-69.889,0.0016962,
2,0,0,1,0,26805.3,-0.00789103,-0.00821099,-13.4245,14,0.00279636,10,0.000110228,-1.8721,0.510897,0.115483,-60.5186,-0.00821099,
2,0,0,1,0,26805.3,-0.017879,-0.0182762,-12.9463,14,0.00213935,10,0.000236609,-1.88785,0.867388,0.0680203,-34.3788,-0.0182762,
2,0,0,1,0,26805.4,-0.0278578,-0.0282275,-12.7011,14,0.00150053,10,0.000358521,-1.89616,1.98773,0.0296821,-14.7128,-0.0282275,
2,0,0,1,0,26805.4,-0.0378549,-0.0382362,-12.6538,14,0.0008674,10,0.000483832,-1.89778,-16.9767,-0.00347535,1.71714,-0.0382362,
2,0,0,1,0,26805.5,-0.0478519,-0.0482067,-12.7654,14,0.000232284,10,0.000615378,-1.89397,-1.39768,-0.0422129,21.039,-0.0482067,
2,0,0,1,0,26805.5,-0.0578126,-0.0581981,-12.9939,14,-0.00040902,10,0.000756223,-1.88626,-1.10096,-0.0535895,27.2076,-0.0581981,
2,0,0,1,0,26805.6,-0.0678187,-0.0682068,-13.3375,14,-0.00106694,10,0.000909707,-1.87493,-0.793006,-0.0744004,38.6866,-0.0682068,
2,0,0,1,0,26805.6,-0.0778157,-0.0781704,-13.7433,14,-0.00174374,10,0.00107432,-1.86191,-0.699368,-0.0843618,45.3082,-0.0781704,
2,0,0,1,0,26805.7,-0.0877945,-0.0881573,-14.291,14,-0.0024429,10,0.00125986,-1.84494,-0.562935,-0.104808,58.417,-0.0881573,
2,0,0,1,0,26805.7,-0.0977734,-0.0981314,-14.885,14,-0.00317065,10,0.00146069,-1.82725,-0.501677,-0.117606,68.4309,-0.0981314,
2,0,0,1,1,26805.7,-0.0936874,-0.0940942,-6.54335,14,-0.00365436,10,0.000615691,-2.1842,-0.0167266,-3.52732,898.263,-0.0940942,
2,0,0,1,1,26805.8,-0.0837086,-0.0841022,-0.0672889,14,-0.00380182,10,5.65914e-06,-4.17206,-0.041681,-1.41551,482.487,-0.0841022,
2,1,0,1,1,26805.8,-0.0737025,-0.0740501,3.75912,14,-0.00370152,10,-0.000278364,-2.42491,0.0278782,2.11635,305.461,-0.0740501,
2,1,0,1,1,26805.9,-0.0637236,-0.064104,6.22732,14,-0.00344787,10,-0.000399196,-2.2057,0.0725039,0.813749,197.004,-0.064104,
2,1,0,1,1,26805.9,-0.0537448,-0.0540839,7.8517,14,-0.00309351,10,-0.000424651,-2.10504,0.143096,0.41231,126.096,-0.05408391,
2,1,0,1,1,26806,-0.0437477,-0.0441238,8.90494,14,-0.00267242,10,-0.00039292,-2.05037,0.245403,0.240421,83.5152,-0.0441238,
2,1,0,1,1,26806,-0.0337507,-0.034096,9.57906,14,-0.00220859,10,-0.000326608,-2.01868,0.434437,0.135808,50.7761,-0.03409601,
2,1,0,1,1,26806.1,-0.0237809,-0.024148,9.97403,14,-0.00172069,10,-0.000240853,-2.00113,0.729261,0.0809038,31.4706,-0.024148,
2,1,0,1,1,26806.1,-0.0137839,-0.014155,10.1821,14,-0.00121609,10,-0.000144127,-1.99216,2.13738,0.0276039,10.9665,-0.014155,
2,1,0,1,1,26806.2,-0.0037869,-0.00414886,10.2732,14,-0.00070441,10,-4.2622e-05,-1.9883,5.10436,0.0115587,4.63318,-0.00414886,
2,1,0,1,1,26806.2,-2.55332e-05,-0.00042076,10.2667,14,-0.00051215,10,-4.3198e-06,-1.98857, , , ,-0.00042076,

File: 20221101_1-115_003_TrumpetPlot_ParaChange_from10_every3_10_CV_C01_14.csv
mode,ox/red,error,control changes,counter inc.,time/s,control/V,Ewe/V,<I>/mA,cycle number,(Q-Qo)/C,I Range,P/W,log(|I|),Tafel slope mV/dec,alpha_eff,dI/d(E-IR),E-IR/V,
2,1,0,0,0,28772.3,-2.44065e-05,-0.000458935,5.06582,15,0.0000000E+000,10,-2.32488e-06,-2.29535, , , ,-0.000458935,
2,1,0,1,0,28772.4,0.00977853,0.00949163,7.59314,15,0.000321159,10,7.20713e-05,-2.11958,0.114874,0.513608,151.432,0.00949163,
2,1,0,1,0,28772.4,0.0197755,0.0194283,8.72081,15,0.000731706,10,0.000169431,-2.05944,0.230868,0.255557,87.0204,0.0194283,
2,1,0,1,0,28772.5,0.0297726,0.0294249,9.48866,15,0.00118795,10,0.000279202,-2.0228,0.333814,0.176745,65.3487,0.0294249,
2,1,0,1,0,28772.5,0.0397514,0.0393978,10.1219,15,0.00167743,10,0.00039878,-1.99474,0.341871,0.17258,68.2717,0.0393978,
2,1,0,1,0,28772.6,0.0497393,0.049385,10.789,15,0.00219905,10,0.000532815,-1.96702,0.375282,0.157215,66.0865,0.049385,
2,1,0,1,0,28772.6,0.0597364,0.0593972,11.4448,15,0.00275465,10,0.000679789,-1.94139,0.379513,0.155462,69.4634,0.0593972,
2,1,0,1,0,28772.7,0.0697152,0.0694221,12.144,15,0.00334338,10,0.000843065,-1.91564,0.413524,0.142676,67.6214,0.0694221,
2,1,0,1,0,28772.7,0.0796941,0.0793486,12.8116,15,0.00396625,10,0.00101658,-1.8924,0.42697,0.138183,69.1352,0.0793486,
2,1,0,1,0,28772.8,0.0896911,0.0893287,13.4648,15,0.00462382,10,0.00120279,-1.8708,0.492766,0.119732,62.9258,0.0893287,
2,1,0,1,0,28772.8,0.099679,0.0993685,14.0687,15,0.00531093,10,0.00139798,-1.85175,0.550525,0.10717,58.8263,0.0993685,
2,1,0,1,0,28772.9,0.109658,0.10931,14.7196,15,0.0060284,10,0.00160899,-1.8321,0.459484,0.128405,73.726,0.10931,
2,1,0,1,0,28772.9,0.119655,0.119317,15.5642,15,0.00678447,10,0.00185707,-1.80787,0.38372,0.153758,93.4367,0.119317,
2,1,0,1,0,28773,0.129652,0.129324,16.5857,15,0.0075878,10,0.00214494,-1.78027,0.362085,0.162945,105.367,0.129324,
2,1,0,1,0,28773,0.139631,0.139306,17.5647,15,0.00844045,10,0.00244686,-1.75536,0.441559,0.133617,91.5821,0.139306,
2,1,0,1,0,28773.1,0.149619,0.149269,18.3532,15,0.00933755,10,0.00273956,-1.73629,0.636525,0.0926908,66.317,0.149269,
2,1,0,1,0,28773.1,0.159616,0.159288,18.7076,15,0.0102668,10,0.0029799,-1.72798,-7.26798,-0.00811779,-5.92539,0.159288,
2,1,0,1,0,28773.2,0.169595,0.169324,18.0869,15,0.0111902,10,0.00306255,-1.74264,-0.305669,-0.193019,-135.936,0.169324,
2,1,0,1,0,28773.2,0.179573,0.17923,16.0806,15,0.0120471,10,0.00288213,-1.7937,-0.150156,-0.392925,-246.51,0.17923,
2,1,0,1,0,28773.3,0.18957,0.189235,13.5916,15,0.012788,10,0.00257201,-1.86673,-0.136741,-0.431472,-228.911,0.189235,
2,1,0,1,0,28773.3,0.199558,0.199248,11.6374,15,0.0134141,10,0.00231873,-1.93414,-0.170014,-0.347029,-157.707,0.199248,
2,1,0,1,0,28773.4,0.209537,0.209207,10.358,15,0.0139601,10,0.00216697,-1.98472,-0.223956,-0.263445,-106.524,0.209207,
2,1,0,1,0,28773.4,0.219534,0.219177,9.50184,15,0.0144551,10,0.00208259,-2.02219,-0.331535,-0.17796,-66.1053,0.2191771,
2,1,0,1,0,28773.5,0.229531,0.229224,8.93628,15,0.0149155,10,0.00204841,-2.04884,-0.427175,-0.138117,-48.1937,0.229224,
2,1,0,1,0,28773.5,0.23951,0.239181,8.53209,15,0.015351,10,0.00204071,-2.06894,-0.576268,-0.102383,-34.1259,0.239181,
2,1,0,1,0,28773.6,0.249498,0.249141,8.23872,15,0.015769,10,0.0020526,-2.08414,-0.685888,-0.0860199,-27.6359,0.249141,
2,1,0,1,0,28773.6,0.259495,0.25919,8.00306,15,0.0161748,10,0.00207431,-2.09674,-0.746007,-0.0790878,-24.7125,0.25919,
2,1,0,1,0,28773.7,0.269474,0.26918,7.81984,15,0.0165693,10,0.00210495,-2.1068,-1.07646,-0.0548094,-16.7207,0.26918,
2,1,0,1,0,28773.7,0.279453,0.279156,7.65561,15,0.0169553,10,0.00213711,-2.11602,-1.31394,-0.044903,-13.4305,0.279156,
2,1,0,1,0,28773.8,0.28945,0.289121,7.51836,15,0.0173346,10,0.00217371,-2.12388,-1.46861,-0.0401739,-11.7814,0.289121,
2,1,0,1,0,28773.8,0.299438,0.299105,7.39277,15,0.0177065,10,0.00221121,-2.13119,-0.0668909,-0.882033,-245.364,0.299105,
2,1,0,1,0,28773.9,0.291747,0.291426,0.680829,15,0.0178585,10,0.000198411,-3.16696,0.00207933,28.3746,395.198,0.291426,
2,0,0,1,0,28773.9,0.28175,0.281424,-1.72674,15,0.0178224,10,-0.000485946,-2.76277,-0.0256574,-2.29953,151.45,0.281424,
2,0,0,1,0,28774,0.27178,0.271452,-2.80598,15,0.0177067,10,-0.00076169,-2.55191,-0.0777663,-0.758684,82.4002,0.271452,
2,0,0,1,0,28774,0.261783,0.261475,-3.44301,15,0.0175494,10,-0.000900264,-2.46306,-0.155326,-0.379846,51.0086,0.261475,
2,0,0,1,0,28774.1,0.251786,0.251449,-3.91016,15,0.017365,10,-0.000983205,-2.4078,-0.225326,-0.261843,39.858,0.251449,
2,0,0,1,0,28774.1,0.241807,0.241476,-4.26385,15,0.0171605,10,-0.00102962,-2.3702,-0.27613,-0.213668,35.7254,0.241476,
2,0,0,1,0,28774.2,0.231824,0.231487,-4.59968,15,0.0169392,10,-0.00106476,-2.33727,-0.343808,-0.171608,30.7087,0.231487,
2,0,0,1,0,28774.2,0.221822,0.221539,-4.86804,15,0.0167026,10,-0.00107846,-2.31265,-0.407176,-0.1449,27.534,0.221539,
2,0,0,1,0,28774.3,0.211844,0.211504,-5.1353,15,0.0164529,10,-0.00108614,-2.28943,-0.472182,-0.124952,25,0.211504,
2,0,0,1,0,28774.3,0.201865,0.201511,-5.3883,15,0.0161903,10,-0.0010858,-2.26855,-0.503559,-0.117166,24.6665,0.201511,
2,0,0,1,0,28774.4,0.191868,0.191553,-5.65406,15,0.0159142,10,-0.00108306,-2.24764,-0.45844,-0.128697,28.3956,0.191553,
2,0,0,1,0,28774.4,0.18188,0.181562,-5.94708,15,0.0156249,10,-0.00107977,-2.2257,-0.410169,-0.143843,33.368,0.181562,
2,0,0,1,0,28774.5,0.171901,0.171594,-6.28456,15,0.0153202,10,-0.00107839,-2.20173,-0.392854,-0.150183,36.7838,0.171594,
2,0,0,1,0,28774.5,0.161904,0.161533,-6.71067,15,0.0149959,10,-0.001084,-2.17323,-0.306098,-0.192749,50.5596,0.1615334,
2,0,0,1,0,28774.6,0.151907,0.151574,-7.34358,15,0.0146454,10,-0.0011131,-2.13409,-0.221024,-0.26694,76.5427,0.151574,
2,0,0,1,0,28774.6,0.141928,0.141626,-8.35005,15,0.0142558,10,-0.00118259,-2.07831,-0.147234,-0.400723,130.895,0.141626,
2,0,0,1,0,28774.7,0.13194,0.131593,-9.96315,15,0.0138013,10,-0.00131108,-2.0016,-0.121326,-0.486292,189.024,0.1315932,
2,0,0,1,0,28774.7,0.121943,0.12163,-11.9929,15,0.0132531,10,-0.0014587,-1.92108,-0.135881,-0.434204,203.141,0.12163,
2,0,0,1,0,28774.8,0.111964,0.111639,-13.9794,15,0.0126044,10,-0.00156065,-1.85451,-0.176915,-0.333493,181.667,0.111639,
2,0,0,1,0,28774.8,0.101985,0.10168,-15.6077,15,0.0118643,10,-0.00158699,-1.80666,-0.257781,-0.228877,139.405,0.10168,
2,0,0,1,0,28774.9,0.0919883,0.0916825,-16.776,15,0.0110523,10,-0.00153806,-1.77531,-0.407629,-0.144739,94.6796,0.0916825,
2,0,0,1,0,28774.9,0.0820004,0.0816714,-17.3543,15,0.0101977,10,-0.00141735,-1.76059,-1.65191,-0.0357162,24.18,0.0816714,
2,0,0,1,0,28775,0.0720215,0.0716824,-17.315,15,0.00933065,10,-0.00124118,-1.76158,1.38766,0.0425177,-28.7012,0.0716824,
2,0,0,1,0,28775,0.0620245,0.0616755,-16.9116,15,0.00847438,10,-0.00104303,-1.77182,0.845838,0.0697533,-46.0777,0.0616755,
2,0,0,1,0,28775.1,0.0520275,0.0516963,-16.5097,15,0.00763911,10,-0.000853491,-1.78226,0.945895,0.0623748,-40.1527,0.0516963,
2,0,0,1,0,28775.1,0.0420486,0.0417344,-16.1061,15,0.00682529,10,-0.000672179,-1.79301,1.02172,0.0577455,-36.3473,0.0417344,
2,0,0,1,0,28775.2,0.0320607,0.0317127,-15.7277,15,0.00603079,10,-0.000498769,-1.80333,0.830486,0.0710427,-43.5443,0.0317127,
2,0,0,1,0,28775.2,0.0220637,0.0217422,-15.2374,15,0.00525645,10,-0.000331294,-1.81709,0.66649,0.0885234,-52.6661,0.0217422,
2,0,0,1,0,28775.3,0.0120848,0.0117363,-14.653,15,0.00451025,10,-0.000171972,-1.83407,0.489816,0.120453,-68.8109,0.01173627,
2,0,0,1,0,28775.3,0.00210598,0.0017257,-13.9862,15,0.00379683,10,-2.4136e-05,-1.8543,0.525977,0.112172,-61.1254,0.0017257,
2,0,0,1,0,28775.4,-0.00789103,-0.00823702,-13.3082,15,0.00311512,10,0.00010962,-1.87588,0.539137,0.109434,-56.8419,-0.008237021,
2,0,0,1,0,28775.4,-0.017879,-0.0182714,-12.828,15,0.00246387,10,0.000234386,-1.89184,0.849881,0.0694215,-34.7643,-0.0182714,
2,0,0,1,0,28775.5,-0.0278578,-0.0282232,-12.5483,15,0.00183154,10,0.000354153,-1.90142,1.34087,0.0440014,-21.5558,-0.0282232,
2,0,0,1,0,28775.5,-0.0378548,-0.0382111,-12.4564,15,0.00120698,10,0.000475974,-1.90461,8.22931,0.00716949,-3.48769,-0.03821107,
2,0,0,1,0,28775.6,-0.0478519,-0.0482215,-12.5149,15,0.000583103,10,0.000603486,-1.90257,-1.87139,-0.0315274,15.4033,-0.0482215,
2,0,0,1,0,28775.6,-0.0578126,-0.0581955,-12.6925,15,-4.43151e-05,10,0.000738647,-1.89645,-1.31691,-0.0448017,22.2037,-0.0581955,
2,0,0,1,0,28775.7,-0.0678187,-0.0682007,-12.9775,15,-0.000685557,10,0.000885076,-1.88681,-0.894482,-0.06596,33.3768,-0.0682007,
2,0,0,1,0,28775.7,-0.0778157,-0.0782259,-13.3301,15,-0.00134295,10,0.00104276,-1.87517,-0.769482,-0.0766749,39.925,-0.0782259,
2,0,0,1,0,28775.8,-0.0877945,-0.08817,-13.8135,15,-0.00201986,10,0.00121793,-1.8597,-0.623837,-0.094576,50.9497,-0.08817,
2,0,0,1,0,28775.8,-0.0977734,-0.0981513,-14.3562,15,-0.00272249,10,0.00140908,-1.84296,-0.532596,-0.110778,62.129,-0.0981513,
2,0,0,1,1,28775.9,-0.0936874,-0.094095,-6.97344,15,-0.00320223,10,0.000656166,-2.15655,-0.0195759,-3.0139,819.774,-0.094095,
2,0,0,1,1,28775.9,-0.0837086,-0.0841048,-0.961709,15,-0.00338506,10,8.08843e-05,-3.01696,-0.00286705,-20.5786,466.208,-0.0841048,
2,1,0,1,1,28776,-0.0737025,-0.074103,2.71391,15,-0.00333411,10,-0.000201109,-2.56641,0.0206039,2.86353,294.902,-0.074103,
2,1,0,1,1,28776,-0.0637236,-0.0640738,5.15143,15,-0.00313382,10,-0.000330072,-2.28807,0.0599297,0.984487,197.209,-0.0640738,
2,1,0,1,1,28776.1,-0.0537447,-0.054077,6.82399,15,-0.00283213,10,-0.000369021,-2.16596,0.115685,0.510006,135.356,-0.05407697,
2,1,0,1,1,28776.1,-0.0437477,-0.044142,7.94738,15,-0.00246076,10,-0.000350813,-2.09978,0.20119,0.293254,90.9294,-0.044142,
2,1,0,1,1,28776.2,-0.0337507,-0.0341298,8.70874,15,-0.00204282,10,-0.000297228,-2.06004,0.340877,0.173083,58.7588,-0.0341298,
2,1,0,1,1,28776.2,-0.0237809,-0.0241793,9.18022,15,-0.00159644,10,-0.000221971,-2.03715,0.552499,0.106787,38.2644,-0.0241793,
2,1,0,1,1,28776.3,-0.0137839,-0.0141255,9.46661,15,-0.0011295,10,-0.00013372,-2.02381,1.19108,0.0495349,18.2864,-0.0141255,
2,1,0,1,1,28776.3,-0.0037869,-0.00415146,9.62138,15,-0.000651835,10,-3.99428e-05,-2.01676,2.0223,0.0291747,10.96,-0.00415146,
2,1,0,1,1,28776.3,-2.55332e-05,-0.000401673,9.64525,15,-0.000471486,10,-3.87424e-06,-2.01569, , , ,-0.000401673,