Folder: Figs_alphaMnO2_OER_Tafel_sleope/Figure_codes/Fig_3-5/rawdata_trumpetplot_data/after 10th (part 42)

File: 20221101_1-115_003_TrumpetPlot_ParaChange_from10_every3_04_CV_C01_12.csv
mode,ox/red,error,control changes,counter inc.,time/s,control/V,Ewe/V,<I>/mA,cycle number,(Q-Qo)/C,I Range,P/W,log(|I|),Tafel slope mV/dec,alpha_eff,dI/d(E-IR),E-IR/V,
2,0,0,1,0,24701.6,2.44065e-05,-0.000268062,-0.398329,13,0.0000000E+000,10,1.06777e-07,-3.39976, , , ,-0.000268062,
2,1,0,1,0,24702.3,0.00729063,0.006983,0.369114,13,0.000196297,10,2.57752e-06,-3.43284,0.0645809,0.913583,12.9687,0.006982998,
2,1,0,1,0,24703.1,0.0147814,0.0144946,0.440921,13,0.000514635,10,6.39098e-06,-3.35564,0.119456,0.493907,8.50726,0.0144946,
2,1,0,1,0,24703.8,0.0222725,0.0219687,0.49685,13,0.000880302,10,1.09151e-05,-3.30377,0.165432,0.356641,6.91161,0.0219687,
2,1,0,1,0,24704.6,0.0297635,0.0294413,0.552905,13,0.00128651,10,1.62782e-05,-3.25735,0.185973,0.317251,6.82344,0.0294413,
2,1,0,1,0,24705.3,0.0372544,0.0369172,0.603875,13,0.00173233,10,2.22934e-05,-3.21905,0.203414,0.290049,6.8425,0.0369172,
2,1,0,1,0,24706.1,0.0447458,0.0444392,0.657232,13,0.00221796,10,2.92068e-05,-3.18228,0.23042,0.256054,6.56831,0.0444392,
2,1,0,1,0,24706.8,0.0522363,0.0519071,0.701232,13,0.00274081,10,3.63989e-05,-3.15414,0.233339,0.252851,6.93438,0.0519071,
2,1,0,1,0,24707.6,0.0597282,0.0594189,0.747918,13,0.00329757,10,4.44405e-05,-3.12615,0.28869,0.204371,5.95185,0.0594189,
2,1,0,1,0,24708.3,0.0672182,0.066896,0.789154,13,0.0038856,10,5.27912e-05,-3.10284,0.397005,0.148613,4.5623,0.066896,
2,1,0,1,0,24709,0.0747092,0.0743591,0.818148,13,0.0045003,10,6.08367e-05,-3.08717,0.486193,0.121351,3.88035,0.0743591,
2,1,0,1,0,24709.8,0.0822001,0.0818636,0.84504,13,0.00513795,10,6.9178e-05,-3.07312,0.521984,0.11303,3.7453,0.0818636,
2,1,0,1,0,24710.5,0.0896911,0.0893766,0.884318,13,0.00579906,10,7.90373e-05,-3.05339,0.296237,0.199165,6.89143,0.0893766,
2,1,0,1,0,24711.3,0.097182,0.0968631,0.945321,13,0.00649712,10,9.15667e-05,-3.02442,0.190937,0.309002,11.3972,0.0968631,
2,1,0,1,0,24712,0.104673,0.104372,1.03466,13,0.00725006,10,0.000107989,-2.9852,0.194348,0.303579,12.2096,0.1043718,
2,1,0,1,0,24712.8,0.112164,0.111844,1.11241,13,0.00806773,10,0.000124416,-2.95374,0.308446,0.191282,8.28018,0.111844,
2,1,0,1,0,24713.5,0.119655,0.119328,1.16662,13,0.00893629,10,0.000139211,-2.93307,0.590857,0.099855,4.55033,0.119328,
2,1,0,1,0,24714.3,0.127146,0.126816,1.20306,13,0.00983974,10,0.000152567,-2.91971,0.538794,0.109504,5.16685,0.126816,
2,1,0,1,0,24715,0.134637,0.134299,1.22497,13,0.010769,10,0.000164512,-2.91187,-0.76178,-0.0774502,-3.69733,0.134299,
2,1,0,1,0,24715.8,0.142127,0.141852,1.12898,13,0.0116742,10,0.000160148,-2.94731,-0.120519,-0.48955,-21.4593,0.141852,
2,1,0,1,0,24716.5,0.149619,0.149319,0.918472,13,0.0124575,10,0.000137146,-3.03693,-0.0719748,-0.819731,-29.3794,0.149319,
2,1,0,1,0,24717.3,0.157109,0.156758,0.735945,13,0.0130836,10,0.000115365,-3.13315,-0.0935787,-0.630485,-18.1455,0.156758,
2,1,0,1,0,24718,0.164601,0.164277,0.644725,13,0.0136089,10,0.000105914,-3.19063,-0.164524,-0.358611,-9.02899,0.164277,
2,1,0,1,0,24718.8,0.172091,0.171766,0.594623,13,0.0140844,10,0.000102136,-3.22576,-0.291402,-0.202469,-4.72126,0.171766,
2,1,0,1,0,24719.5,0.179582,0.179303,0.569941,13,0.0145331,10,0.000102192,-3.24417,-0.423491,-0.139318,-3.10734,0.179303,
2,1,0,1,0,24720.3,0.187074,0.186776,0.554177,13,0.0149667,10,0.000103507,-3.25635,-0.896971,-0.0657769,-1.42173,0.186776,
2,1,0,1,0,24721,0.194564,0.194224,0.543251,13,0.0153903,10,0.000105513,-3.265,-1.12371,-0.0525045,-1.11416,0.194224,
2,1,0,1,0,24721.8,0.202056,0.201759,0.535852,13,0.0158065,10,0.000108113,-3.27096,-0.999869,-0.0590077,-1.2312,0.201759,
2,1,0,1,0,24722.5,0.209546,0.209275,0.527033,13,0.0162172,10,0.000110295,-3.27816,-0.692305,-0.0852226,-1.75665,0.209275,
2,1,0,1,0,24723.3,0.217038,0.21672,0.522487,13,0.0166227,10,0.000113234,-3.28192,-11.3104,-0.00521642,-0.10657,0.21672,
2,1,0,1,0,24724,0.224528,0.224218,0.516358,13,0.0170242,10,0.000115777,-3.28705,-2.16157,-0.027295,-0.550338,0.224218,
2,1,0,1,0,24724.8,0.232019,0.231718,0.51305,13,0.0174218,10,0.000118883,-3.28984,-2.16295,-0.0272775,-0.544859,0.231718,
2,1,0,1,0,24725.5,0.23951,0.239217,0.507533,13,0.0178163,10,0.000121411,-3.29454,-2.35912,-0.0250093,-0.49504,0.239217,
2,1,0,1,0,24726.3,0.247001,0.246705,0.502722,13,0.0182073,10,0.000124024,-3.29867,-1.28147,-0.0460408,-0.903023,0.246705,
2,1,0,1,0,24727,0.254492,0.254191,0.499035,13,0.0185951,10,0.00012685,-3.30187,-2.13123,-0.0276835,-0.540112,0.254191,
2,1,0,1,0,24727.8,0.261983,0.261681,0.495175,13,0.0189796,10,0.000129578,-3.30524,-1.78513,-0.0330509,-0.638718,0.261681,
2,1,0,1,0,24728.5,0.269474,0.269192,0.491771,13,0.0193613,10,0.000132381,-3.30824,-9.36568,-0.0062996,-0.120602,0.269192,
2,1,0,1,0,24729.3,0.276965,0.27666,0.485255,13,0.0197399,10,0.000134251,-3.31403,-0.985594,-0.0598624,-1.13616,0.27666,
2,1,0,1,0,24730,0.284456,0.284175,0.483179,13,0.0201151,10,0.000137308,-3.31589,-7.04526,-0.00837442,-0.157847,0.2841754,
2,1,0,1,0,24730.8,0.291947,0.291616,0.477019,13,0.0204869,10,0.000139106,-3.32146,-1.18669,-0.0497179,-0.926786,0.291616,
2,1,0,1,0,24731.5,0.299437,0.299115,0.471347,13,0.0208556,10,0.000140987,-3.32666,-0.0022262,-26.5025,-223.467,0.299115,
2,0,0,1,0,24732.2,0.293745,0.293401,-0.077451,13,0.0208692,10,-2.27242e-05,-4.11097,-0.0154988,-3.80676,10.5484,0.293401,
2,0,0,1,0,24733,0.286253,0.285942,-0.133642,13,0.020776,10,-3.82139e-05,-3.87406,-0.0577861,-1.02101,5.2692,0.285942,
2,0,0,1,0,24733.7,0.278763,0.278428,-0.167968,13,0.0206503,10,-4.67669e-05,-3.77477,-0.0941014,-0.626983,4.08767,0.278428,
2,0,0,1,0,24734.5,0.271272,0.270926,-0.19565,13,0.0205014,10,-5.30065e-05,-3.70852,-0.152571,-0.386706,2.94967,0.270926,
2,0,0,1,0,24735.2,0.263781,0.263449,-0.218338,13,0.0203333,10,-5.75208e-05,-3.66087,-0.137639,-0.428658,3.66485,0.263449,
2,0,0,1,0,24736,0.25629,0.255987,-0.239477,13,0.0201489,10,-6.13029e-05,-3.62074,-0.249623,-0.236357,2.19916,0.2559866,
2,0,0,1,0,24736.7,0.248799,0.24847,-0.256977,13,0.0199505,10,-6.38512e-05,-3.59011,-0.322856,-0.182744,1.83241,0.24847,
2,0,0,1,0,24737.5,0.241308,0.241067,-0.273031,13,0.0197394,10,-6.58186e-05,-3.56379,-0.314253,-0.187747,1.99986,0.241067,
2,0,0,1,0,24738.2,0.233817,0.233561,-0.288048,13,0.0195161,10,-6.72769e-05,-3.54053,-0.283341,-0.20823,2.34773,0.233561,
2,0,0,1,0,24738.9,0.226326,0.22601,-0.303122,13,0.0192814,10,-6.85085e-05,-3.51838,-0.394231,-0.149658,1.77495,0.22601,
2,0,0,1,0,24739.7,0.218835,0.218536,-0.321216,13,0.0190355,10,-7.01973e-05,-3.4932,-0.309931,-0.190365,2.37189,0.218536,
2,0,0,1,0,24740.4,0.211344,0.21102,-0.333825,13,0.0187784,10,-7.04437e-05,-3.47648,-0.504224,-0.117011,1.5195,0.21102,
2,0,0,1,0,24741.2,0.203854,0.203568,-0.348083,13,0.0185096,10,-7.08586e-05,-3.45832,-0.507462,-0.116265,1.58336,0.203568,
2,0,0,1,0,24741.9,0.196362,0.196017,-0.364443,13,0.0182293,10,-7.14371e-05,-3.43837,-0.390729,-0.151,2.15129,0.196017,
2,0,0,1,0,24742.7,0.188872,0.188562,-0.382676,13,0.0179362,10,-7.21582e-05,-3.41717,-0.286584,-0.205873,3.0804,0.188562,
2,0,0,1,0,24743.4,0.18138,0.181071,-0.405823,13,0.0176286,10,-7.34828e-05,-3.39166,-0.332043,-0.177688,2.80642,0.181071,
2,0,0,1,0,24744.2,0.17389,0.173536,-0.430313,13,0.0173041,10,-7.46747e-05,-3.36622,-0.289972,-0.203468,3.40134,0.173536,
2,0,0,1,0,24744.9,0.166398,0.166087,-0.462551,13,0.0169578,10,-7.68239e-05,-3.33484,-0.237141,-0.248797,4.4966,0.166087,
2,0,0,1,0,24745.7,0.158907,0.158559,-0.508691,13,0.0165817,10,-8.06577e-05,-3.29355,-0.154261,-0.382468,7.63817,0.158559,
2,0,0,1,0,24746.4,0.151417,0.151083,-0.587631,13,0.0161599,10,-8.87809e-05,-3.2309,-0.108734,-0.542609,12.4637,0.151083,
2,0,0,1,0,24747.2,0.143925,0.143619,-0.715805,13,0.0156626,10,-0.000102803,-3.14521,-0.0709039,-0.832112,23.2657,0.143619,
2,0,0,1,0,24747.9,0.136435,0.136091,-0.903895,13,0.0150447,10,-0.000123012,-3.04388,-0.0784469,-0.752101,26.4818,0.136091,
2,0,0,1,0,24748.7,0.128943,0.128621,-1.09181,13,0.0142815,10,-0.000140429,-2.96185,-0.11887,-0.496339,21.0415,0.128621,
2,0,0,1,0,24749.4,0.121453,0.121146,-1.21282,13,0.0133999,10,-0.000146929,-2.9162,-0.28714,-0.205474,9.69097,0.121146,
2,0,0,1,0,24750.2,0.113962,0.113668,-1.24578,13,0.0124597,10,-0.000141605,-2.90456,4.87849,0.0120939,-0.587714,0.113668,
2,0,0,1,0,24750.9,0.106471,0.106144,-1.22534,13,0.0115164,10,-0.000130063,-2.91174,0.614175,0.0960639,-4.60771,0.106144,
2,0,0,1,0,24751.7,0.0989799,0.0986774,-1.18468,13,0.0105988,10,-0.000116901,-2.9264,0.534955,0.11029,-5.09458,0.0986774,
2,0,0,1,0,24752.4,0.0914889,0.0911729,-1.1411,13,0.00971516,10,-0.000104038,-2.94268,0.497444,0.118606,-5.27754,0.0911729,
2,0,0,1,0,24753.2,0.083998,0.083661,-1.09744,13,0.00886404,10,-9.18129e-05,-2.95962,0.39306,0.150104,-6.42518,0.083661,
2,0,0,1,0,24753.9,0.076507,0.0761438,-1.06035,13,0.00804231,10,-8.07388e-05,-2.97455,0.452953,0.130256,-5.38456,0.0761438,
2,0,0,1,0,24754.7,0.0690161,0.0687209,-1.02431,13,0.0072475,10,-7.03912e-05,-2.98957,0.512731,0.11507,-4.61249,0.0687209,
2,0,0,1,0,24755.4,0.0615251,0.0612345,-0.993334,13,0.00647681,10,-6.08263e-05,-3.0029,0.56894,0.103702,-4.03003,0.0612345,
2,0,0,1,0,24756.2,0.0540342,0.0537427,-0.963767,13,0.00573005,10,-5.17954e-05,-3.01603,0.604569,0.0975902,-3.66626,0.0537427,
2,0,0,1,0,24756.9,0.0465441,0.0461964,-0.928628,13,0.00500824,10,-4.28993e-05,-3.03216,0.513564,0.114883,-4.16526,0.0461964,
2,0,0,1,0,24757.7,0.0390523,0.038722,-0.893495,13,0.00431283,10,-3.45979e-05,-3.04891,0.331827,0.177804,-6.19112,0.038722,
2,0,0,1,0,24758.4,0.0315618,0.0312529,-0.857566,13,0.00364417,10,-2.68014e-05,-3.06673,0.427756,0.137929,-4.6188,0.0312529,
2,0,0,1,0,24759.2,0.0240704,0.0237533,-0.822819,13,0.0030009,10,-1.95447e-05,-3.0847,0.439565,0.134223,-4.32282,0.0237533,
2,0,0,1,0,24759.9,0.0165796,0.0162478,-0.79927,13,0.00238025,10,-1.29864e-05,-3.09731,0.864102,0.068279,-2.13119,0.0162478,
2,0,0,1,0,24760.7,0.00908846,0.00881326,-0.781547,13,0.00177554,10,-6.88798e-06,-3.10704,1.50293,0.0392567,-1.19986,0.00881326,
2,0,0,1,0,24761.4,0.00159728,0.00122599,-0.785296,13,0.00117776,10,-9.62764e-07,-3.10497, , , ,0.00122599,
2,0,0,1,0,24761.6,0.000199195,-0.000193621,-0.777234,13,0.00106604,10,1.50489e-07,-3.10945, , , ,-0.000193621,

File: 20221101_1-115_003_TrumpetPlot_ParaChange_from10_every3_04_CV_C01_13.csv
mode,ox/red,error,control changes,counter inc.,time/s,control/V,Ewe/V,<I>/mA,cycle number,(Q-Qo)/C,I Range,P/W,log(|I|),Tafel slope mV/dec,alpha_eff,dI/d(E-IR),E-IR/V,
2,0,0,1,0,26671.7,2.44065e-05,-0.000325324,-0.381156,14,0.0000000E+000,10,1.23999e-07,-3.4189, , , ,-0.000325324,
2,1,0,1,0,26672.4,0.00729063,0.00700103,0.372901,14,0.000199422,10,2.61069e-06,-3.42841,0.0660242,0.893612,12.8166,0.00700103,
2,1,0,1,0,26673.2,0.0147814,0.0144554,0.445388,14,0.000520504,10,6.43828e-06,-3.35126,0.118179,0.499242,8.64626,0.0144554,
2,1,0,1,0,26673.9,0.0222725,0.0219655,0.500993,14,0.000888021,10,1.10046e-05,-3.30017,0.167797,0.351616,6.87162,0.0219655,
2,1,0,1,0,26674.7,0.0297635,0.0294403,0.554231,14,0.00129593,10,1.63167e-05,-3.25631,0.183575,0.321395,6.93917,0.0294403,
2,1,0,1,0,26675.4,0.0372544,0.0368653,0.607243,14,0.00174321,10,2.23862e-05,-3.21664,0.207931,0.283748,6.725,0.0368653,
2,1,0,1,0,26676.2,0.0447458,0.0444109,0.660058,14,0.00223037,10,2.93138e-05,-3.18042,0.222705,0.264924,6.82009,0.0444109,
2,1,0,1,0,26676.9,0.0522363,0.0518711,0.704206,14,0.00275435,10,3.65279e-05,-3.1523,0.234529,0.251568,6.91988,0.0518711,
2,1,0,1,0,26677.7,0.0597282,0.0594116,0.750144,14,0.0033124,10,4.45673e-05,-3.12486,0.273796,0.215489,6.30281,0.05941163,
2,1,0,1,0,26678.4,0.0672182,0.0669055,0.789431,14,0.00390179,10,5.28173e-05,-3.10269,0.391722,0.150617,4.61781,0.0669055,
2,1,0,1,0,26679.2,0.0747092,0.0744132,0.820926,14,0.0045176,10,6.10878e-05,-3.0857,0.505025,0.116826,3.74378,0.0744132,
2,1,0,1,0,26679.9,0.0822001,0.0818816,0.847071,14,0.00515576,10,6.93596e-05,-3.07208,0.462755,0.127497,4.22581,0.0818816,
2,1,0,1,0,26680.7,0.0896911,0.0893861,0.886479,14,0.00581758,10,7.92389e-05,-3.05233,0.288163,0.204745,7.09898,0.0893861,
2,1,0,1,0,26681.4,0.097182,0.0968546,0.947358,14,0.00651623,10,9.1756e-05,-3.02349,0.198303,0.297525,10.9863,0.0968546,
2,1,0,1,0,26682.2,0.104673,0.104395,1.03594,14,0.00727024,10,0.000108147,-2.98466,0.19005,0.310445,12.5061,0.104395,
2,1,0,1,0,26682.9,0.112164,0.111892,1.11251,14,0.0080889,10,0.000124481,-2.9537,0.302053,0.19533,8.469,0.111892,
2,1,0,1,0,26683.7,0.119655,0.119315,1.16955,14,0.00895865,10,0.000139545,-2.93198,0.608001,0.0970394,4.42729,0.119315,
2,1,0,1,0,26684.4,0.127146,0.126825,1.20568,14,0.00986294,10,0.00015291,-2.91877,0.611536,0.0964784,4.55113,0.126825,
2,1,0,1,0,26685.2,0.134637,0.134258,1.22647,14,0.0107923,10,0.000164664,-2.91134,-0.669454,-0.0881315,-4.20809,0.134258,
2,1,0,1,0,26685.9,0.142127,0.141816,1.12683,14,0.0116963,10,0.000159802,-2.94814,-0.116715,-0.505507,-22.1287,0.141816,
2,1,0,1,0,26686.7,0.149619,0.149307,0.910919,14,0.0124763,10,0.000136006,-3.04052,-0.0693333,-0.850962,-30.2884,0.149307,
2,1,0,1,0,26687.4,0.157109,0.156778,0.728236,14,0.0130976,10,0.000114171,-3.13773,-0.0917762,-0.642868,-18.3615,0.156778,
2,1,0,1,0,26688.2,0.164601,0.164306,0.638683,14,0.0136184,10,0.000104939,-3.19471,-0.17692,-0.333484,-8.3135,0.164306,
2,1,0,1,0,26688.9,0.172091,0.171763,0.590992,14,0.0140904,10,0.000101511,-3.22842,-0.324928,-0.181579,-4.21285,0.171763,
2,1,0,1,0,26689.7,0.179582,0.179277,0.566461,14,0.0145366,10,0.000101553,-3.24683,-0.445654,-0.13239,-2.93585,0.179277,
2,1,0,1,0,26690.4,0.187074,0.186765,0.554585,14,0.0149681,10,0.000103577,-3.25603,-1.82479,-0.0323325,-0.697554,0.186765,
2,1,0,1,0,26691.2,0.194564,0.194221,0.54339,14,0.01539,10,0.000105538,-3.26489,-0.86,-0.0686047,-1.45278,0.194221,
2,1,0,1,0,26691.9,0.202056,0.201749,0.535564,14,0.0158049,10,0.000108049,-3.27119,-0.99012,-0.0595887,-1.23971,0.201749,
2,1,0,1,0,26692.7,0.209546,0.209231,0.526862,14,0.0162146,10,0.000110236,-3.2783,-0.669018,-0.088189,-1.81434,0.209231,
2,1,0,1,0,26693.4,0.217038,0.216727,0.519942,14,0.0166192,10,0.000112685,-3.28405,-1.29041,-0.045722,-0.931915,0.216727,
2,1,0,1,0,26694.2,0.224528,0.224259,0.516476,14,0.0170199,10,0.000115825,-3.28695,-1.2983,-0.0454442,-0.913522,0.224259,
2,1,0,1,0,26694.9,0.232019,0.231684,0.511297,14,0.0174168,10,0.000118459,-3.29133,-2.29516,-0.0257063,-0.512979,0.231684,
2,1,0,1,0,26695.7,0.23951,0.239237,0.507121,14,0.0178107,10,0.000121322,-3.29489,-2.06329,-0.0285951,-0.565525,0.239237,
2,1,0,1,0,26696.4,0.247001,0.246714,0.502852,14,0.0182013,10,0.000124061,-3.29856,-1.17561,-0.0501868,-0.985384,0.2467144,
2,1,0,1,0,26697.2,0.254492,0.254167,0.499942,14,0.0185891,10,0.000127069,-3.30108,-0.987498,-0.059747,-1.16596,0.254167,
2,1,0,1,0,26697.9,0.261983,0.261681,0.49567,14,0.0189737,10,0.000129707,-3.30481,-1.9592,-0.0301143,-0.581861,0.261681,
2,1,0,1,0,26698.7,0.269474,0.269151,0.490496,14,0.0193553,10,0.000132017,-3.30936,-5.92603,-0.00995608,-0.19084,0.2691505,
2,1,0,1,0,26699.4,0.276965,0.276624,0.486974,14,0.0197339,10,0.000134709,-3.31249,-1.18404,-0.0498294,-0.946831,0.276624,
2,1,0,1,0,26700.2,0.284456,0.284136,0.484221,14,0.0201095,10,0.000137585,-3.31496,-1.79176,-0.0329286,-0.621529,0.284136,
2,1,0,1,0,26700.9,0.291947,0.291649,0.477917,14,0.0204816,10,0.000139384,-3.32065,-1.18203,-0.0499142,-0.932827,0.291649,
2,1,0,1,0,26701.7,0.299437,0.299146,0.471953,14,0.0208505,10,0.000141183,-3.3261,-0.00222933,-26.4654,-220.907,0.299146,
2,0,0,1,0,26702.3,0.293745,0.293439,-0.0800599,14,0.0208627,10,-2.34927e-05,-4.09659,-0.0170543,-3.45954,10.1181,0.293439,
2,0,0,1,0,26703.1,0.286253,0.285921,-0.13367,14,0.0207678,10,-3.8219e-05,-3.87397,-0.0555069,-1.06293,5.59736,0.285921,
2,0,0,1,0,26703.8,0.278763,0.278442,-0.170238,14,0.0206405,10,-4.74014e-05,-3.76894,-0.0995645,-0.592581,3.92449,0.278442,
2,0,0,1,0,26704.6,0.271272,0.270913,-0.197826,14,0.0204901,10,-5.35936e-05,-3.70372,-0.134055,-0.440117,3.38969,0.270913,
2,0,0,1,0,26705.3,0.263781,0.263469,-0.220744,14,0.0203205,10,-5.81591e-05,-3.65611,-0.165501,-0.356493,3.07445,0.2634688,
2,0,0,1,0,26706.1,0.25629,0.255965,-0.24228,14,0.0201347,10,-6.20154e-05,-3.61568,-0.33705,-0.175048,1.63616,0.255965,
2,0,0,1,0,26706.8,0.248799,0.248465,-0.25801,14,0.0199351,10,-6.41066e-05,-3.58836,-0.262227,-0.224996,2.27355,0.248465,
2,0,0,1,0,26707.6,0.241308,0.241042,-0.276276,14,0.0197226,10,-6.65941e-05,-3.55866,-0.368128,-0.16027,1.72418,0.2410423,
2,0,0,1,0,26708.3,0.233817,0.233488,-0.2898,14,0.0194984,10,-6.76649e-05,-3.5379,-0.323799,-0.182212,2.06199,0.233488,
2,0,0,1,0,26709.1,0.226326,0.226027,-0.304382,14,0.0192626,10,-6.87985e-05,-3.51658,-0.290482,-0.203111,2.42073,0.226027,
2,0,0,1,0,26709.8,0.218835,0.218535,-0.319953,14,0.0190154,10,-6.99209e-05,-3.49491,-0.346034,-0.170504,2.12724,0.218535,
2,0,0,1,0,26710.6,0.211344,0.211036,-0.336289,14,0.0187571,10,-7.09692e-05,-3.47329,-0.553945,-0.106509,1.39657,0.211036,
2,0,0,1,0,26711.3,0.203854,0.203483,-0.348662,14,0.0184873,10,-7.09469e-05,-3.4576,-0.409949,-0.14392,1.97329,0.203483,
2,0,0,1,0,26712.1,0.196362,0.196032,-0.3683,14,0.0182058,10,-7.21987e-05,-3.4338,-0.383982,-0.153653,2.20815,0.196032,
2,0,0,1,0,26712.8,0.188872,0.188526,-0.385107,14,0.0179116,10,-7.26028e-05,-3.41442,-0.250968,-0.23509,3.52819,0.188526,
2,0,0,1,0,26713.6,0.18138,0.181064,-0.406073,14,0.0176033,10,-7.35251e-05,-3.3914,-0.273169,-0.215984,3.41724,0.181064,
2,0,0,1,0,26714.3,0.17389,0.173572,-0.429721,14,0.017278,10,-7.45874e-05,-3.36681,-0.255834,-0.230618,3.86638,0.173572,
2,0,0,1,0,26715.1,0.166398,0.166049,-0.462919,14,0.0169311,10,-7.68673e-05,-3.3345,-0.25037,-0.235652,4.27249,0.166049,
2,0,0,1,0,26715.8,0.158907,0.158599,-0.509301,14,0.0165543,10,-8.07748e-05,-3.29303,-0.14904,-0.395868,7.91216,0.158599,
2,0,0,1,0,26716.6,0.151417,0.151074,-0.587225,14,0.0161324,10,-8.87145e-05,-3.2312,-0.10329,-0.571205,13.1398,0.151074,
2,0,0,1,0,26717.3,0.143925,0.143568,-0.715124,14,0.0156355,10,-0.000102669,-3.14562,-0.0709722,-0.831312,23.1833,0.143568,
2,0,0,1,0,26718.1,0.136435,0.13611,-0.90153,14,0.0150188,10,-0.000122707,-3.04502,-0.0790524,-0.74634,26.2312,0.13611,
2,0,0,1,0,26718.8,0.128943,0.128607,-1.08924,14,0.0142578,10,-0.000140084,-2.96288,-0.115761,-0.509673,21.5506,0.1286066,
2,0,0,1,0,26719.6,0.121453,0.121143,-1.20952,14,0.0133785,10,-0.000146525,-2.91739,-0.259367,-0.227477,10.7094,0.121143,
2,0,0,1,0,26720.3,0.113962,0.113658,-1.24609,14,0.0124394,10,-0.000141628,-2.90445,5.6511,0.0104405,-0.507621,0.113658,
2,0,0,1,0,26721.1,0.106471,0.106169,-1.22542,14,0.0114971,10,-0.000130102,-2.91171,0.676637,0.087196,-4.17518,0.106169,
2,0,0,1,0,26721.8,0.0989799,0.0986424,-1.18339,14,0.0105805,10,-0.000116732,-2.92687,0.571193,0.103292,-4.76637,0.0986424,
2,0,0,1,0,26722.6,0.0914889,0.0911549,-1.14021,14,0.00969804,10,-0.000103936,-2.94302,0.491279,0.120095,-5.33173,0.0911549,
2,0,0,1,0,26723.3,0.083998,0.0836557,-1.09918,14,0.00884754,10,-9.19525e-05,-2.95893,0.379602,0.155426,-6.65535,0.0836557,
2,0,0,1,0,26724.1,0.076507,0.0761756,-1.06194,14,0.00802571,10,-8.08937e-05,-2.9739,0.507385,0.116283,-4.81645,0.0761756,
2,0,0,1,0,26724.8,0.0690161,0.0686265,-1.02509,14,0.00723082,10,-7.03487e-05,-2.98924,0.540819,0.109094,-4.37846,0.0686265,
2,0,0,1,0,26725.6,0.0615251,0.0611846,-0.994759,14,0.0064602,10,-6.0864e-05,-3.00228,0.505111,0.116806,-4.5383,0.0611846,
2,0,0,1,0,26726.3,0.0540342,0.0537151,-0.964091,14,0.00571422,10,-5.17863e-05,-3.01588,0.575606,0.102501,-3.84399,0.05371511,
2,0,0,1,0,26727.1,0.0465441,0.0462411,-0.926141,14,0.00499357,10,-4.28258e-05,-3.03332,0.490868,0.120195,-4.34582,0.0462411,
2,0,0,1,0,26727.8,0.0390523,0.0387369,-0.891734,14,0.00429963,10,-3.4543e-05,-3.04976,0.358739,0.164465,-5.71654,0.0387369,
2,0,0,1,0,26728.6,0.0315618,0.031275,-0.85595,14,0.00363273,10,-2.67699e-05,-3.06755,0.434082,0.135919,-4.53742,0.031275,
2,0,0,1,0,26729.3,0.0240704,0.0237194,-0.820846,14,0.00299143,10,-1.947e-05,-3.08574,0.539379,0.109385,-3.52018,0.0237194,
2,0,0,1,0,26730.1,0.0165796,0.0162399,-0.796996,14,0.00237218,10,-1.29431e-05,-3.09854,0.952201,0.0619617,-1.93108,0.0162399,
2,0,0,1,0,26730.8,0.00908846,0.00876766,-0.780873,14,0.00176844,10,-6.84643e-06,-3.10742,1.38308,0.0426584,-1.30153,0.00876766,
2,0,0,1,0,26731.6,0.00159728,0.00118321,-0.788747,14,0.00117083,10,-9.33256e-07,-3.10306, , , ,0.00118321,
2,0,0,1,0,26731.7,0.000199195,-0.000176442,-0.780929,14,0.00105897,10,1.37789e-07,-3.10739, , , ,-0.000176442,