Folder: Figs_alphaMnO2_OER_Tafel_sleope/Figure_codes/Fig_3-5/rawdata_trumpetplot_data/after 10th (part 175)

File: 20221101_1-115_003_TrumpetPlot_ParaChange_from10_every3_12_CV_C01_1.csv
mode,ox/red,error,control changes,counter inc.,time/s,control/V,Ewe/V,<I>/mA,cycle number,(Q-Qo)/C,I Range,P/W,log(|I|),Tafel slope mV/dec,alpha_eff,dI/d(E-IR),E-IR/V,
2,1,0,1,0,3166.65,2.44065e-05,-0.000344411,19.7696,2,0.0000000E+000,10,-6.80887e-06,-1.704, , , ,-0.000344411,
2,1,0,1,0,3166.67,0.0104008,0.0100794,23.7095,2,0.000377551,10,0.000238977,-1.62508,0.202299,0.291648,267.922,0.0100794,
2,1,0,1,0,3166.69,0.0212099,0.0208849,25.9851,2,0.000826412,10,0.000542697,-1.58528,0.356126,0.165672,167.395,0.0208849,
2,1,0,1,0,3166.71,0.0320052,0.0316428,27.5241,2,0.00130866,10,0.00087094,-1.56029,0.491037,0.120154,128.873,0.0316428,
2,1,0,1,0,3166.72,0.0428033,0.0424833,28.8366,2,0.00181606,10,0.00122507,-1.54006,0.550232,0.107228,120.61,0.0424833,
2,1,0,1,0,3166.74,0.0535986,0.0532708,30.156,2,0.00234684,10,0.00160643,-1.52063,0.531951,0.110912,130.581,0.0532708,
2,1,0,1,0,3166.76,0.0644077,0.0640424,31.675,2,0.0029032,10,0.00202854,-1.49928,0.481286,0.122588,151.619,0.0640424,
2,1,0,1,0,3166.78,0.075203,0.0748225,33.4438,2,0.00348909,10,0.00250235,-1.47568,0.431341,0.136783,178.704,0.0748225,
2,1,0,1,0,3166.8,0.0860011,0.0856047,35.4288,2,0.00410917,10,0.00303287,-1.45064,0.433194,0.136198,188.416,0.0856047,
2,1,0,1,0,3166.81,0.0968075,0.0964241,37.5752,2,0.00476611,10,0.00362315,-1.4251,0.413592,0.142653,209.235,0.0964241,
2,1,0,1,0,3166.83,0.107606,0.107256,39.8502,2,0.00546336,10,0.00427418,-1.39957,0.435574,0.135453,210.697,0.1072561,
2,1,0,1,0,3166.85,0.118401,0.118074,42.1721,2,0.00620166,10,0.00497945,-1.37497,0.442015,0.13348,219.744,0.118074,
2,1,0,1,0,3166.87,0.129207,0.128865,44.6874,2,0.00698315,10,0.00575865,-1.34981,0.421713,0.139906,244.029,0.128865,
2,1,0,1,0,3166.89,0.140005,0.139676,47.5255,2,0.00781262,10,0.00663816,-1.32307,0.388895,0.151712,281.408,0.1396759,
2,1,0,1,0,3166.9,0.150803,0.150444,50.6712,2,0.00869633,10,0.00762319,-1.29524,0.393693,0.149863,296.276,0.150444,
2,1,0,1,0,3166.92,0.161604,0.161286,53.8452,2,0.00963743,10,0.00868447,-1.26885,0.438431,0.134571,282.551,0.161286,
2,1,0,1,0,3166.94,0.172405,0.172096,56.6957,2,0.0106334,10,0.00975709,-1.24645,0.546737,0.107913,238.455,0.1720957,
2,1,0,1,0,3166.96,0.183203,0.18285,58.7666,2,0.0116746,10,0.0107455,-1.23087,1.05567,0.0558885,127.839,0.18285,
2,1,0,1,0,3166.98,0.194001,0.193663,59.0808,2,0.0127391,10,0.0114418,-1.22855,-1.34472,-0.0438751,-100.656,0.193663,
2,1,0,1,0,3166.99,0.204808,0.204497,56.2919,2,0.0137828,10,0.0115115,-1.24955,-0.299656,-0.196893,-429.608,0.2044975,
2,1,0,1,0,3167.01,0.215603,0.215344,50.0089,2,0.0147432,10,0.0107691,-1.30095,-0.166987,-0.353322,-686.171,0.215344,
2,1,0,1,0,3167.03,0.226401,0.226111,42.0771,2,0.0155714,10,0.00951409,-1.37595,-0.134346,-0.439165,-721.527,0.226111,
2,1,0,1,0,3167.05,0.237207,0.236893,35.1149,2,0.0162627,10,0.00831847,-1.45451,-0.146834,-0.401813,-552.959,0.236893,
2,1,0,1,0,3167.07,0.248005,0.247706,30.2361,2,0.0168473,10,0.00748967,-1.51947,-0.192548,-0.306418,-363.227,0.247706,
2,1,0,1,0,3167.08,0.258801,0.258558,27.1114,2,0.0173609,10,0.00700987,-1.56685,-0.275388,-0.214243,-227.554,0.258558,
2,1,0,1,0,3167.1,0.26961,0.269298,25.1625,2,0.0178299,10,0.00677621,-1.59925,-0.395073,-0.14934,-146.944,0.2692979,
2,1,0,1,0,3167.12,0.280405,0.280099,23.8628,2,0.0182702,10,0.00668395,-1.62228,-0.546182,-0.108023,-100.688,0.280099,
2,1,0,1,0,3167.14,0.291203,0.290875,22.9396,2,0.0186908,10,0.00667255,-1.63941,-0.700083,-0.0842757,-75.5052,0.290875,
2,1,0,0,0,3167.15,0.300012,0.29967,22.3328,2,0.0190234,10,0.00669248,-1.65106,0.00121364,48.6142,34560.3,0.29967,
2,1,0,1,0,3167.17,0.290843,0.290584,5.12501,2,0.0192117,10,0.00148925,-2.29031,0.00635605,9.28249,1228.99,0.290584,
2,0,0,1,0,3167.19,0.280047,0.279763,-3.63308,2,0.019214,10,-0.0010164,-2.43972,-0.00946332,-6.2346,555.179,0.279763,
2,0,0,1,0,3167.2,0.269244,0.268969,-7.92319,2,0.0191055,10,-0.00213109,-2.1011,-0.0604101,-0.976658,292.357,0.268969,
2,0,0,1,0,3167.22,0.258443,0.258143,-10.3376,2,0.018939,10,-0.00266858,-1.98558,-0.133566,-0.441729,176.589,0.258143,
2,0,0,1,0,3167.24,0.247645,0.24736,-11.915,2,0.0187376,10,-0.00294729,-1.92391,-0.218185,-0.270413,125.451,0.24736,
2,0,0,1,0,3167.26,0.236849,0.236502,-13.0941,2,0.0185118,10,-0.00309677,-1.88293,-0.310239,-0.190176,97.0197,0.2365016,
2,0,0,1,0,3167.28,0.22604,0.225741,-14.0825,2,0.018267,10,-0.003179,-1.85132,-0.389734,-0.151385,83.0061,0.225741,
2,0,0,1,0,3167.29,0.215245,0.214929,-14.9526,2,0.0180057,10,-0.00321374,-1.82528,-0.419774,-0.140552,81.9244,0.214929,
2,0,0,1,0,3167.31,0.204447,0.204101,-15.8199,2,0.0177288,10,-0.00322887,-1.8008,-0.447799,-0.131755,81.2592,0.204101,
2,0,0,1,0,3167.33,0.19364,0.193304,-16.7152,2,0.0174362,10,-0.00323111,-1.77689,-0.441346,-0.133682,87.1805,0.193304,
2,0,0,1,0,3167.35,0.182842,0.182531,-17.7139,2,0.0171266,10,-0.00323335,-1.75168,-0.383336,-0.153912,106.57,0.182531,
2,0,0,1,0,3167.37,0.172047,0.17172,-18.9841,2,0.0167965,10,-0.00325995,-1.72161,-0.319049,-0.184925,137.352,0.17172,
2,0,0,1,0,3167.38,0.161241,0.16096,-20.6865,2,0.01644,10,-0.0033297,-1.68431,-0.258234,-0.228475,185.07,0.16096,
2,0,0,1,0,3167.4,0.150443,0.150154,-23.0729,2,0.0160471,10,-0.00346449,-1.6369,-0.203577,-0.289817,261.811,0.150154,
2,0,0,1,0,3167.42,0.139645,0.139354,-26.4138,2,0.0156029,10,-0.00368086,-1.57817,-0.170357,-0.346332,358.011,0.139354,
2,0,0,1,0,3167.44,0.128849,0.12858,-30.8567,2,0.0150887,10,-0.00396755,-1.51065,-0.157169,-0.375393,452.284,0.1285798,
2,0,0,1,0,3167.46,0.118043,0.117794,-36.082,2,0.0144866,10,-0.00425026,-1.44271,-0.16675,-0.353824,497.495,0.117794,
2,0,0,1,0,3167.47,0.107245,0.106972,-41.3439,2,0.0137887,10,-0.00442264,-1.38359,-0.197245,-0.299121,482.183,0.1069719,
2,0,0,1,0,3167.49,0.0964468,0.096213,-46.3049,2,0.0129981,10,-0.00445514,-1.33437,-0.2521,-0.234034,421.835,0.09621302,
2,0,0,1,0,3167.51,0.0856404,0.0853916,-50.3991,2,0.0121262,10,-0.00430366,-1.29758,-0.342429,-0.172299,338.163,0.0853916,
2,0,0,1,0,3167.53,0.0748451,0.0746306,-53.5004,2,0.0111888,10,-0.00399277,-1.27164,-0.539994,-0.109261,227.605,0.0746306,
2,0,0,1,0,3167.55,0.0640471,0.0637815,-55.268,2,0.0102075,10,-0.00352508,-1.25753,-1.31676,-0.0448069,96.407,0.0637815,
2,0,0,1,0,3167.56,0.0532407,0.0529145,-55.5994,2,0.00920761,10,-0.00294202,-1.25493,3.89165,0.0151607,-32.8229,0.0529145,
2,0,0,1,0,3167.58,0.0424426,0.0421365,-54.7358,2,0.0082134,10,-0.00230638,-1.26173,1.12612,0.0523921,-111.813,0.0421365,
2,0,0,1,0,3167.6,0.0316473,0.0313395,-53.313,2,0.00724061,10,-0.0016708,-1.27317,0.854742,0.0690267,-143.571,0.0313395,
2,0,0,1,0,3167.62,0.0208437,0.0205403,-51.6832,2,0.0062957,10,-0.00106159,-1.28665,0.741949,0.0795203,-160.299,0.0205403,
2,0,0,1,0,3167.64,0.0100429,0.00969764,-49.8486,2,0.00538176,10,-0.000483413,-1.30235,0.608118,0.0970207,-188.498,0.00969764,
2,0,0,1,0,3167.65,-0.000755207,-0.00116517,-47.653,2,0.004504,10,5.55236e-05,-1.32191,0.490906,0.120186,-223.083,-0.00116517,
2,0,0,1,0,3167.67,-0.0115505,-0.0118859,-44.9048,2,0.00367073,10,0.000533733,-1.34771,0.391429,0.15073,-264.035,-0.0118859,
2,0,0,1,0,3167.69,-0.0223597,-0.0227296,-42.0727,2,0.00288852,10,0.000956296,-1.376,0.393404,0.149973,-246.448,-0.0227296,
2,0,0,1,0,3167.71,-0.033155,-0.0335256,-39.7263,2,0.00215359,10,0.00133185,-1.40092,0.51437,0.114703,-178.194,-0.0335256,
2,0,0,1,0,3167.73,-0.043953,-0.0443068,-38.1569,2,0.00145387,10,0.00169061,-1.41843,0.795882,0.0741316,-110.635,-0.0443068,
2,0,0,1,0,3167.74,-0.0547594,-0.0551197,-37.3219,2,0.000775584,10,0.00205717,-1.42804,1.66458,0.0354444,-51.7039,-0.0551197,
2,0,0,1,0,3167.76,-0.0655575,-0.0659433,-37.0472,2,0.000106993,10,0.00244301,-1.43125,29.6309,0.00199117,-2.88246,-0.0659433,
2,0,0,1,0,3167.78,-0.0763528,-0.0767139,-37.2115,2,-0.000560836,10,0.00285464,-1.42932,-2.73311,-0.0215872,31.3794,-0.07671386,
2,0,0,1,0,3167.8,-0.0871592,-0.0874865,-37.7187,2,-0.00123465,10,0.00329988,-1.42344,-1.51652,-0.0389049,57.2792,-0.0874865,
2,0,0,1,0,3167.82,-0.0979573,-0.098309,-38.4705,2,-0.0019199,10,0.003782,-1.41487,-1.30195,-0.0453168,67.7828,-0.09830904,
2,0,0,1,1,3167.83,-0.0955546,-0.0960313,-27.4201,2,-0.00229864,10,0.00263319,-1.56193,-0.0291896,-2.02127,2149.94,-0.0960313,
2,0,0,1,1,3167.84,-0.0847538,-0.0852024,-9.68461,2,-0.00261836,10,0.000825152,-2.01392,-0.0154803,-3.81129,1310.53,-0.0852024,
2,1,0,1,1,3167.86,-0.0739557,-0.0743852,2.00919,2,-0.00267994,10,-0.000149454,-2.69698,0.0271308,2.17465,905.38,-0.0743852,
2,1,0,1,1,3167.88,-0.0631604,-0.0636465,10.2597,2,-0.00256458,10,-0.000652991,-1.98887,0.0343022,1.72001,653.48,-0.0636465,
2,1,0,1,1,3167.9,-0.0523512,-0.052824,16.3404,2,-0.00232167,10,-0.000863165,-1.78674,0.0779722,0.75668,474.289,-0.05282395,
2,1,0,1,1,3167.92,-0.0415559,-0.0419505,20.7128,2,-0.00198552,10,-0.000868913,-1.68376,0.137922,0.427778,343.171,-0.0419505,
2,1,0,1,1,3167.93,-0.0307579,-0.0311503,23.8107,2,-0.00158273,10,-0.00074171,-1.62323,0.227594,0.259233,239.893,-0.0311503,
2,1,0,1,1,3167.95,-0.0199515,-0.0203522,25.9793,2,-0.0011331,10,-0.000528734,-1.58537,0.362156,0.162913,164.664,-0.02035217,
2,1,0,1,1,3167.97,-0.0091534,-0.00955617,27.4161,2,-0.000651531,10,-0.000261993,-1.56199,0.598945,0.0985066,105.152,-0.009556165,
2,1,0,0,1,3167.99,-7.54729e-05,-0.00042076,28.101,2,-0.000231396,10,-1.18238e-05,-1.55128, , , ,-0.00042076,

File: 20221101_1-115_003_TrumpetPlot_ParaChange_from10_every3_12_CV_C01_2.csv
mode,ox/red,error,control changes,counter inc.,time/s,control/V,Ewe/V,<I>/mA,cycle number,(Q-Qo)/C,I Range,P/W,log(|I|),Tafel slope mV/dec,alpha_eff,dI/d(E-IR),E-IR/V,
2,1,0,1,0,5136.78,2.44065e-05,-0.000287149,19.1959,3,0.0000000E+000,10,-5.51208e-06,-1.71679, , , ,-0.0002871489,
2,1,0,1,0,5136.8,0.0104008,0.0100815,23.0732,3,0.000367066,10,0.000232612,-1.63689,0.200847,0.293756,262.637,0.0100815,
2,1,0,1,0,5136.82,0.0212099,0.0208902,25.3553,3,0.000804359,10,0.000529677,-1.59593,0.33697,0.17509,172.654,0.0208902,
2,1,0,1,0,5136.84,0.0320052,0.0316746,26.9712,3,0.00127592,10,0.0008543,-1.5691,0.452998,0.130243,136.891,0.0316746,
2,1,0,1,0,5136.85,0.0428033,0.0424939,28.3723,3,0.00177413,10,0.00120565,-1.54711,0.507,0.116371,128.785,0.0424939,
2,1,0,1,0,5136.87,0.0535986,0.0532655,29.7618,3,0.00229731,10,0.00158528,-1.52634,0.495407,0.119094,138.443,0.0532655,
2,1,0,1,0,5136.89,0.0644077,0.0640392,31.3224,3,0.00284721,10,0.00200586,-1.50415,0.466577,0.126453,154.696,0.06403923,
2,1,0,1,0,5136.91,0.075203,0.074848,33.0786,3,0.00342684,10,0.00247587,-1.48045,0.442218,0.133418,172.397,0.074848,
2,1,0,1,0,5136.93,0.0860011,0.0856821,34.9927,3,0.00403968,10,0.00299825,-1.45602,0.454384,0.129846,177.355,0.0856821,
2,1,0,1,0,5136.94,0.0968075,0.0964272,36.9927,3,0.00468748,10,0.00356711,-1.43188,0.437136,0.134969,194.898,0.0964272,
2,1,0,1,0,5136.96,0.107606,0.107242,39.125,3,0.00537288,10,0.00419585,-1.40755,0.461057,0.127967,195.37,0.107242,
2,1,0,1,0,5136.98,0.118401,0.118068,41.2768,3,0.00609646,10,0.00487347,-1.38429,0.462788,0.127488,205.425,0.118068,
2,1,0,1,0,5137,0.129207,0.128874,43.6321,3,0.0068604,10,0.00562303,-1.36019,0.43157,0.13671,232.891,0.128874,
2,1,0,1,0,5137.02,0.140005,0.13967,46.3413,3,0.00766985,10,0.00647247,-1.33403,0.398584,0.148024,267.725,0.13967,
2,1,0,1,0,5137.03,0.150803,0.150468,49.3056,3,0.0085307,10,0.0074189,-1.3071,0.412591,0.142999,275.054,0.150468,
2,1,0,1,0,5137.05,0.161604,0.161274,52.2151,3,0.00944486,10,0.00842095,-1.2822,0.464932,0.1269,258.382,0.161274,
2,1,0,1,0,5137.07,0.172405,0.17207,54.7869,3,0.010409,10,0.00942719,-1.26132,0.593827,0.0993556,212.151,0.17207,
2,1,0,1,0,5137.09,0.183203,0.182864,56.5976,3,0.0114135,10,0.0103497,-1.2472,1.28786,0.0458126,100.883,0.182864,
2,1,0,1,0,5137.11,0.194001,0.193671,56.584,3,0.0124359,10,0.0109587,-1.24731,-0.999933,-0.059004,-129.622,0.193671,
2,1,0,1,0,5137.12,0.204808,0.204486,53.5484,3,0.0134322,10,0.0109499,-1.27125,-0.283702,-0.207965,-431.999,0.204486,
2,1,0,1,0,5137.14,0.215603,0.215324,47.5196,3,0.0143447,10,0.0102321,-1.32313,-0.171784,-0.343454,-634.737,0.215324,
2,1,0,1,0,5137.16,0.226401,0.226096,40.4728,3,0.0151355,10,0.00915073,-1.39284,-0.150048,-0.393206,-621.714,0.226096,
2,1,0,1,0,5137.18,0.237207,0.236926,34.5037,3,0.015807,10,0.00817481,-1.46213,-0.168764,-0.349601,-472.284,0.236926,
2,1,0,1,0,5137.2,0.248005,0.247714,30.2861,3,0.016387,10,0.00750231,-1.51876,-0.221757,-0.266057,-315.478,0.2477144,
2,1,0,1,0,5137.21,0.258801,0.258497,27.4905,3,0.0169048,10,0.00710619,-1.56082,-0.304224,-0.193936,-208.643,0.258497,
2,1,0,1,0,5137.23,0.26961,0.269306,25.633,3,0.0173816,10,0.00690313,-1.5912,-0.422734,-0.139568,-139.879,0.269306,
2,1,0,1,0,5137.25,0.280405,0.280101,24.3382,3,0.0178307,10,0.00681717,-1.61371,-0.556434,-0.106032,-100.854,0.2801013,
2,1,0,1,0,5137.27,0.291203,0.290879,23.3897,3,0.0182599,10,0.00680358,-1.63098,-0.687804,-0.0857802,-78.4155,0.290879,
2,1,0,0,0,5137.28,0.300012,0.299785,22.757,3,0.018599,10,0.00682221,-1.64288,0.00130217,45.3089,33244,0.299785,
2,1,0,1,0,5137.3,0.290843,0.290641,6.13647,3,0.0187988,10,0.00178351,-2.21208,0.0102522,5.75484,1190,0.290641,
2,0,0,1,0,5137.32,0.280047,0.279788,-2.49511,3,0.018821,10,-0.000698104,-2.60291,-0.0102233,-5.77112,550.7,0.279788,
2,0,0,1,0,5137.33,0.269244,0.268955,-6.87942,3,0.0187322,10,-0.00185026,-2.16245,-0.0503373,-1.17209,301.863,0.268955,
2,0,0,1,0,5137.35,0.258443,0.258141,-9.42875,3,0.0185835,10,-0.00243395,-2.02555,-0.114253,-0.516397,187.591,0.258141,
2,0,0,1,0,5137.37,0.247645,0.247327,-11.1263,3,0.0183975,10,-0.00275184,-1.95365,-0.189184,-0.311865,134.688,0.2473273,
2,0,0,1,0,5137.39,0.236849,0.236564,-12.3837,3,0.0181854,10,-0.00292954,-1.90715,-0.268422,-0.219803,105.97,0.236564,
2,0,0,1,0,5137.41,0.22604,0.22573,-13.4338,3,0.0179527,10,-0.00303241,-1.8718,-0.346907,-0.170075,88.9733,0.22573,
2,0,0,1,0,5137.42,0.215245,0.214969,-14.3436,3,0.0177025,10,-0.00308343,-1.84334,-0.390996,-0.150897,84.4493,0.214969,
2,0,0,1,0,5137.44,0.204447,0.20412,-15.2344,3,0.0174362,10,-0.00310965,-1.81717,-0.425319,-0.138719,82.4283,0.20412,
2,0,0,1,0,5137.46,0.19364,0.193332,-16.1219,3,0.0171541,10,-0.00311689,-1.79258,-0.436242,-0.135246,85.0989,0.193332,
2,0,0,1,0,5137.48,0.182842,0.182546,-17.0787,3,0.0168553,10,-0.00311764,-1.76755,-0.403532,-0.146209,97.6073,0.182546,
2,0,0,1,0,5137.5,0.172047,0.171737,-18.2514,3,0.0165376,10,-0.00313444,-1.7387,-0.347845,-0.169616,121.077,0.1717373,
2,0,0,1,0,5137.51,0.161241,0.160943,-19.778,3,0.0161959,10,-0.00318314,-1.70382,-0.279941,-0.210759,163.012,0.1609434,
2,0,0,1,0,5137.53,0.150443,0.150133,-21.873,3,0.0158219,10,-0.00328385,-1.66009,-0.220507,-0.267565,229.039,0.150133,
2,0,0,1,0,5137.55,0.139645,0.139373,-24.8523,3,0.0154027,10,-0.00346373,-1.60463,-0.178526,-0.330484,321.352,0.139373,
2,0,0,1,0,5137.57,0.128849,0.128573,-28.8692,3,0.0149206,10,-0.00371181,-1.53957,-0.157826,-0.373828,421.805,0.128573,
2,0,0,1,0,5137.59,0.118043,0.117774,-33.7859,3,0.014357,10,-0.00397911,-1.47126,-0.164875,-0.357848,471.248,0.117774,
2,0,0,1,0,5137.6,0.107245,0.10705,-38.8243,3,0.0137023,10,-0.00415616,-1.4109,-0.192945,-0.305787,463,0.10705,
2,0,0,1,0,5137.62,0.0964468,0.0962024,-43.6128,3,0.0129591,10,-0.00419566,-1.36039,-0.244293,-0.241513,410.151,0.0962024,
2,0,0,1,0,5137.64,0.0856404,0.0854361,-47.6059,3,0.0121364,10,-0.00406726,-1.32234,-0.331912,-0.177758,329.572,0.0854361,
2,0,0,1,0,5137.66,0.0748451,0.0745744,-50.7046,3,0.0112497,10,-0.00378127,-1.29495,-0.496322,-0.118875,234.629,0.0745744,
2,0,0,1,0,5137.68,0.0640471,0.0638006,-52.573,3,0.0103179,10,-0.00335419,-1.27924,-1.10408,-0.053438,109.366,0.06380064,
2,0,0,1,0,5137.69,0.0532407,0.0529665,-53.0875,3,0.00936499,10,-0.00281186,-1.27501,10.8581,0.00543372,-11.233,0.0529665,
2,0,0,1,0,5137.71,0.0424426,0.0421599,-52.4968,3,0.00841361,10,-0.00221326,-1.27987,1.38257,0.042674,-87.337,0.0421599,
2,0,0,1,0,5137.73,0.0316473,0.0313045,-51.3805,3,0.00747847,10,-0.00160844,-1.2892,1.04713,0.0563444,-112.946,0.0313045,
2,0,0,1,0,5137.75,0.0208437,0.0205223,-50.0952,3,0.00656525,10,-0.00102807,-1.3002,0.93289,0.0632443,-123.605,0.0205223,
2,0,0,1,0,5137.77,0.0100429,0.00971991,-48.6952,3,0.00567601,10,-0.000473313,-1.31251,0.7885,0.0748257,-142.067,0.00971991,
2,0,0,1,0,5137.78,-0.000755207,-0.00107927,-47.0559,3,0.00481415,10,5.07862e-05,-1.32739,0.641681,0.091946,-168.546,-0.00107927,
2,0,0,1,0,5137.8,-0.0115505,-0.0119241,-44.9005,3,0.00398613,10,0.000535396,-1.34775,0.477487,0.123564,-216.37,-0.0119241,
2,0,0,1,0,5137.82,-0.0223597,-0.0226787,-42.4731,3,0.00319985,10,0.000963236,-1.37189,0.43941,0.134271,-222.619,-0.0226787,
2,0,0,1,0,5137.84,-0.033155,-0.0335288,-40.2255,3,0.00245632,10,0.00134871,-1.3955,0.515971,0.114348,-179.85,-0.0335288,
2,0,0,1,0,5137.86,-0.043953,-0.0442834,-38.5895,3,0.00174798,10,0.00170888,-1.41353,0.726732,0.0811854,-122.526,-0.0442834,
2,0,0,1,0,5137.87,-0.0547594,-0.0551091,-37.6288,3,0.00106304,10,0.00207369,-1.42448,1.34814,0.043764,-64.3553,-0.0551091,
2,0,0,1,0,5137.89,-0.0655575,-0.0658723,-37.2139,3,0.000390219,10,0.00245136,-1.4293,5.67576,0.0103951,-15.1156,-0.0658723,
2,0,0,1,0,5137.91,-0.0763528,-0.0766767,-37.2568,3,-0.000279411,10,0.00285673,-1.42879,-4.25799,-0.0138563,20.1612,-0.0766767,
2,0,0,1,0,5137.93,-0.0871592,-0.0874844,-37.6284,3,-0.000952798,10,0.0032919,-1.42448,-1.84555,-0.0319687,46.9649,-0.0874844,
2,0,0,1,0,5137.95,-0.0979573,-0.0982772,-38.2735,3,-0.00163553,10,0.00376141,-1.4171,-1.39908,-0.0421704,62.7996,-0.0982772,
2,0,0,1,1,5137.96,-0.0955546,-0.0960249,-27.5316,3,-0.00201317,10,0.00264372,-1.56017,-0.0305122,-1.93365,2073.64,-0.09602493,
2,0,0,1,1,5137.97,-0.0847538,-0.0851833,-10.489,3,-0.00234181,10,0.000893492,-1.97926,-0.0179155,-3.29323,1263.29,-0.08518333,
2,1,0,1,1,5137.99,-0.0739557,-0.0743831,0.786669,3,-0.00242209,10,-5.85149e-05,-3.10421,0.097072,0.607796,876.8,-0.0743831,
2,1,0,1,1,5138.01,-0.0631604,-0.063621,8.78636,3,-0.00233112,10,-0.000558997,-2.05619,0.0299502,1.96993,634.091,-0.063621,
2,1,0,1,1,5138.03,-0.0523512,-0.0527667,14.7409,3,-0.00211596,10,-0.000777826,-1.83148,0.0704535,0.837432,473.059,-0.0527667,
2,1,0,1,1,5138.05,-0.0415559,-0.0419664,19.1095,3,-0.00180875,10,-0.000801958,-1.71875,0.127909,0.461267,341.068,-0.0419664,
2,1,0,1,1,5138.06,-0.0307579,-0.0311164,22.2368,3,-0.0014347,10,-0.00069193,-1.65293,0.208787,0.282585,244.166,-0.0311164,
2,1,0,1,1,5138.08,-0.0199515,-0.0203182,24.4845,3,-0.00101283,10,-0.000497483,-1.61111,0.328282,0.179723,171.096,-0.0203182,
2,1,0,1,1,5138.1,-0.0091534,-0.00951693,26.0185,3,-0.000557402,10,-0.000247616,-1.58472,0.517315,0.11405,115.513,-0.00951693,
2,1,0,0,1,5138.12,-7.54729e-05,-0.00042076,26.8219,3,-0.000157528,10,-1.12856e-05,-1.57151, , , ,-0.00042076,