Folder: Figs_alphaMnO2_OER_Tafel_sleope/Figure_codes/Fig_3-5/rawdata_trumpetplot_data/after 10th (part 169)

File: 20221101_1-115_003_TrumpetPlot_ParaChange_from10_every3_11_CV_C01_25.csv
mode,ox/red,error,control changes,counter inc.,time/s,control/V,Ewe/V,<I>/mA,cycle number,(Q-Qo)/C,I Range,P/W,log(|I|),Tafel slope mV/dec,alpha_eff,dI/d(E-IR),E-IR/V,
2,1,0,1,0,50447.8,2.44065e-05,-0.000382585,9.50469,26,0.0000000E+000,10,-3.63636e-06,-2.02206, , , ,-0.000382585,
2,1,0,1,0,50447.8,0.0101427,0.00980156,12.7012,26,0.000286605,10,0.000124492,-1.89615,0.137013,0.430615,212.414,0.00980156,
2,1,0,1,0,50447.8,0.0205441,0.0201893,14.5286,26,0.000642006,10,0.000293321,-1.83778,0.223855,0.263564,149.096,0.0201893,
2,1,0,1,0,50447.9,0.0309482,0.0305983,15.8902,26,0.00103828,10,0.000486211,-1.79887,0.310829,0.189815,117.635,0.0305983,
2,1,0,1,0,50447.9,0.0413439,0.0409849,17.0305,26,0.0014667,10,0.000697995,-1.76877,0.3828,0.154128,102.376,0.0409849,
2,1,0,1,0,50447.9,0.0517425,0.051343,18.0582,26,0.00192315,10,0.000927163,-1.74333,0.419995,0.140478,99.004,0.051343,
2,1,0,1,0,50447.9,0.0621438,0.061806,19.062,26,0.0024059,10,0.00117815,-1.71983,0.469892,0.125561,93.3866,0.061806,
2,1,0,1,0,50448,0.0725479,0.0721079,20.0617,26,0.00291468,10,0.00144661,-1.69763,0.464704,0.126963,99.456,0.0721079,
2,1,0,1,0,50448,0.0829437,0.0825306,21.0957,26,0.00344992,10,0.00174104,-1.67581,0.485247,0.121588,100.116,0.0825306,
2,1,0,1,0,50448,0.0933422,0.0929661,22.1498,26,0.00401233,10,0.00205918,-1.65463,0.523974,0.112601,97.2859,0.0929661,
2,1,0,1,0,50448,0.103749,0.103368,23.175,26,0.00460135,10,0.00239554,-1.63498,0.508965,0.115922,104.818,0.103368,
2,1,0,1,0,50448.1,0.114148,0.113783,24.2421,26,0.00521782,10,0.00275834,-1.61543,0.527056,0.111943,105.904,0.113783,
2,1,0,1,0,50448.1,0.124543,0.124145,25.3976,26,0.00586285,10,0.00315299,-1.59521,0.497877,0.118503,117.436,0.124145,
2,1,0,1,0,50448.1,0.134942,0.134598,26.6804,26,0.00653974,10,0.00359112,-1.57381,0.48004,0.122906,128.04,0.134598,
2,1,0,1,0,50448.1,0.145349,0.144969,28.0454,26,0.0072513,10,0.00406572,-1.55214,0.502934,0.117312,128.321,0.144969,
2,1,0,1,0,50448.2,0.155747,0.155419,29.2965,26,0.0079971,10,0.00455323,-1.53318,0.593668,0.0993822,113.552,0.155419,
2,1,0,1,0,50448.2,0.166143,0.165751,30.2997,26,0.00877282,10,0.00502221,-1.51856,0.915006,0.0644805,76.2061,0.165751,
2,1,0,1,0,50448.2,0.176542,0.176174,30.7876,26,0.0095687,10,0.00542397,-1.51162,6.52332,0.00904447,10.8553,0.176174,
2,1,0,1,0,50448.2,0.186949,0.186621,30.4712,26,0.010367,10,0.00568657,-1.51611,-0.926723,-0.0636652,-75.5861,0.186621,
2,1,0,1,0,50448.3,0.197347,0.197032,29.2304,26,0.0111448,10,0.00575934,-1.53416,-0.421578,-0.13995,-159.421,0.197032,
2,1,0,1,0,50448.3,0.207743,0.207398,27.268,26,0.0118802,10,0.00565532,-1.56435,-0.295387,-0.199738,-212.322,0.207398,
2,1,0,1,0,50448.3,0.218141,0.217795,24.9705,26,0.0125592,10,0.00543844,-1.60257,-0.263496,-0.223912,-218.236,0.217795,
2,1,0,1,0,50448.4,0.228548,0.228207,22.7916,26,0.0131793,10,0.00520121,-1.64223,-0.267306,-0.220721,-196.301,0.228207,
2,1,0,1,0,50448.4,0.238947,0.238614,20.9125,26,0.0137463,10,0.00499001,-1.67959,-0.298111,-0.197913,-161.581,0.238614,
2,1,0,1,0,50448.4,0.249343,0.249003,19.3931,26,0.0142695,10,0.00482894,-1.71235,-0.343076,-0.171973,-130.273,0.249003,
2,1,0,1,0,50448.4,0.259741,0.259409,18.1869,26,0.0147573,10,0.00471783,-1.74024,-0.406579,-0.145113,-103.033,0.259409,
2,1,0,1,0,50448.5,0.270148,0.269808,17.2216,26,0.0152171,10,0.00464652,-1.76393,-0.469603,-0.125638,-84.4973,0.269808,
2,1,0,1,0,50448.5,0.280547,0.280186,16.4419,26,0.0156545,10,0.0046068,-1.78405,-0.549918,-0.107289,-68.8962,0.280186,
2,1,0,1,0,50448.5,0.290942,0.290591,15.8104,26,0.0160734,10,0.00459436,-1.80106,-0.653634,-0.0902646,-55.679,0.290591,
2,1,0,0,0,50448.5,0.300012,0.299708,15.3231,26,0.0164267,10,0.00459246,-1.81465,0.00202378,29.1534,15599.6,0.299708,
2,1,0,1,0,50448.6,0.290704,0.290388,6.1364,26,0.0166565,10,0.00178194,-2.21209,0.0221566,2.66286,635.004,0.290388,
2,1,0,1,0,50448.6,0.280305,0.27999,1.15846,26,0.016745,10,0.000324359,-2.93612,0.00400505,14.7314,367.112,0.27999,
2,0,0,1,0,50448.6,0.269909,0.269552,-1.92883,26,0.0167318,10,-0.000519922,-2.71471,-0.0169828,-3.47411,240.44,0.269552,
2,0,0,1,0,50448.6,0.2595,0.259168,-4.02633,26,0.0166526,10,-0.00104349,-2.39509,-0.0534872,-1.10307,171.142,0.259168,
2,0,0,1,0,50448.7,0.249104,0.248766,-5.54715,26,0.0165271,10,-0.00137994,-2.25593,-0.100532,-0.58688,126.262,0.248766,
2,0,0,1,0,50448.7,0.238705,0.238358,-6.70063,26,0.0163672,10,-0.00159715,-2.17388,-0.157536,-0.374519,97.7244,0.238358,
2,0,0,1,0,50448.7,0.22831,0.227963,-7.61824,26,0.0161805,10,-0.00173668,-2.11815,-0.21732,-0.271489,80.7226,0.227963,
2,0,0,1,0,50448.7,0.2179,0.217549,-8.40965,26,0.0159718,10,-0.00182951,-2.07522,-0.27648,-0.213397,69.8727,0.217549,
2,0,0,1,0,50448.8,0.207504,0.207164,-9.07366,26,0.0157444,10,-0.00187974,-2.04222,-0.342619,-0.172203,60.9404,0.207164,
2,0,0,1,0,50448.8,0.197106,0.196745,-9.67213,26,0.0155004,10,-0.00190294,-2.01448,-0.389417,-0.151509,57.2628,0.196745,
2,0,0,1,0,50448.8,0.18671,0.186369,-10.2479,26,0.0152412,10,-0.00190989,-1.98936,-0.429036,-0.137517,55.015,0.186369,
2,0,0,1,0,50448.8,0.1763,0.175873,-10.8329,26,0.0149671,10,-0.00190522,-1.96525,-0.443624,-0.132995,56.1772,0.175873,
2,0,0,1,0,50448.9,0.165905,0.16558,-11.4439,26,0.0146777,10,-0.00189487,-1.94143,-0.417423,-0.141343,63.1561,0.16558,
2,0,0,1,0,50448.9,0.155506,0.155136,-12.1722,26,0.0143709,10,-0.00188835,-1.91463,-0.354693,-0.166341,79.1002,0.155136,
2,0,0,1,0,50448.9,0.145105,0.144752,-13.1368,26,0.0140426,10,-0.00190158,-1.88151,-0.272007,-0.216906,111.345,0.144752,
2,0,0,1,0,50448.9,0.134701,0.134342,-14.538,26,0.0136838,10,-0.00195307,-1.83749,-0.205862,-0.2866,162.852,0.134342,
2,0,0,1,0,50449,0.124305,0.123966,-16.5473,26,0.0132807,10,-0.0020513,-1.78127,-0.174958,-0.337224,218.054,0.123966,
2,0,0,1,0,50449,0.113906,0.113558,-18.9899,26,0.0128189,10,-0.00215646,-1.72148,-0.178354,-0.330803,245.165,0.1135581,
2,0,0,1,0,50449,0.103505,0.103207,-21.4527,26,0.0122924,10,-0.00221408,-1.66852,-0.211099,-0.27949,233.972,0.103207,
2,0,0,1,0,50449,0.0931008,0.0927964,-23.7578,26,0.0117036,10,-0.00220464,-1.62419,-0.266101,-0.22172,205.394,0.0927964,
2,0,0,1,0,50449.1,0.0827051,0.0823927,-25.6586,26,0.0110599,10,-0.00211408,-1.59077,-0.36808,-0.160291,160.347,0.0823927,
2,0,0,1,0,50449.1,0.0723065,0.0720326,-27.0801,26,0.0103731,10,-0.00195065,-1.56735,-0.55799,-0.105737,111.615,0.0720326,
2,0,0,1,0,50449.1,0.0618997,0.0615589,-27.9867,26,0.00965601,10,-0.00172283,-1.55305,-1.05963,-0.0556798,60.7737,0.0615589,
2,0,0,1,0,50449.2,0.0515011,0.0511001,-28.4306,26,0.00892183,10,-0.00145281,-1.54621,-2.48884,-0.0237058,26.2815,0.05110015,
2,0,0,1,0,50449.2,0.0411053,0.040741,-28.5634,26,0.00818047,10,-0.0011637,-1.54419,-29.86,-0.00197588,2.20175,0.040741,
2,0,0,1,0,50449.2,0.0307068,0.0303385,-28.4971,26,0.00743834,10,-0.000864557,-1.5452,4.90994,0.0120164,-13.3642,0.0303385,
2,0,0,1,0,50449.2,0.0202999,0.0199592,-28.3043,26,0.00669978,10,-0.000564932,-1.54815,2.72164,0.0216781,-23.9327,0.0199592,
2,0,0,1,0,50449.3,0.00990136,0.00955024,-27.9531,26,0.00596823,10,-0.000266959,-1.55357,1.57876,0.0373711,-40.7503,0.00955024,
2,0,0,1,0,50449.3,-0.000494411,-0.00094036,-27.4525,26,0.0052478,10,2.58153e-05,-1.56142,1.11555,0.0528889,-56.595,-0.00094036,
2,0,0,1,0,50449.3,-0.010893,-0.0113016,-26.7393,26,0.00454321,10,0.000302197,-1.57285,0.849121,0.0694836,-72.4901,-0.0113016,
2,0,0,1,0,50449.3,-0.0212998,-0.0217137,-25.9496,26,0.00385829,10,0.000563462,-1.58587,0.804734,0.0733162,-74.2686,-0.02171373,
2,0,0,1,0,50449.4,-0.0316984,-0.03211,-25.2297,26,0.0031933,10,0.000810125,-1.59809,0.910817,0.064777,-63.7529,-0.03211,
2,0,0,1,0,50449.4,-0.0420942,-0.0424362,-24.6386,26,0.00254556,10,0.00104557,-1.60838,1.16801,0.0505131,-48.5921,-0.0424362,
2,0,0,1,0,50449.4,-0.0524927,-0.0528886,-24.2485,26,0.00191042,10,0.00128247,-1.61531,2.00667,0.0294019,-27.8487,-0.0528886,
2,0,0,1,0,50449.4,-0.0628996,-0.0633029,-24.0725,26,0.00128279,10,0.00152386,-1.61848,6.04038,0.00976759,-9.17208,-0.0633029,
2,0,0,1,0,50449.5,-0.0732981,-0.0737012,-24.0407,26,0.000657911,10,0.00177183,-1.61905,-11.8133,-0.00499435,4.68568,-0.07370124,
2,0,0,1,0,50449.5,-0.0836939,-0.0840847,-24.1575,26,3.16502e-05,10,0.00203127,-1.61695,-2.93118,-0.0201284,18.9887,-0.0840847,
2,0,0,1,0,50449.5,-0.0940925,-0.0944842,-24.4257,26,-0.000599655,10,0.00230784,-1.61215,-1.71003,-0.0345023,32.8901,-0.0944842,
2,0,0,1,1,50449.5,-0.0978574,-0.098273,-20.7124,26,-0.00108824,10,0.00203547,-1.68377,-0.0332034,-1.77693,1419.75,-0.098273,
2,0,0,1,1,50449.6,-0.0874588,-0.0878598,-10.6008,26,-0.00148066,10,0.000931385,-1.97466,-0.0325779,-1.81104,745.918,-0.0878598,
2,0,0,1,1,50449.6,-0.0770519,-0.0774784,-4.09442,26,-0.00166637,10,0.000317229,-2.38781,-0.0169598,-3.47881,533.028,-0.0774784,
2,1,0,1,1,50449.6,-0.0666562,-0.0670652,0.763984,26,-0.00170644,10,-5.12367e-05,-3.11692,0.0120141,4.91091,411.345,-0.0670652,
2,1,0,1,1,50449.6,-0.0562576,-0.0567209,4.55435,26,-0.00163497,10,-0.000258327,-2.34157,0.031344,1.88234,327.401,-0.05672095,
2,1,0,1,1,50449.7,-0.0458563,-0.0463141,7.61521,26,-0.0014749,10,-0.000352692,-2.11832,0.0663371,0.889397,262.258,-0.0463141,
2,1,0,1,1,50449.7,-0.0354522,-0.0358606,10.0867,26,-0.00124351,10,-0.000361715,-1.99625,0.108804,0.542258,212.117,-0.03586062,
2,1,0,1,1,50449.7,-0.0250564,-0.0254411,12.0218,26,-0.000955026,10,-0.000305848,-1.92003,0.167559,0.352114,164.962,-0.0254411,
2,1,0,1,1,50449.7,-0.0146579,-0.0150406,13.5747,26,-0.000621175,10,-0.000204171,-1.86727,0.233537,0.252636,133.746,-0.01504059,
2,1,0,1,1,50449.8,-0.00425653,-0.00467723,14.8071,26,-0.000251418,10,-6.92563e-05,-1.82953,0.322415,0.182994,105.608,-0.00467723,
2,1,0,0,1,50449.8,-7.54729e-05,-0.000439847,15.215,26,-9.3703e-05,10,-6.69227e-06,-1.81773, , , ,-0.000439847,

File: 20221101_1-115_003_TrumpetPlot_ParaChange_from10_every3_11_CV_C01_26.csv
mode,ox/red,error,control changes,counter inc.,time/s,control/V,Ewe/V,<I>/mA,cycle number,(Q-Qo)/C,I Range,P/W,log(|I|),Tafel slope mV/dec,alpha_eff,dI/d(E-IR),E-IR/V,
2,1,0,1,0,52417.9,2.44065e-05,-0.000248974,9.40483,27,0.0000000E+000,10,-2.34156e-06,-2.02665, , , ,-0.000248974,
2,1,0,1,0,52417.9,0.0101427,0.00981534,12.5118,27,0.000282624,10,0.000122807,-1.90268,0.138264,0.426719,207.276,0.00981534,
2,1,0,1,0,52418,0.0205441,0.0201745,14.2979,27,0.000632621,10,0.000288451,-1.84473,0.226467,0.260523,145.189,0.0201745,
2,1,0,1,0,52418,0.0309482,0.0306036,15.6455,27,0.00102276,10,0.000478807,-1.80561,0.309662,0.19053,116.224,0.03060355,
2,1,0,1,0,52418,0.0413439,0.040951,16.7629,27,0.00144451,10,0.000686458,-1.77565,0.382115,0.154404,100.913,0.040951,
2,1,0,1,0,52418,0.0517425,0.0513928,17.7624,27,0.00189365,10,0.000912861,-1.7505,0.431649,0.136685,94.7795,0.0513928,
2,1,0,1,0,52418.1,0.0621438,0.0617795,18.7412,27,0.00236843,10,0.00115782,-1.7272,0.45971,0.128342,93.8755,0.0617795,
2,1,0,1,0,52418.1,0.0725479,0.0721821,19.7281,27,0.00286858,10,0.00142401,-1.70492,0.470803,0.125318,96.4653,0.0721821,
2,1,0,1,0,52418.1,0.0829437,0.0825667,20.7376,27,0.00339459,10,0.00171224,-1.68324,0.480543,0.122778,99.361,0.0825667,
2,1,0,1,0,52418.1,0.0933422,0.0929979,21.7565,27,0.00394718,10,0.00202331,-1.66241,0.515172,0.114525,97.2554,0.0929979,
2,1,0,1,0,52418.2,0.103749,0.103351,22.7756,27,0.00452597,10,0.00235387,-1.64253,0.51577,0.114392,101.651,0.103351,
2,1,0,1,0,52418.2,0.114148,0.113822,23.8232,27,0.00513178,10,0.0027116,-1.623,0.527747,0.111796,103.904,0.113822,
2,1,0,1,0,52418.2,0.124543,0.124198,24.9451,27,0.00576555,10,0.00309814,-1.60301,0.503544,0.117169,114.091,0.124198,
2,1,0,1,0,52418.2,0.134942,0.134567,26.2057,27,0.00643049,10,0.00352642,-1.5816,0.470984,0.12527,128.19,0.134567,
2,1,0,1,0,52418.3,0.145349,0.145016,27.565,27,0.00712959,10,0.00399737,-1.55964,0.50501,0.116829,125.554,0.145016,
2,1,0,1,0,52418.3,0.155747,0.155421,28.8051,27,0.00786256,10,0.00447692,-1.54053,0.586748,0.100554,112.956,0.155421,
2,1,0,1,0,52418.3,0.166143,0.165788,29.835,27,0.00862569,10,0.0049463,-1.52527,0.842038,0.0700681,81.557,0.165788,
2,1,0,1,0,52418.4,0.176542,0.176209,30.4187,27,0.00941052,10,0.00536005,-1.51686,3.22266,0.0183079,21.7067,0.176209,
2,1,0,1,0,52418.4,0.186949,0.186605,30.2304,27,0.0102007,10,0.00564114,-1.51956,-1.13338,-0.0520565,-61.3061,0.186605,
2,1,0,1,0,52418.4,0.197347,0.196987,29.1466,27,0.0109743,10,0.0057415,-1.53541,-0.471393,-0.125161,-142.198,0.196987,
2,1,0,1,0,52418.4,0.207743,0.207418,27.3488,27,0.0117097,10,0.00567264,-1.56306,-0.318943,-0.184986,-197.226,0.207418,
2,1,0,1,0,52418.5,0.218141,0.217823,25.1723,27,0.0123926,10,0.0054831,-1.59908,-0.271994,-0.216917,-213.066,0.217823,
2,1,0,1,0,52418.5,0.228548,0.228218,23.0374,27,0.0130186,10,0.00525753,-1.63757,-0.271578,-0.217249,-195.32,0.228218,
2,1,0,1,0,52418.5,0.238947,0.238632,21.1602,27,0.0135923,10,0.0050495,-1.67448,-0.302003,-0.195363,-161.456,0.238632,
2,1,0,1,0,52418.5,0.249343,0.249037,19.6233,27,0.0141217,10,0.00488692,-1.70723,-0.340853,-0.173095,-132.617,0.249037,
2,1,0,1,0,52418.6,0.259741,0.259436,18.3777,27,0.014615,10,0.00476784,-1.73571,-0.394788,-0.149447,-107.247,0.2594361,
2,1,0,1,0,52418.6,0.270148,0.269809,17.3793,27,0.0150794,10,0.00468909,-1.75997,-0.469621,-0.125633,-85.2933,0.269809,
2,1,0,1,0,52418.6,0.280547,0.280238,16.5736,27,0.0155203,10,0.00464456,-1.78058,-0.546799,-0.107901,-69.7996,0.280238,
2,1,0,1,0,52418.6,0.290942,0.290605,15.9056,27,0.0159422,10,0.00462225,-1.79845,-0.622065,-0.0948455,-58.8651,0.290605,
2,1,0,0,0,52418.7,0.300012,0.299727,15.4013,27,0.0162974,10,0.0046162,-1.81244,0.00149279,39.5234,21351.2,0.299727,
2,1,0,1,0,52418.7,0.290704,0.290384,6.42689,27,0.0165323,10,0.00186627,-2.192,0.0237619,2.48296,621.702,0.290384,
2,1,0,1,0,52418.7,0.280305,0.280009,1.47881,27,0.016629,10,0.000414081,-2.83009,0.00745833,7.91062,370.767,0.280009,
2,0,0,1,0,52418.7,0.269909,0.269594,-1.62375,27,0.0166241,10,-0.000437753,-2.78948,-0.0135941,-4.34013,244.779,0.269594,
2,0,0,1,0,52418.8,0.2595,0.259151,-3.75439,27,0.0165524,10,-0.000972952,-2.42546,-0.0489599,-1.20507,173.976,0.259151,
2,0,0,1,0,52418.8,0.249104,0.248797,-5.30097,27,0.0164336,10,-0.00131887,-2.27564,-0.0956014,-0.617146,126.879,0.248797,
2,0,0,1,0,52418.8,0.238705,0.238384,-6.47943,27,0.0162797,10,-0.00154459,-2.18846,-0.147447,-0.400143,101.062,0.238384,
2,0,0,1,0,52418.8,0.22831,0.227979,-7.42376,27,0.0160983,10,-0.00169246,-2.12938,-0.202446,-0.291435,84.4821,0.227979,
2,0,0,1,0,52418.9,0.2179,0.217588,-8.23399,27,0.0158943,10,-0.00179162,-2.08439,-0.26614,-0.221688,71.0533,0.217588,
2,0,0,1,0,52418.9,0.207504,0.207156,-8.90713,27,0.0156713,10,-0.00184516,-2.05026,-0.332236,-0.177585,61.7857,0.207156,
2,0,0,1,0,52418.9,0.197106,0.196785,-9.52669,27,0.0154312,10,-0.00187471,-2.02106,-0.381779,-0.15454,57.5254,0.196785,
2,0,0,1,0,52418.9,0.18671,0.186355,-10.1175,27,0.0151757,10,-0.00188545,-1.99493,-0.422884,-0.139518,55.0274,0.186355,
2,0,0,1,0,52419,0.1763,0.175973,-10.6982,27,0.0149051,10,-0.00188259,-1.97069,-0.440472,-0.133947,55.8996,0.175973,
2,0,0,1,0,52419,0.165905,0.165547,-11.3051,27,0.0146191,10,-0.00187153,-1.94672,-0.426242,-0.138419,61.1314,0.165547,
2,0,0,1,0,52419,0.155506,0.155175,-12.0306,27,0.0143161,10,-0.00186684,-1.91971,-0.349901,-0.168619,79.1793,0.155175,
2,0,0,1,0,52419,0.145105,0.144791,-12.969,27,0.0139917,10,-0.0018778,-1.88709,-0.280794,-0.210119,106.445,0.144791,
2,0,0,1,0,52419.1,0.134701,0.13438,-14.3271,27,0.0136379,10,-0.00192528,-1.84384,-0.2089,-0.282431,158.152,0.13438,
2,0,0,1,0,52419.1,0.124305,0.123949,-16.2847,27,0.0132411,10,-0.00201847,-1.78822,-0.173977,-0.339125,215.714,0.123949,
2,0,0,1,0,52419.1,0.113906,0.113602,-18.6692,27,0.0127869,10,-0.00212085,-1.72888,-0.181792,-0.324547,236.368,0.113602,
2,0,0,1,0,52419.2,0.103505,0.103178,-21.1125,27,0.0122694,10,-0.00217835,-1.67546,-0.21741,-0.271376,223.159,0.103178,
2,0,0,1,0,52419.2,0.0931008,0.0928059,-23.3346,27,0.0116911,10,-0.00216559,-1.632,-0.266326,-0.221533,201.651,0.0928059,
2,0,0,1,0,52419.2,0.0827051,0.0824405,-25.2317,27,0.0110585,10,-0.00208011,-1.59805,-0.366858,-0.160825,158.14,0.0824405,
2,0,0,1,0,52419.2,0.0723065,0.0719594,-26.6251,27,0.0103833,10,-0.00191592,-1.57471,-0.556347,-0.106049,110.065,0.0719594,
2,0,0,1,0,52419.3,0.0618997,0.0615642,-27.5381,27,0.00967806,10,-0.00169536,-1.56007,-1.00699,-0.0585906,62.9239,0.0615642,
2,0,0,1,0,52419.3,0.0515011,0.0511765,-28.0006,27,0.00895533,10,-0.00143297,-1.55283,-2.20517,-0.0267553,29.2095,0.0511765,
2,0,0,1,0,52419.3,0.0411053,0.040793,-28.1583,27,0.00822485,10,-0.00114866,-1.55039,-16.1222,-0.00365955,4.01937,0.040793,
2,0,0,1,0,52419.3,0.0307068,0.0303787,-28.1101,27,0.0074929,10,-0.000853949,-1.55114,7.12171,0.00828453,-9.09163,0.0303787,
2,0,0,1,0,52419.4,0.0202999,0.0199518,-27.9596,27,0.0067637,10,-0.000557843,-1.55347,2.94158,0.0200573,-21.875,0.0199518,
2,0,0,1,0,52419.4,0.00990136,0.00959266,-27.6474,27,0.00604056,10,-0.000265212,-1.55835,1.71732,0.0343558,-37.0508,0.00959266,
2,0,0,1,0,52419.4,-0.000494411,-0.000907487,-27.1951,27,0.00532744,10,2.46792e-05,-1.56551,1.20067,0.0491391,-52.0983,-0.000907487,
2,0,0,1,0,52419.4,-0.010893,-0.011273,-26.5291,27,0.00462884,10,0.000299062,-1.57628,0.896868,0.0657845,-68.1173,-0.011273,
2,0,0,1,0,52419.5,-0.0212998,-0.0217254,-25.8135,27,0.00394839,10,0.000560808,-1.58815,0.847517,0.0696152,-70.1153,-0.0217254,
2,0,0,1,0,52419.5,-0.0316984,-0.0320686,-25.1264,27,0.00328656,10,0.00080577,-1.59987,0.940724,0.0627176,-61.4894,-0.0320686,
2,0,0,1,0,52419.5,-0.0420942,-0.0424956,-24.5567,27,0.00264105,10,0.00104355,-1.60983,1.20224,0.0490752,-47.0719,-0.04249559,
2,0,0,1,0,52419.5,-0.0524927,-0.0528399,-24.1796,27,0.00200775,10,0.00127765,-1.61655,2.06278,0.0286022,-27.0123,-0.05283986,
2,0,0,1,0,52419.6,-0.0628996,-0.0632371,-23.9957,27,0.00138197,10,0.00151742,-1.61987,4.96783,0.0118764,-11.1165,-0.0632371,
2,0,0,1,0,52419.6,-0.0732982,-0.0736811,-23.9384,27,0.000759316,10,0.00176381,-1.6209,-16.1726,-0.00364815,3.40985,-0.0736811,
2,0,0,1,0,52419.6,-0.0836939,-0.0840604,-24.0425,27,0.000135817,10,0.00202102,-1.61902,-3.05223,-0.0193301,18.1491,-0.0840604,
2,0,0,1,0,52419.6,-0.0940925,-0.0944916,-24.2972,27,-0.000492307,10,0.00229588,-1.61444,-1.79456,-0.0328771,31.1687,-0.0944916,
2,0,0,1,1,52419.7,-0.0978574,-0.0982963,-20.6806,27,-0.000978461,10,0.00203283,-1.68444,-0.0336517,-1.75326,1399.87,-0.0982963,
2,0,0,1,1,52419.7,-0.0874588,-0.0879012,-10.8148,27,-0.00137389,10,0.00095063,-1.96598,-0.0341529,-1.72753,727.233,-0.08790116,
2,0,0,1,1,52419.7,-0.077052,-0.0774487,-4.4342,27,-0.00156712,10,0.000343423,-2.35318,-0.0187972,-3.13876,526.55,-0.0774487,
2,1,0,1,1,52419.7,-0.0666562,-0.0670642,0.356075,27,-0.00161713,10,-2.38799e-05,-3.44846,0.0303221,1.94577,405.772,-0.0670642,
2,1,0,1,1,52419.8,-0.0562576,-0.0566796,4.11827,27,-0.00155675,10,-0.000233422,-2.38528,0.0283865,2.07845,324.8,-0.0566796,
2,1,0,1,1,52419.8,-0.0458563,-0.0462876,7.16434,27,-0.00140839,10,-0.00033162,-2.14482,0.0624559,0.944667,261.707,-0.0462876,
2,1,0,1,1,52419.8,-0.0354522,-0.0358384,9.625,27,-0.00118884,10,-0.000344944,-2.0166,0.104333,0.565495,211.323,-0.0358384,
2,1,0,1,1,52419.8,-0.0250564,-0.0254623,11.5868,27,-0.000911854,10,-0.000295027,-1.93603,0.156096,0.377974,170.738,-0.0254623,
2,1,0,1,1,52419.9,-0.0146579,-0.0150247,13.1765,27,-0.000588958,10,-0.000197972,-1.8802,0.225635,0.261484,134.167,-0.0150247,
2,1,0,1,1,52419.9,-0.00425653,-0.00468042,14.4187,27,-0.000229503,10,-6.74854e-05,-1.84107,0.318038,0.185512,104.287,-0.00468042,
2,1,0,0,1,52419.9,-7.54729e-05,-0.000554371,14.8346,27,-7.58061e-05,10,-8.2239e-06,-1.82872, , , ,-0.000554371,