Folder: Figs_alphaMnO2_OER_Tafel_sleope/Figure_codes/Fig_3-5/rawdata_trumpetplot_data/after 10th (part 21)

File: 20221101_1-115_003_TrumpetPlot_ParaChange_from10_every3_03_CV_C01_5.csv
mode,ox/red,error,control changes,counter inc.,time/s,control/V,Ewe/V,<I>/mA,cycle number,(Q-Qo)/C,I Range,P/W,log(|I|),Tafel slope mV/dec,alpha_eff,dI/d(E-IR),E-IR/V,
2,0,0,1,0,10790.7,2.44065e-05,-0.000268062,-0.107026,6,0.0000000E+000,10,2.86897e-08,-3.97051, , , ,-0.000268062,
2,1,0,1,0,10792.1,0.00729041,0.0069763,0.213476,6,0.000280358,10,1.48927e-06,-3.67065,0.0830396,0.710505,5.88696,0.0069763,
2,1,0,1,0,10793.6,0.0147815,0.0144323,0.245085,6,0.000651391,10,3.53715e-06,-3.61068,0.141428,0.417173,4.00427,0.0144323,
2,1,0,1,0,10795.1,0.0222725,0.0219474,0.27422,6,0.00106645,10,6.01842e-06,-3.5619,0.169627,0.347823,3.69641,0.0219474,
2,1,0,1,0,10796.6,0.0297635,0.0294521,0.301449,6,0.00152136,10,8.87828e-06,-3.52079,0.212062,0.278221,3.26421,0.0294521,
2,1,0,1,0,10798.1,0.0372545,0.036948,0.327673,6,0.00201707,10,1.21069e-05,-3.48456,0.204003,0.289211,3.70747,0.036948,
2,1,0,1,0,10799.6,0.0447456,0.0444051,0.355032,6,0.00255386,10,1.57652e-05,-3.44973,0.228268,0.258468,3.57195,0.0444051,
2,1,0,1,0,10801.1,0.0522367,0.0519041,0.379685,6,0.0031301,10,1.97072e-05,-3.42058,0.217066,0.271806,4.01382,0.0519041,
2,1,0,1,0,10802.6,0.0597277,0.0594067,0.405052,6,0.00374369,10,2.40628e-05,-3.39249,0.339298,0.173888,2.74074,0.05940669,
2,1,0,1,0,10804.1,0.0672187,0.0669377,0.427838,6,0.0043918,10,2.86385e-05,-3.36872,0.40558,0.145471,2.41565,0.0669377,
2,1,0,1,0,10805.6,0.0747092,0.074357,0.445347,6,0.00507083,10,3.31147e-05,-3.3513,0.468979,0.125805,2.1899,0.074357,
2,1,0,0,0,10807.1,0.0822001,0.0818975,0.461487,6,0.00577717,10,3.77947e-05,-3.33584,0.494201,0.119385,2.16098,0.0818975,
2,1,0,1,0,10808.6,0.0896911,0.0893692,0.48591,6,0.00651355,10,4.34254e-05,-3.31344,0.298737,0.197498,3.75632,0.0893692,
2,1,0,0,0,10810.1,0.097182,0.0968684,0.522586,6,0.0072945,10,5.06221e-05,-3.28184,0.186711,0.315996,6.44428,0.0968684,
2,1,0,1,0,10811.6,0.104673,0.104371,0.572419,6,0.00813801,10,5.97438e-05,-3.24229,0.189754,0.310929,6.91258,0.104371,
2,1,0,0,0,10813.1,0.112164,0.111846,0.612355,6,0.00905152,10,6.84892e-05,-3.213,0.31022,0.190188,4.53924,0.111846,
2,1,0,1,0,10814.6,0.119655,0.119321,0.646739,6,0.0100232,10,7.71698e-05,-3.18927,0.381791,0.154535,3.90842,0.1193214,
2,1,0,0,0,10816.1,0.127146,0.126821,0.678309,6,0.0110446,10,8.60236e-05,-3.16857,0.395322,0.149245,3.96833,0.126821,
2,1,0,1,0,10817.6,0.134637,0.134339,0.694277,6,0.0121074,10,9.32683e-05,-3.15847,-0.720154,-0.081927,-2.21736,0.134339,
2,1,0,1,0,10819.1,0.142127,0.141804,0.635246,6,0.0131407,10,9.00802e-05,-3.19706,-0.110661,-0.533161,-13.1332,0.1418038,
2,1,0,1,0,10820.6,0.149618,0.149284,0.513509,6,0.014029,10,7.66587e-05,-3.28945,-0.0734255,-0.803535,-16.1259,0.149284,
2,1,0,1,0,10822.1,0.157109,0.156797,0.417265,6,0.0147459,10,6.54259e-05,-3.37959,-0.0968791,-0.609007,-9.949,0.156797,
2,1,0,1,0,10823.6,0.1646,0.164278,0.367946,6,0.0153553,10,6.04456e-05,-3.43422,-0.165151,-0.357249,-5.12344,0.164278,
2,1,0,1,0,10825.1,0.172091,0.171799,0.337161,6,0.015906,10,5.79238e-05,-3.47216,-0.287543,-0.205187,-2.70786,0.171799,
2,1,0,1,0,10826.6,0.179582,0.179248,0.320347,6,0.0164231,10,5.74216e-05,-3.49438,-0.469817,-0.125581,-1.57403,0.179248,
2,1,0,1,0,10828.1,0.187074,0.186771,0.31126,6,0.0169195,10,5.81343e-05,-3.50688,-0.594533,-0.0992375,-1.19965,0.186771,
2,1,0,1,0,10829.6,0.194564,0.194258,0.301019,6,0.0174019,10,5.84754e-05,-3.52141,-0.799743,-0.0737737,-0.870746,0.194258,
2,1,0,1,0,10831.1,0.202056,0.201757,0.295689,6,0.017874,10,5.96572e-05,-3.52917,-0.512363,-0.115153,-1.32565,0.201757,
2,1,0,1,0,10832.6,0.209547,0.209208,0.290239,6,0.0183379,10,6.07204e-05,-3.53724,-1.2294,-0.0479907,-0.544062,0.209208,
2,1,0,1,0,10834.1,0.217038,0.2167,0.286791,6,0.0187944,10,6.21477e-05,-3.54243,-1.71738,-0.0343546,-0.385212,0.2167,
2,1,0,1,0,10835.6,0.224529,0.224203,0.283695,6,0.0192458,10,6.36053e-05,-3.54715,-2.76263,-0.0213565,-0.235691,0.224203,
2,1,0,1,0,10837.1,0.232019,0.231729,0.280166,6,0.0196927,10,6.49224e-05,-3.55259,-1.40321,-0.0420465,-0.460275,0.231729,
2,1,0,0,0,10838.6,0.23951,0.23918,0.279124,6,0.0201358,10,6.6761e-05,-3.5542,3.81761,0.0154547,0.167891,0.23918,
2,1,0,1,0,10840.1,0.247001,0.24671,0.276055,6,0.0205755,10,6.81055e-05,-3.559,-0.699858,-0.0843029,-0.907831,0.24671,
2,1,0,0,0,10841.6,0.254492,0.254196,0.274046,6,0.0210118,10,6.96614e-05,-3.56218,-1.03516,-0.0569963,-0.610344,0.2541956,
2,1,0,1,0,10843.1,0.261983,0.261606,0.272408,6,0.021445,10,7.12634e-05,-3.56478,-1.19663,-0.0493052,-0.522509,0.261606,
2,1,0,0,0,10844.6,0.269474,0.269189,0.26978,6,0.0218753,10,7.26216e-05,-3.56899,2.42318,0.0243481,0.255781,0.269189,
2,1,0,1,0,10846.1,0.276965,0.276674,0.267253,6,0.0223031,10,7.3942e-05,-3.57308,-0.85383,-0.0691004,-0.723595,0.276674,
2,1,0,0,0,10847.6,0.284456,0.284151,0.266685,6,0.022728,10,7.57788e-05,-3.574,-1.19535,-0.0493581,-0.511486,0.284151,
2,1,0,1,0,10849.1,0.291947,0.291639,0.264756,6,0.0231498,10,7.72131e-05,-3.57715,-2.51244,-0.0234831,-0.243003,0.291639,
2,1,0,1,0,10850.5,0.299437,0.299157,0.262336,6,0.0235692,10,7.84794e-05,-3.58114,-0.00221143,-26.6796,-125.63,0.299157,
2,0,0,1,0,10851.9,0.293744,0.293427,-0.0200894,6,0.0235951,10,-5.89477e-06,-4.69703,-0.00699419,-8.43557,5.44405,0.293427,
2,0,0,1,0,10853.4,0.286253,0.285987,-0.0484061,6,0.0235172,10,-1.38435e-05,-4.3151,-0.0420712,-1.40238,2.68251,0.285987,
2,0,0,0,0,10854.9,0.278763,0.27846,-0.0694981,6,0.023404,10,-1.93524e-05,-4.15803,-0.0675121,-0.873917,2.33439,0.27846,
2,0,0,1,0,10856.4,0.271272,0.270983,-0.0839821,6,0.0232645,10,-2.27577e-05,-4.07581,-0.100786,-0.585401,1.94115,0.270983,
2,0,0,0,0,10857.9,0.263781,0.26349,-0.0973211,6,0.0231031,10,-2.56431e-05,-4.01179,-0.121493,-0.485625,1.85742,0.26349,
2,0,0,1,0,10859.4,0.25629,0.256016,-0.10917,6,0.0229235,10,-2.79493e-05,-3.9619,-0.183579,-0.321388,1.35861,0.256016,
2,0,0,0,0,10860.9,0.248799,0.248491,-0.119983,6,0.0227275,10,-2.98146e-05,-3.92088,-0.189153,-0.311916,1.46454,0.248491,
2,0,0,1,0,10862.4,0.241308,0.240946,-0.130663,6,0.0225162,10,-3.14826e-05,-3.88385,-0.281724,-0.209425,1.06411,0.2409458,
2,0,0,0,0,10863.9,0.233817,0.2335,-0.13827,6,0.0222905,10,-3.2286e-05,-3.85927,-0.367917,-0.160362,0.868966,0.2334996,
2,0,0,1,0,10865.4,0.226326,0.226013,-0.147369,6,0.0220513,10,-3.33073e-05,-3.83159,-0.349455,-0.168834,0.979359,0.226013,
2,0,0,0,0,10866.9,0.218835,0.218533,-0.156076,6,0.0217983,10,-3.41078e-05,-3.80666,-0.2485,-0.237425,1.4539,0.218533,
2,0,0,1,0,10868.4,0.211344,0.211076,-0.166088,6,0.0215313,10,-3.50571e-05,-3.77966,-0.332533,-0.177426,1.1493,0.211076,
2,0,0,1,0,10869.9,0.203854,0.203532,-0.173859,6,0.0212501,10,-3.53859e-05,-3.7598,-0.468193,-0.126016,0.867122,0.203532,
2,0,0,1,0,10871.4,0.196363,0.19603,-0.186438,6,0.0209542,10,-3.65475e-05,-3.72947,-0.250693,-0.235347,1.70378,0.19603,
2,0,0,1,0,10872.9,0.188871,0.188584,-0.198039,6,0.0206408,10,-3.73471e-05,-3.70325,-0.194368,-0.303548,2.3445,0.188584,
2,0,0,1,0,10874.4,0.181381,0.181092,-0.214642,6,0.0203073,10,-3.887e-05,-3.66829,-0.228592,-0.258102,2.1452,0.181092,
2,0,0,1,0,10875.9,0.173889,0.173598,-0.231778,6,0.0199496,10,-4.02363e-05,-3.63493,-0.176015,-0.335199,3.02033,0.173598,
2,0,0,1,0,10877.4,0.166398,0.166092,-0.255784,6,0.0195601,10,-4.24836e-05,-3.59213,-0.15575,-0.378813,3.80768,0.166092,
2,0,0,1,0,10878.9,0.158907,0.158599,-0.29005,6,0.019126,10,-4.60015e-05,-3.53753,-0.122375,-0.482126,5.516,0.158599,
2,0,0,1,0,10880.4,0.151416,0.151122,-0.35028,6,0.0186224,10,-5.29349e-05,-3.45559,-0.0817975,-0.721293,9.87323,0.151122,
2,0,0,1,0,10881.9,0.143925,0.14366,-0.443092,6,0.018007,10,-6.36545e-05,-3.35351,-0.0611284,-0.965181,16.6756,0.14366,
2,0,0,1,0,10883.4,0.136434,0.136085,-0.566903,6,0.0172252,10,-7.7147e-05,-3.24649,-0.0794346,-0.74275,16.3393,0.136085,
2,0,0,1,0,10884.9,0.128943,0.128655,-0.664724,6,0.0162693,10,-8.552e-05,-3.17736,-0.174539,-0.338033,8.72539,0.128655,
2,0,0,0,0,10886.4,0.121453,0.121141,-0.70392,6,0.0152106,10,-8.52737e-05,-3.15248,-1.92403,-0.0306648,0.838147,0.121141,
2,0,0,1,0,10887.9,0.113962,0.113666,-0.691943,6,0.014134,10,-7.86506e-05,-3.15993,0.52399,0.112598,-3.04302,0.113666,
2,0,0,0,0,10889.4,0.106471,0.106137,-0.667904,6,0.0130863,10,-7.08895e-05,-3.17529,0.454832,0.129718,-3.38881,0.106137,
2,0,0,1,0,10890.9,0.0989799,0.0986477,-0.636424,6,0.0120812,10,-6.27818e-05,-3.19625,0.36814,0.160265,-3.97991,0.0986477,
2,0,0,0,0,10892.4,0.0914889,0.0911369,-0.60828,6,0.0111239,10,-5.54367e-05,-3.2159,0.346595,0.170228,-4.01937,0.09113685,
2,0,0,1,0,10893.9,0.083998,0.0836843,-0.575324,6,0.0102127,10,-4.81456e-05,-3.24009,0.29352,0.201008,-4.51389,0.0836843,
2,0,0,0,0,10895.4,0.076507,0.0761692,-0.553643,6,0.00934106,10,-4.21706e-05,-3.25677,0.446028,0.132279,-2.85229,0.0761692,
2,0,0,1,0,10896.9,0.0690161,0.0687177,-0.53275,6,0.0085013,10,-3.66094e-05,-3.27348,0.470926,0.125285,-2.61063,0.06871774,
2,0,0,0,0,10898.4,0.0615251,0.0612228,-0.516289,6,0.00768841,10,-3.16087e-05,-3.28711,0.487719,0.120971,-2.44095,0.0612228,
2,0,0,1,0,10899.9,0.0540342,0.0537066,-0.498146,6,0.00690244,10,-2.67538e-05,-3.30264,0.633975,0.0930636,-1.80754,0.0537066,
2,0,0,1,0,10901.4,0.0465436,0.0462449,-0.479759,6,0.00614345,10,-2.21864e-05,-3.31898,0.493662,0.119515,-2.24043,0.0462449,
2,0,0,1,0,10902.9,0.0390526,0.0387774,-0.462753,6,0.00541172,10,-1.79444e-05,-3.33465,0.379283,0.155557,-2.80043,0.0387774,
2,0,0,1,0,10904.4,0.0315615,0.0312784,-0.444189,6,0.00470721,10,-1.38935e-05,-3.35243,0.388417,0.151899,-2.63569,0.0312784,
2,0,0,1,0,10905.9,0.0240706,0.0237684,-0.428312,6,0.00402806,10,-1.01803e-05,-3.36824,0.632372,0.0932995,-1.56448,0.0237684,
2,0,0,1,0,10907.4,0.0165795,0.0162224,-0.418663,6,0.00336857,10,-6.79172e-06,-3.37814,1.186,0.0497472,-0.81208,0.0162224,
2,0,0,1,0,10908.8,0.00908846,0.00875499,-0.413259,6,0.00272119,10,-3.61808e-06,-3.38378,5.19483,0.0113574,-0.183381,0.00875499,
2,0,0,1,0,10910.3,0.00159739,0.00120914,-0.417307,6,0.00207518,10,-5.04584e-07,-3.37954, , , ,0.00120914,
2,0,0,0,0,10910.6,0.000199195,-0.000138268,-0.415197,6,0.00195399,10,5.74084e-08,-3.38175, , , ,-0.000138268,

File: 20221101_1-115_003_TrumpetPlot_ParaChange_from10_every3_03_CV_C01_6.csv
mode,ox/red,error,control changes,counter inc.,time/s,control/V,Ewe/V,<I>/mA,cycle number,(Q-Qo)/C,I Range,P/W,log(|I|),Tafel slope mV/dec,alpha_eff,dI/d(E-IR),E-IR/V,
2,0,0,1,0,12760.8,2.44065e-05,-0.000401673,-0.110207,7,0.0000000E+000,10,4.4267e-08,-3.95779, , , ,-0.000401673,
2,1,0,1,0,12762.3,0.00729041,0.00697332,0.211478,7,0.000272487,10,1.4747e-06,-3.67474,0.085441,0.690535,5.61018,0.00697332,
2,1,0,1,0,12763.7,0.0147815,0.0144798,0.242925,7,0.000637258,10,3.51752e-06,-3.61453,0.139147,0.424013,4.00909,0.0144798,
2,1,0,1,0,12765.2,0.0222725,0.0219231,0.270383,7,0.00104631,10,5.92762e-06,-3.56802,0.151804,0.388659,4.09259,0.0219231,
2,1,0,1,0,12766.7,0.0297635,0.0294668,0.298414,7,0.00149654,10,8.7933e-06,-3.52518,0.185056,0.318823,3.70174,0.0294668,
2,1,0,1,0,12768.2,0.0372545,0.0369375,0.324216,7,0.00198804,10,1.19757e-05,-3.48917,0.21293,0.277086,3.52508,0.0369375,
2,1,0,1,0,12769.7,0.0447456,0.0444294,0.352223,7,0.00252035,10,1.56491e-05,-3.45318,0.241575,0.244231,3.36251,0.0444294,
2,1,0,1,0,12771.2,0.0522367,0.0519254,0.377295,7,0.00309184,10,1.95912e-05,-3.42332,0.222135,0.265605,3.90977,0.0519254,
2,1,0,1,0,12772.7,0.0597277,0.0593939,0.401547,7,0.00370038,10,2.38494e-05,-3.39626,0.307115,0.19211,3.00696,0.0593939,
2,1,0,1,0,12774.2,0.0672187,0.0668796,0.422953,7,0.00434203,10,2.82869e-05,-3.37371,0.391849,0.150568,2.4754,0.0668796,
2,1,0,1,0,12775.7,0.0747092,0.0744111,0.439521,7,0.00501315,10,3.27053e-05,-3.35702,0.513331,0.114936,1.97458,0.0744111,
2,1,0,0,0,12777.2,0.0822001,0.0818763,0.455959,7,0.00571064,10,3.73322e-05,-3.34107,0.443566,0.133013,2.377,0.08187633,
2,1,0,1,0,12778.7,0.0896911,0.0893586,0.4814,7,0.00643759,10,4.30172e-05,-3.31749,0.277349,0.212729,3.99593,0.0893586,
2,1,0,0,0,12780.2,0.097182,0.0968673,0.517502,7,0.00720869,10,5.01291e-05,-3.28609,0.186597,0.31619,6.37123,0.0968673,
2,1,0,1,0,12781.7,0.104673,0.104368,0.566162,7,0.0080415,10,5.90889e-05,-3.24706,0.207542,0.284279,6.23786,0.104368,
2,1,0,0,0,12783.2,0.112164,0.111856,0.605605,7,0.00894232,10,6.77406e-05,-3.21781,0.343241,0.171891,4.04203,0.111856,
2,1,0,1,0,12784.7,0.119655,0.119304,0.63644,7,0.00989823,10,7.59302e-05,-3.19624,0.426606,0.138301,3.43894,0.119304,
2,1,0,0,0,12786.2,0.127146,0.126874,0.665127,7,0.0109009,10,8.4387e-05,-3.1771,0.412758,0.142941,3.72411,0.126874,
2,1,0,1,0,12787.7,0.134637,0.13436,0.67884,7,0.0119408,10,9.12089e-05,-3.16823,-0.608918,-0.0968931,-2.56289,0.13436,
2,1,0,1,0,12789.2,0.142127,0.14183,0.618921,7,0.0129486,10,8.77817e-05,-3.20837,-0.109128,-0.540649,-12.9781,0.1418303,
2,1,0,1,0,12790.7,0.149618,0.149293,0.500804,7,0.0138134,10,7.47668e-05,-3.30033,-0.0733233,-0.804655,-15.7395,0.149293,
2,1,0,1,0,12792.2,0.157109,0.156797,0.408106,7,0.0145126,10,6.39897e-05,-3.38923,-0.100856,-0.584992,-9.32991,0.156797,
2,1,0,1,0,12793.7,0.1646,0.16425,0.360418,7,0.0151087,10,5.91985e-05,-3.44319,-0.187615,-0.314474,-4.42412,0.16425,
2,1,0,1,0,12795.2,0.172091,0.171785,0.333773,7,0.0156511,10,5.73372e-05,-3.47655,-0.260897,-0.226143,-2.96543,0.171785,
2,1,0,1,0,12796.7,0.179582,0.179291,0.318693,7,0.0161636,10,5.71387e-05,-3.49663,-0.76522,-0.077102,-0.964795,0.179291,
2,1,0,1,0,12798.2,0.187074,0.186731,0.310136,7,0.0166583,10,5.79118e-05,-3.50845,-0.465884,-0.126641,-1.53023,0.186731,
2,1,0,1,0,12799.7,0.194564,0.194253,0.302426,7,0.0171403,10,5.87472e-05,-3.51938,-1.00326,-0.0588082,-0.694218,0.1942531,
2,1,0,1,0,12801.2,0.202056,0.201741,0.297516,7,0.0176128,10,6.00211e-05,-3.52649,-1.52649,-0.0386509,-0.447899,0.201741,
2,1,0,1,0,12802.7,0.209547,0.209252,0.292798,7,0.0180782,10,6.12684e-05,-3.53343,-0.954583,-0.0618071,-0.70435,0.209252,
2,1,0,1,0,12804.2,0.217038,0.216725,0.288017,7,0.0185362,10,6.24207e-05,-3.54058,-1.53546,-0.0384249,-0.432473,0.216725,
2,1,0,1,0,12805.7,0.224529,0.224244,0.284808,7,0.018989,10,6.38664e-05,-3.54545,-3.3534,-0.0175941,-0.195089,0.224244,
2,1,0,1,0,12807.2,0.232019,0.231713,0.281387,7,0.0194368,10,6.52009e-05,-3.5507,-4.61492,-0.0127846,-0.140346,0.231713,
2,1,0,0,0,12808.7,0.23951,0.239216,0.279706,7,0.0198807,10,6.69102e-05,-3.5533,-1.78287,-0.0330928,-0.361753,0.239216,
2,1,0,1,0,12810.2,0.247001,0.24672,0.276875,7,0.0203211,10,6.83105e-05,-3.55772,-1.83886,-0.0320851,-0.347228,0.2467197,
2,1,0,0,0,12811.7,0.254492,0.25417,0.27493,7,0.0207579,10,6.9879e-05,-3.56078,-1.54,-0.0383116,-0.411651,0.25417,
2,1,0,1,0,12813.2,0.261983,0.261647,0.272954,7,0.0211916,10,7.14176e-05,-3.56391,-1.88226,-0.0313453,-0.332941,0.261647,
2,1,0,0,0,12814.7,0.269474,0.269194,0.271333,7,0.0216219,10,7.30412e-05,-3.5665,9.32858,0.00632465,0.0665945,0.269194,
2,1,0,1,0,12816.2,0.276965,0.27662,0.269181,7,0.0220497,10,7.44607e-05,-3.56996,-3.45814,-0.0170612,-0.179879,0.27662,
2,1,0,0,0,12817.7,0.284456,0.284202,0.268234,7,0.0224746,10,7.62326e-05,-3.57149,-1.09313,-0.0539737,-0.562616,0.284202,
2,1,0,1,0,12819.2,0.291947,0.291689,0.264382,7,0.0228963,10,7.71175e-05,-3.57777,-1.47339,-0.0400437,-0.414921,0.291689,
2,1,0,1,0,12820.7,0.299437,0.299154,0.262093,7,0.0233149,10,7.84061e-05,-3.58155,-0.00238227,-24.7663,-120.438,0.299154,
2,0,0,1,0,12822,0.293744,0.293463,-0.0190375,7,0.0233448,10,-5.5868e-06,-4.72039,-0.00618369,-9.54123,5.41649,0.293463,
2,0,0,1,0,12823.5,0.286253,0.285916,-0.0470781,7,0.02327,10,-1.34604e-05,-4.32718,-0.0346492,-1.70278,3.16139,0.285916,
2,0,0,0,0,12825,0.278763,0.278478,-0.0687366,7,0.0231591,10,-1.91416e-05,-4.16281,-0.065696,-0.898076,2.36208,0.278478,
2,0,0,1,0,12826.5,0.271272,0.270956,-0.083321,7,0.0230213,10,-2.25764e-05,-4.07925,-0.108229,-0.545141,1.78039,0.270956,
2,0,0,0,0,12828,0.263781,0.263473,-0.0979497,7,0.0228619,10,-2.58071e-05,-4.009,-0.139214,-0.423809,1.61968,0.263473,
2,0,0,1,0,12829.5,0.25629,0.255954,-0.109735,7,0.0226836,10,-2.80872e-05,-3.95965,-0.208065,-0.283565,1.20727,0.255954,
2,0,0,0,0,12831,0.248799,0.248451,-0.119647,7,0.0224888,10,-2.97265e-05,-3.9221,-0.216079,-0.273049,1.27977,0.248451,
2,0,0,1,0,12832.5,0.241308,0.241058,-0.129299,7,0.0222786,10,-3.11687e-05,-3.8884,-0.283764,-0.207919,1.05275,0.241058,
2,0,0,0,0,12834,0.233817,0.233528,-0.139283,7,0.0220539,10,-3.25265e-05,-3.8561,-0.254941,-0.231426,1.25582,0.233528,
2,0,0,1,0,12835.5,0.226326,0.226047,-0.147718,7,0.0218158,10,-3.33912e-05,-3.83057,-0.306102,-0.192746,1.11681,0.226047,
2,0,0,0,0,12837,0.218835,0.218526,-0.157475,7,0.0215642,10,-3.44122e-05,-3.80279,-0.320167,-0.184279,1.12779,0.218526,
2,0,0,1,0,12838.5,0.211344,0.211054,-0.165649,7,0.0212991,10,-3.49608e-05,-3.78081,-0.271153,-0.217589,1.4096,0.211054,
2,0,0,1,0,12840,0.203854,0.203561,-0.174868,7,0.0210193,10,-3.55962e-05,-3.75729,-0.322929,-0.182703,1.25149,0.203561,
2,0,0,1,0,12841.5,0.196363,0.19601,-0.186391,7,0.0207253,10,-3.65345e-05,-3.72958,-0.2933,-0.201159,1.46323,0.19601,
2,0,0,1,0,12843,0.188871,0.188549,-0.197297,7,0.0204137,10,-3.72001e-05,-3.70488,-0.207661,-0.284117,2.19521,0.188549,
2,0,0,1,0,12844.5,0.181381,0.181106,-0.21248,7,0.0200828,10,-3.84814e-05,-3.67268,-0.262609,-0.224669,1.85731,0.181106,
2,0,0,1,0,12846,0.173889,0.173577,-0.229314,7,0.0197288,10,-3.98037e-05,-3.63957,-0.203946,-0.289293,2.58583,0.173577,
2,0,0,1,0,12847.5,0.166398,0.166093,-0.251369,7,0.0193448,10,-4.17505e-05,-3.59969,-0.17519,-0.336777,3.33206,0.166093,
2,0,0,1,0,12849,0.158907,0.158625,-0.28456,7,0.0189194,10,-4.51385e-05,-3.54583,-0.121721,-0.484716,5.41328,0.1586253,
2,0,0,1,0,12850.5,0.151416,0.151074,-0.339331,7,0.0184296,10,-5.12641e-05,-3.46938,-0.082483,-0.715299,9.50904,0.151074,
2,0,0,1,0,12852,0.143925,0.143602,-0.425275,7,0.0178358,10,-6.10705e-05,-3.37133,-0.0645918,-0.913429,15.177,0.143602,
2,0,0,1,0,12853.5,0.136434,0.136093,-0.544043,7,0.0170851,10,-7.40401e-05,-3.26437,-0.0780528,-0.755898,15.9884,0.136093,
2,0,0,1,0,12855,0.128943,0.128646,-0.644751,7,0.0161631,10,-8.29448e-05,-3.19061,-0.158591,-0.372027,9.30512,0.128646,
2,0,0,0,0,12856.5,0.121453,0.121142,-0.688017,7,0.0151328,10,-8.33479e-05,-3.1624,-0.969691,-0.0608441,1.62869,0.121142,
2,0,0,1,0,12858,0.113962,0.113643,-0.681032,7,0.0140764,10,-7.73945e-05,-3.16683,0.681535,0.0865692,-2.30628,0.113643,
2,0,0,0,0,12859.5,0.106471,0.106141,-0.661228,7,0.0130431,10,-7.01831e-05,-3.17965,0.498934,0.118252,-3.06056,0.106141,
2,0,0,1,0,12861,0.0989799,0.098705,-0.633927,7,0.0120473,10,-6.25718e-05,-3.19796,0.446125,0.13225,-3.26387,0.098705,
2,0,0,0,0,12862.5,0.0914889,0.0911337,-0.603691,7,0.0110956,10,-5.50166e-05,-3.21919,0.351575,0.167816,-3.94814,0.0911337,
2,0,0,1,0,12864,0.083998,0.0836737,-0.573428,7,0.0101886,10,-4.79808e-05,-3.24152,0.33317,0.177087,-3.96581,0.0836737,
2,0,0,0,0,12865.5,0.076507,0.0762297,-0.552183,7,0.00932006,10,-4.20927e-05,-3.25792,0.456425,0.129266,-2.7828,0.0762297,
2,0,0,1,0,12867,0.0690161,0.068722,-0.531696,7,0.00848289,10,-3.65392e-05,-3.27434,0.545434,0.108171,-2.25567,0.068722,
2,0,0,0,0,12868.5,0.0615251,0.0612185,-0.515056,7,0.00767201,10,-3.1531e-05,-3.28815,0.564978,0.104429,-2.10816,0.0612185,
2,0,0,1,0,12870,0.0540342,0.0536907,-0.499062,7,0.00688744,10,-2.6795e-05,-3.30185,0.577463,0.102171,-1.98684,0.0536907,
2,0,0,1,0,12871.5,0.0465436,0.0461866,-0.481022,7,0.00612912,10,-2.22168e-05,-3.31783,0.472843,0.124777,-2.34453,0.0461866,
2,0,0,1,0,12873,0.0390526,0.0387056,-0.462695,7,0.00539767,10,-1.79089e-05,-3.3347,0.399115,0.147827,-2.6682,0.0387056,
2,0,0,1,0,12874.5,0.0315615,0.0312336,-0.445321,7,0.00469248,10,-1.3909e-05,-3.35133,0.494507,0.119311,-2.07286,0.0312336,
2,0,0,1,0,12876,0.0240706,0.0237461,-0.429321,7,0.00401241,10,-1.01947e-05,-3.36722,0.497813,0.118518,-1.99245,0.0237461,
2,0,0,1,0,12877.5,0.0165795,0.0162563,-0.419241,7,0.00335317,10,-6.81531e-06,-3.37754,1.31187,0.0449741,-0.734154,0.0162563,
2,0,0,1,0,12879,0.00908846,0.00879093,-0.413021,7,0.0027065,10,-3.63084e-06,-3.38403,2.75485,0.0214168,-0.345801,0.00879093,
2,0,0,1,0,12880.5,0.00159739,0.0012491,-0.417594,7,0.0020616,10,-5.21618e-07,-3.37925, , , ,0.0012491,
2,0,0,0,0,12880.8,0.000199195,-0.000168808,-0.415796,7,0.00194073,10,7.01895e-08,-3.38112, , , ,-0.000168808,