Folder: Figs_alphaMnO2_OER_Tafel_sleope/Figure_codes/Fig_3-5/rawdata_trumpetplot_data/after 10th (part 43)

File: 20221101_1-115_003_TrumpetPlot_ParaChange_from10_every3_04_CV_C01_14.csv
mode,ox/red,error,control changes,counter inc.,time/s,control/V,Ewe/V,<I>/mA,cycle number,(Q-Qo)/C,I Range,P/W,log(|I|),Tafel slope mV/dec,alpha_eff,dI/d(E-IR),E-IR/V,
2,0,0,1,0,28641.8,2.44065e-05,-0.00042076,-0.3837,15,0.0000000E+000,10,1.61446e-07,-3.41601, , , ,-0.00042076,
2,1,0,1,0,28642.6,0.00729063,0.00698406,0.352203,15,0.000177162,10,2.45981e-06,-3.45321,0.0563691,1.04667,14.1309,0.00698406,
2,1,0,1,0,28643.3,0.0147814,0.0144564,0.428224,15,0.00048248,10,6.19059e-06,-3.36833,0.112679,0.523613,8.73104,0.0144564,
2,1,0,1,0,28644.1,0.0222725,0.0219782,0.484713,15,0.000836327,10,1.06531e-05,-3.31452,0.14967,0.394201,7.44962,0.0219782,
2,1,0,1,0,28644.8,0.0297635,0.0294137,0.539852,15,0.00123152,10,1.5879e-05,-3.26773,0.188866,0.312391,6.58478,0.0294137,
2,1,0,1,0,28645.6,0.0372544,0.0369702,0.59164,15,0.00166632,10,2.18731e-05,-3.22794,0.196106,0.300858,6.95559,0.0369702,
2,1,0,1,0,28646.3,0.0447458,0.0444032,0.642054,15,0.00214033,10,2.85093e-05,-3.19243,0.221197,0.266731,6.68556,0.0444032,
2,1,0,1,0,28647.1,0.0522363,0.0519251,0.691444,15,0.00265142,10,3.59033e-05,-3.16024,0.239738,0.246102,6.62802,0.0519251,
2,1,0,1,0,28647.8,0.0597282,0.0594009,0.732678,15,0.00319621,10,4.35218e-05,-3.13509,0.301323,0.195803,5.59126,0.0594009,
2,1,0,1,0,28648.6,0.0672182,0.0669575,0.773804,15,0.00377145,10,5.1812e-05,-3.11137,0.365447,0.161446,4.858,0.0669575,
2,1,0,1,0,28649.3,0.0747092,0.074392,0.804734,15,0.00437343,10,5.98657e-05,-3.09435,0.510422,0.115591,3.629,0.074392,
2,1,0,1,0,28650.1,0.0822001,0.0818731,0.829283,15,0.00499766,10,6.7896e-05,-3.0813,0.591533,0.0997408,3.24037,0.0818731,
2,1,0,1,0,28650.8,0.0896911,0.0893787,0.867857,15,0.0056445,10,7.7568e-05,-3.06155,0.336845,0.175155,5.94712,0.0893787,
2,1,0,1,0,28651.6,0.097182,0.0968705,0.924603,15,0.00632672,10,8.95667e-05,-3.03404,0.204458,0.288567,10.4095,0.0968705,
2,1,0,1,0,28652.3,0.104673,0.104354,1.01055,15,0.00706119,10,0.000105455,-2.99544,0.194652,0.303105,11.9039,0.104354,
2,1,0,1,0,28653.1,0.112164,0.111835,1.08531,15,0.00785801,10,0.000121376,-2.96445,0.312342,0.188895,7.98241,0.111835,
2,1,0,1,0,28653.8,0.119655,0.119348,1.13811,15,0.00870403,10,0.000135832,-2.94381,0.539345,0.109392,4.86515,0.119348,
2,1,0,1,0,28654.6,0.127146,0.12684,1.17251,15,0.00958358,10,0.000148721,-2.93088,0.63784,0.0924997,4.24843,0.12684,
2,1,0,1,0,28655.3,0.134637,0.134284,1.19019,15,0.0104859,10,0.000159823,-2.92438,-0.860437,-0.0685698,-3.18377,0.134284,
2,1,0,1,0,28656.1,0.142127,0.141843,1.10407,15,0.011366,10,0.000156604,-2.957,-0.127654,-0.462187,-19.8155,0.1418429,
2,1,0,1,0,28656.8,0.149619,0.149307,0.903416,15,0.012132,10,0.000134886,-3.04411,-0.0738835,-0.798554,-28.1391,0.149307,
2,1,0,1,0,28657.5,0.157109,0.156803,0.728393,15,0.0127481,10,0.000114214,-3.13763,-0.0956999,-0.616511,-17.552,0.156803,
2,1,0,1,0,28658.3,0.164601,0.164309,0.641586,15,0.0132679,10,0.000105418,-3.19275,-0.176783,-0.333743,-8.35127,0.164309,
2,1,0,1,0,28659,0.172091,0.17175,0.593913,15,0.01374,10,0.000102004,-3.22628,-0.337627,-0.174749,-4.06847,0.17175,
2,1,0,1,0,28659.8,0.179582,0.179286,0.570165,15,0.0141869,10,0.000102223,-3.244,-0.414432,-0.142363,-3.18122,0.179286,
2,1,0,1,0,28660.5,0.187074,0.186761,0.554967,15,0.0146191,10,0.000103646,-3.25573,-0.877513,-0.0672355,-1.45435,0.186761,
2,1,0,1,0,28661.3,0.194564,0.194207,0.545224,15,0.015042,10,0.000105887,-3.26342,-0.939134,-0.0628238,-1.33943,0.194207,
2,1,0,1,0,28662,0.202056,0.201761,0.537367,15,0.0154576,10,0.00010842,-3.26973,-1.04986,-0.0561978,-1.17608,0.201761,
2,1,0,1,0,28662.8,0.209546,0.209229,0.529052,15,0.0158679,10,0.000110693,-3.2765,-0.66411,-0.0888407,-1.8396,0.209229,
2,1,0,1,0,28663.5,0.217038,0.216672,0.521249,15,0.0162729,10,0.00011294,-3.28295,-1.93463,-0.0304968,-0.623899,0.216672,
2,1,0,1,0,28664.3,0.224528,0.224197,0.518643,15,0.0166741,10,0.000116278,-3.28513,-1.33165,-0.0443059,-0.894933,0.224197,
2,1,0,1,0,28665,0.232019,0.231711,0.514668,15,0.0170715,10,0.000119254,-3.28847,-4.54827,-0.012972,-0.260185,0.231711,
2,1,0,1,0,28665.8,0.23951,0.239172,0.508493,15,0.0174656,10,0.000121617,-3.29371,-2.91941,-0.0202096,-0.402431,0.239172,
2,1,0,1,0,28666.5,0.247001,0.246666,0.506002,15,0.0178564,10,0.000124813,-3.29585,-1.35502,-0.0435418,-0.859105,0.246666,
2,1,0,1,0,28667.3,0.254492,0.254195,0.502092,15,0.0182442,10,0.000127629,-3.29922,-3.10596,-0.0189957,-0.371754,0.254195,
2,1,0,1,0,28668,0.261983,0.261669,0.496553,15,0.018629,10,0.000129933,-3.30403,-1.35798,-0.043447,-0.844691,0.261669,
2,1,0,1,0,28668.8,0.269474,0.269179,0.493564,15,0.0190107,10,0.000132857,-3.30666,-44.3417,-0.00133058,-0.0255824,0.269179,
2,1,0,1,0,28669.5,0.276965,0.276671,0.488379,15,0.0193891,10,0.00013512,-3.31124,-1.99157,-0.0296249,-0.564485,0.2766709,
2,1,0,1,0,28670.3,0.284456,0.284176,0.485063,15,0.0197642,10,0.000137844,-3.3142,-5.25133,-0.0112352,-0.212049,0.284176,
2,1,0,1,0,28671,0.291947,0.291667,0.479201,15,0.0201357,10,0.000139767,-3.31948,-1.10323,-0.0534794,-1.00121,0.291667,
2,1,0,1,0,28671.8,0.299437,0.299152,0.475221,15,0.020504,10,0.000142163,-3.3231,-0.00269492,-21.8931,-204.672,0.299152,
2,0,0,1,0,28672.5,0.293745,0.293421,-0.0679959,15,0.0205276,10,-1.99514e-05,-4.16752,-0.0136618,-4.31861,10.5997,0.293421,
2,0,0,1,0,28673.2,0.286253,0.285944,-0.12664,15,0.0204413,10,-3.6212e-05,-3.89743,-0.0490785,-1.20216,5.94096,0.285944,
2,0,0,1,0,28674,0.278763,0.278464,-0.162049,15,0.0203212,10,-4.51248e-05,-3.79035,-0.095696,-0.616535,3.91636,0.278464,
2,0,0,1,0,28674.7,0.271272,0.270964,-0.192561,15,0.0201771,10,-5.2177e-05,-3.71543,-0.113625,-0.519253,3.87788,0.270964,
2,0,0,1,0,28675.5,0.263781,0.26349,-0.215703,15,0.0200131,10,-5.68355e-05,-3.66614,-0.160333,-0.367984,3.09752,0.26349,
2,0,0,1,0,28676.2,0.25629,0.255987,-0.23673,15,0.0198323,10,-6.05997e-05,-3.62575,-0.231164,-0.25523,2.34751,0.2559866,
2,0,0,1,0,28677,0.248799,0.24851,-0.254874,15,0.0196373,10,-6.33388e-05,-3.59367,-0.248693,-0.23724,2.35906,0.24851,
2,0,0,1,0,28677.7,0.241308,0.240999,-0.270811,15,0.0194294,10,-6.5265e-05,-3.56733,-0.333925,-0.176686,1.87709,0.240999,
2,0,0,1,0,28678.5,0.233817,0.233517,-0.286847,15,0.0192094,10,-6.69835e-05,-3.54235,-0.265681,-0.222071,2.4925,0.2335166,
2,0,0,1,0,28679.2,0.226326,0.226042,-0.300928,15,0.0189779,10,-6.80223e-05,-3.52154,-0.501946,-0.117543,1.38357,0.226042,
2,0,0,1,0,28680,0.218835,0.218513,-0.316505,15,0.0187349,10,-6.91604e-05,-3.49962,-0.342407,-0.172309,2.12911,0.218513,
2,0,0,1,0,28680.7,0.211344,0.211001,-0.332085,15,0.0184808,10,-7.00702e-05,-3.47875,-0.433567,-0.136081,1.76096,0.211001,
2,0,0,1,0,28681.5,0.203854,0.203504,-0.34776,15,0.0182151,10,-7.07706e-05,-3.45872,-0.357409,-0.165077,2.24071,0.203504,
2,0,0,1,0,28682.2,0.196362,0.196038,-0.363774,15,0.017938,10,-7.13134e-05,-3.43917,-0.460386,-0.128153,1.81595,0.196038,
2,0,0,1,0,28683,0.188872,0.188508,-0.380584,15,0.0176483,10,-7.17431e-05,-3.41955,-0.286978,-0.205591,3.05731,0.188508,
2,0,0,1,0,28683.7,0.18138,0.181071,-0.4013,15,0.0173448,10,-7.26638e-05,-3.39653,-0.312972,-0.188515,2.9504,0.181071,
2,0,0,1,0,28684.5,0.17389,0.173571,-0.424108,15,0.0170253,10,-7.36129e-05,-3.37252,-0.265751,-0.222012,3.66538,0.173571,
2,0,0,1,0,28685.2,0.166398,0.166065,-0.454895,15,0.0166854,10,-7.55422e-05,-3.34209,-0.259838,-0.227064,4.04048,0.1660652,
2,0,0,1,0,28686,0.158907,0.158558,-0.498057,15,0.0163179,10,-7.89709e-05,-3.30272,-0.166442,-0.354478,6.90479,0.158558,
2,0,0,1,0,28686.7,0.151417,0.151076,-0.566842,15,0.0159089,10,-8.56364e-05,-3.24654,-0.109044,-0.541064,12.0205,0.151076,
2,0,0,1,0,28687.4,0.143925,0.143633,-0.684528,15,0.0154315,10,-9.83205e-05,-3.16461,-0.074147,-0.795717,21.3184,0.143633,
2,0,0,1,0,28688.2,0.136435,0.136104,-0.860827,15,0.0148435,10,-0.000117162,-3.06508,-0.0780679,-0.755753,25.2801,0.136104,
2,0,0,1,0,28688.9,0.128943,0.128612,-1.03932,15,0.014119,10,-0.000133669,-2.98325,-0.112612,-0.523923,21.1897,0.128612,
2,0,0,1,0,28689.7,0.121453,0.121134,-1.16562,15,0.0132772,10,-0.000141196,-2.93344,-0.253105,-0.233105,10.5511,0.121134,
2,0,0,1,0,28690.4,0.113962,0.11363,-1.20756,15,0.0123709,10,-0.000137216,-2.91809,-1.87549,-0.0314584,1.48593,0.11363,
2,0,0,1,0,28691.2,0.106471,0.106148,-1.19623,15,0.0114536,10,-0.000126977,-2.92219,0.740826,0.0796408,-3.72624,0.106148,
2,0,0,1,0,28691.9,0.0989799,0.0987018,-1.16549,15,0.0105558,10,-0.000115036,-2.93349,0.592582,0.0995643,-4.52028,0.0987018,
2,0,0,1,0,28692.7,0.0914889,0.0911284,-1.12801,15,0.00968629,10,-0.000102794,-2.94769,0.580029,0.101719,-4.47133,0.0911284,
2,0,0,1,0,28693.4,0.083998,0.0836822,-1.08931,15,0.00884468,10,-9.11559e-05,-2.96285,0.419665,0.140588,-5.97279,0.0836822,
2,0,0,1,0,28694.2,0.076507,0.0762042,-1.05409,15,0.00802962,10,-8.03263e-05,-2.97712,0.547059,0.107849,-4.44291,0.0762042,
2,0,0,1,0,28694.9,0.0690161,0.0687347,-1.02151,15,0.00723989,10,-7.0213e-05,-2.99076,0.580264,0.101678,-4.06204,0.0687347,
2,0,0,1,0,28695.7,0.0615251,0.0612196,-0.991962,15,0.00647311,10,-6.07275e-05,-3.00351,0.600075,0.0983211,-3.81167,0.06121961,
2,0,0,1,0,28696.4,0.0540342,0.0536716,-0.960755,15,0.00572988,10,-5.15653e-05,-3.01739,0.622637,0.0947582,-3.55103,0.0536716,
2,0,0,1,0,28697.2,0.0465441,0.0462793,-0.92809,15,0.00501051,10,-4.29514e-05,-3.03241,0.560241,0.105312,-3.82081,0.0462793,
2,0,0,1,0,28697.9,0.0390523,0.038757,-0.894887,15,0.00431675,10,-3.46832e-05,-3.04823,0.383093,0.15401,-5.36423,0.038757,
2,0,0,1,0,28698.7,0.0315618,0.0312199,-0.860097,15,0.00364875,10,-2.68522e-05,-3.06545,0.468376,0.125967,-4.22672,0.0312199,
2,0,0,1,0,28699.4,0.0240704,0.0237661,-0.823949,15,0.00300594,10,-1.9582e-05,-3.0841,0.473884,0.124503,-4.02256,0.02376605,
2,0,0,1,0,28700.2,0.0165796,0.0162906,-0.800253,15,0.00238549,10,-1.30366e-05,-3.09677,0.740888,0.0796342,-2.48961,0.0162906,
2,0,0,1,0,28700.9,0.00908846,0.00873903,-0.783028,15,0.00178135,10,-6.84291e-06,-3.10622,1.69031,0.0349048,-1.06721,0.00873903,
2,0,0,1,0,28701.7,0.00159728,0.00123217,-0.788296,15,0.00118444,10,-9.71314e-07,-3.10331, , , ,0.00123217,
2,0,0,1,0,28701.8,0.000199195,-0.000189804,-0.77954,15,0.00107278,10,1.47959e-07,-3.10816, , , ,-0.000189804,

File: 20221101_1-115_003_TrumpetPlot_ParaChange_from10_every3_04_CV_C01_15.csv
mode,ox/red,error,control changes,counter inc.,time/s,control/V,Ewe/V,<I>/mA,cycle number,(Q-Qo)/C,I Range,P/W,log(|I|),Tafel slope mV/dec,alpha_eff,dI/d(E-IR),E-IR/V,
2,0,0,1,0,30612,2.44065e-05,-0.000229887,-0.388152,16,0.0000000E+000,10,8.92312e-08,-3.411, , , ,-0.000229887,
2,1,0,1,0,30612.7,0.00729063,0.00700739,0.359836,16,0.000183502,10,2.52151e-06,-3.4439,0.0614487,0.96015,13.3581,0.00700739,
2,1,0,1,0,30613.4,0.0147814,0.0144512,0.4339,16,0.000495399,10,6.27038e-06,-3.36261,0.116964,0.504429,8.55897,0.0144512,
2,1,0,1,0,30614.2,0.0222725,0.0220037,0.491644,16,0.000854248,10,1.0818e-05,-3.30835,0.16616,0.35508,6.78229,0.0220037,
2,1,0,1,0,30614.9,0.0297635,0.02944,0.544023,16,0.00125359,10,1.6016e-05,-3.26438,0.186281,0.316726,6.73545,0.02944,
2,1,0,1,0,30615.7,0.0372544,0.0369427,0.594484,16,0.00169172,10,2.19618e-05,-3.22586,0.209022,0.282267,6.56333,0.0369427,
2,1,0,1,0,30616.4,0.0447458,0.0444279,0.647664,16,0.00216911,10,2.87744e-05,-3.18865,0.242587,0.243212,6.14669,0.04442792,
2,1,0,1,0,30617.2,0.0522363,0.05187,0.693426,16,0.00268339,10,3.5968e-05,-3.159,0.244425,0.241383,6.53556,0.05187,
2,1,0,1,0,30617.9,0.0597282,0.0593859,0.737685,16,0.00323123,10,4.38081e-05,-3.13213,0.30556,0.193088,5.56024,0.0593859,
2,1,0,1,0,30618.7,0.0672182,0.0669055,0.776881,16,0.00380994,10,5.19776e-05,-3.10965,0.362497,0.16276,4.91409,0.0669055,
2,1,0,1,0,30619.4,0.0747092,0.0744036,0.807823,16,0.00441513,10,6.0105e-05,-3.09268,0.505949,0.116613,3.67973,0.0744036,
2,1,0,1,0,30620.2,0.0822001,0.0818986,0.834059,16,0.00504235,10,6.83083e-05,-3.0788,0.56316,0.104766,3.41547,0.0818986,
2,1,0,1,0,30620.9,0.0896911,0.0893522,0.871691,16,0.00569229,10,7.78875e-05,-3.05964,0.326573,0.180664,6.15108,0.0893522,
2,1,0,1,0,30621.7,0.097182,0.0968514,0.928351,16,0.00637719,10,8.99121e-05,-3.03229,0.213007,0.276986,10.045,0.0968514,
2,1,0,1,0,30622.4,0.104673,0.104358,1.01462,16,0.00711418,10,0.000105883,-2.9937,0.192293,0.306823,12.1018,0.104358,
2,1,0,1,0,30623.2,0.112164,0.111856,1.09137,16,0.00791429,10,0.000122076,-2.96203,0.312302,0.18892,8.01853,0.111856,
2,1,0,1,0,30623.9,0.119655,0.119328,1.14613,16,0.00876464,10,0.000136765,-2.94077,0.509319,0.115841,5.17615,0.119328,
2,1,0,1,0,30624.7,0.127146,0.126834,1.18065,16,0.00964941,10,0.000149747,-2.92788,0.640344,0.092138,4.26021,0.126834,
2,1,0,1,0,30625.4,0.134637,0.134302,1.19909,16,0.0105575,10,0.00016104,-2.92115,-0.939389,-0.0628068,-2.93345,0.134302,
2,1,0,1,0,30626.2,0.142127,0.141831,1.11051,16,0.0114436,10,0.000157505,-2.95448,-0.124545,-0.473725,-20.4252,0.141831,
2,1,0,1,0,30626.9,0.149619,0.149331,0.905937,16,0.0122136,10,0.000135284,-3.0429,-0.0711713,-0.828986,-29.2881,0.149331,
2,1,0,1,0,30627.7,0.157109,0.156795,0.726148,16,0.0128301,10,0.000113856,-3.13898,-0.0936409,-0.630066,-17.9117,0.156795,
2,1,0,1,0,30628.4,0.164601,0.164264,0.637207,16,0.0133476,10,0.00010467,-3.19572,-0.167027,-0.353237,-8.78523,0.164264,
2,1,0,1,0,30629.2,0.172091,0.171798,0.587929,16,0.0138165,10,0.000101005,-3.23067,-0.317491,-0.185832,-4.29495,0.171798,
2,1,0,1,0,30629.9,0.179582,0.179286,0.565727,16,0.0142597,10,0.000101427,-3.24739,-0.539863,-0.109287,-2.41932,0.179286,
2,1,0,1,0,30630.7,0.187074,0.186771,0.552508,16,0.0146885,10,0.000103192,-3.25766,-0.946238,-0.0623522,-1.33738,0.186771,
2,1,0,1,0,30631.4,0.194564,0.19423,0.541573,16,0.0151081,10,0.000105189,-3.26634,-1.03083,-0.0572353,-1.20852,0.1942296,
2,1,0,1,0,30632.2,0.202056,0.201745,0.533065,16,0.0155209,10,0.000107543,-3.27322,-0.872059,-0.067656,-1.40409,0.201745,
2,1,0,1,0,30632.9,0.209546,0.209247,0.52662,16,0.0159286,10,0.000110194,-3.2785,-0.777514,-0.0758828,-1.5624,0.209247,
2,1,0,1,0,30633.7,0.217038,0.216721,0.521112,16,0.0163317,10,0.000112936,-3.28307,-1.98277,-0.0297563,-0.606298,0.216721,
2,1,0,1,0,30634.4,0.224528,0.224203,0.517566,16,0.0167314,10,0.00011604,-3.28603,-2.07513,-0.0284319,-0.572502,0.224203,
2,1,0,1,0,30635.2,0.232019,0.231702,0.513126,16,0.0171275,10,0.000118892,-3.28978,-2.48931,-0.0237013,-0.473305,0.231702,
2,1,0,1,0,30635.9,0.23951,0.239249,0.508735,16,0.0175207,10,0.000121714,-3.29351,-1.47496,-0.0400011,-0.793813,0.239249,
2,1,0,1,0,30636.7,0.247001,0.246697,0.505687,16,0.0179106,10,0.000124752,-3.29612,-1.95449,-0.0301869,-0.593171,0.246697,
2,1,0,1,0,30637.4,0.254492,0.254156,0.500125,16,0.0182977,10,0.00012711,-3.30092,-2.52651,-0.0233524,-0.456088,0.254156,
2,1,0,1,0,30638.2,0.261983,0.261661,0.496597,16,0.018682,10,0.00012994,-3.304,-1.42899,-0.0412878,-0.802064,0.261661,
2,1,0,1,0,30638.9,0.269474,0.269175,0.491824,16,0.0190635,10,0.000132387,-3.30819,-3.39206,-0.0173936,-0.333876,0.269175,
2,1,0,1,0,30639.7,0.276965,0.276684,0.487973,16,0.0194419,10,0.000135014,-3.3116,-1.25912,-0.0468581,-0.895076,0.276684,
2,1,0,1,0,30640.4,0.284456,0.284153,0.484357,16,0.0198169,10,0.000137631,-3.31483,-4.0263,-0.0146537,-0.27673,0.284153,
2,1,0,1,0,30641.2,0.291947,0.291675,0.479486,16,0.0201884,10,0.000139854,-3.31922,-1.45436,-0.0405677,-0.760643,0.291675,
2,1,0,1,0,30641.9,0.299437,0.299114,0.473222,16,0.0205569,10,0.000141547,-3.32494,-0.00254321,-23.1991,-213.462,0.299114,
2,0,0,1,0,30642.6,0.293745,0.29345,-0.075693,16,0.0205765,10,-2.22121e-05,-4.12094,-0.0158222,-3.72894,10.4476,0.29345,
2,0,0,1,0,30643.3,0.286253,0.285926,-0.131743,16,0.0204856,10,-3.76688e-05,-3.88027,-0.0517472,-1.14016,5.84377,0.285926,
2,0,0,1,0,30644.1,0.278763,0.278461,-0.16702,16,0.0203618,10,-4.65084e-05,-3.77723,-0.0978615,-0.602893,3.93578,0.278461,
2,0,0,1,0,30644.8,0.271272,0.270936,-0.196086,16,0.0202146,10,-5.31267e-05,-3.70755,-0.122729,-0.480735,3.67361,0.270936,
2,0,0,1,0,30645.6,0.263781,0.263447,-0.218238,16,0.020048,10,-5.7494e-05,-3.66107,-0.153765,-0.383702,3.28704,0.263447,
2,0,0,1,0,30646.3,0.25629,0.25597,-0.24001,16,0.019865,10,-6.14353e-05,-3.61977,-0.250368,-0.235653,2.19822,0.25597,
2,0,0,1,0,30647.1,0.248799,0.248466,-0.256944,16,0.0196679,10,-6.3842e-05,-3.59016,-0.257052,-0.229526,2.30411,0.248466,
2,0,0,1,0,30647.8,0.241308,0.241,-0.273022,16,0.019458,10,-6.57983e-05,-3.5638,-0.314718,-0.18747,2.00503,0.241,
2,0,0,1,0,30648.6,0.233817,0.233481,-0.289035,16,0.0192363,10,-6.7484e-05,-3.53905,-0.259877,-0.227031,2.55634,0.233481,
2,0,0,1,0,30649.3,0.226326,0.226028,-0.30371,16,0.0190032,10,-6.86471e-05,-3.51754,-0.337607,-0.174759,2.07052,0.226028,
2,0,0,1,0,30650.1,0.218835,0.218551,-0.319764,16,0.0187586,10,-6.98849e-05,-3.49517,-0.298834,-0.197434,2.45584,0.218551,
2,0,0,1,0,30650.8,0.211344,0.211037,-0.334087,16,0.0185027,10,-7.05047e-05,-3.47614,-0.432516,-0.136411,1.77947,0.211037,
2,0,0,1,0,30651.6,0.203854,0.203511,-0.34984,16,0.018235,10,-7.11963e-05,-3.45613,-0.444269,-0.132802,1.81647,0.203511,
2,0,0,1,0,30652.3,0.196362,0.196023,-0.36578,16,0.0179559,10,-7.17011e-05,-3.43678,-0.407042,-0.144948,2.06338,0.196023,
2,0,0,1,0,30653.1,0.188872,0.188548,-0.383168,16,0.0176644,10,-7.22457e-05,-3.41661,-0.3062,-0.192685,2.87743,0.188548,
2,0,0,1,0,30653.8,0.18138,0.181074,-0.403462,16,0.0173589,10,-7.30565e-05,-3.3942,-0.338822,-0.174133,2.74291,0.181074,
2,0,0,1,0,30654.6,0.17389,0.173577,-0.428586,16,0.0170373,10,-7.43929e-05,-3.36796,-0.278491,-0.211856,3.52826,0.1735774,
2,0,0,1,0,30655.3,0.166398,0.166069,-0.455822,16,0.0166952,10,-7.56981e-05,-3.3412,-0.240038,-0.245795,4.40215,0.166069,
2,0,0,1,0,30656.1,0.158907,0.158585,-0.500674,16,0.0163253,10,-7.93993e-05,-3.30045,-0.158589,-0.372031,7.29868,0.158585,
2,0,0,1,0,30656.8,0.151417,0.151096,-0.571409,16,0.0159133,10,-8.63379e-05,-3.24305,-0.112736,-0.523344,11.7061,0.151096,
2,0,0,1,0,30657.6,0.143925,0.143604,-0.690831,16,0.0154324,10,-9.92059e-05,-3.16063,-0.0754683,-0.781785,21.111,0.143604,
2,0,0,1,0,30658.3,0.136435,0.136104,-0.865294,16,0.01484,10,-0.00011777,-3.06284,-0.0822335,-0.71747,24.1927,0.136104,
2,0,0,1,0,30659.1,0.128943,0.128603,-1.04527,16,0.0141112,10,-0.000134424,-2.98077,-0.11644,-0.5067,20.5767,0.128603,
2,0,0,1,0,30659.8,0.121453,0.121146,-1.17017,16,0.013265,10,-0.000141762,-2.93175,-0.247178,-0.238694,10.8785,0.121146,
2,0,0,1,0,30660.6,0.113962,0.113656,-1.21363,16,0.0123539,10,-0.000137936,-2.91591,-2.01355,-0.0293015,1.39011,0.113656,
2,0,0,1,0,30661.3,0.106471,0.106138,-1.20298,16,0.0114325,10,-0.000127682,-2.91974,0.669805,0.0880853,-4.14499,0.106138,
2,0,0,1,0,30662.1,0.0989799,0.0986848,-1.16843,16,0.0105317,10,-0.000115306,-2.9324,0.575968,0.102436,-4.66099,0.0986848,
2,0,0,1,0,30662.8,0.0914889,0.0911676,-1.13003,16,0.00965998,10,-0.000103022,-2.94691,0.526435,0.112075,-4.93301,0.0911676,
2,0,0,1,0,30663.6,0.083998,0.0837002,-1.09227,16,0.00881727,10,-9.14235e-05,-2.96167,0.421303,0.140042,-5.95156,0.0837002,
2,0,0,1,0,30664.3,0.076507,0.0761385,-1.05523,16,0.00800193,10,-8.03433e-05,-2.97665,0.505634,0.116685,-4.80373,0.0761385,
2,0,0,1,0,30665.1,0.0690161,0.0686796,-1.02115,16,0.00721294,10,-7.01321e-05,-2.99091,0.545674,0.108123,-4.31835,0.0686796,
2,0,0,1,0,30665.8,0.0615251,0.0611973,-0.988864,16,0.00644757,10,-6.05159e-05,-3.00486,0.561547,0.105067,-4.06132,0.06119734,
2,0,0,1,0,30666.6,0.0540342,0.0536939,-0.960478,16,0.00570628,10,-5.15718e-05,-3.01751,0.575863,0.102455,-3.82974,0.0536939,
2,0,0,1,0,30667.3,0.0465441,0.0462136,-0.924304,16,0.00498927,10,-4.27155e-05,-3.03419,0.505224,0.11678,-4.2115,0.0462136,
2,0,0,1,0,30668.1,0.0390523,0.038704,-0.89174,16,0.00429825,10,-3.45139e-05,-3.04976,0.355392,0.166014,-5.75634,0.038704,
2,0,0,1,0,30668.8,0.0315618,0.0312193,-0.856602,16,0.00363342,10,-2.67425e-05,-3.06722,0.433734,0.136028,-4.54503,0.0312193,
2,0,0,1,0,30669.6,0.0240704,0.0237417,-0.820472,16,0.00299396,10,-1.94794e-05,-3.08594,0.423924,0.139176,-4.47287,0.0237417,
2,0,0,1,0,30670.3,0.0165796,0.0162449,-0.79558,16,0.00237661,10,-1.29241e-05,-3.09932,0.694486,0.0849549,-2.64201,0.0162449,
2,0,0,1,0,30671.1,0.00908846,0.00875388,-0.780416,16,0.00177509,10,-6.83167e-06,-3.10767,1.67688,0.0351843,-1.07059,0.00875388,
2,0,0,1,0,30671.8,0.00159728,0.00122769,-0.785286,16,0.0011802,10,-9.64091e-07,-3.10497, , , ,0.001227694,
2,0,0,1,0,30672,0.000199195,-0.000185986,-0.778819,16,0.00106876,10,1.4485e-07,-3.10856, , , ,-0.000185986,