Folder: Figs_alphaMnO2_OER_Tafel_sleope/Figure_codes/Fig_3-5/rawdata_trumpetplot_data/after 10th (part 194)

File: 20221101_1-115_003_TrumpetPlot_ParaChange_from10_every3_13_CV_C01_4.csv
mode,ox/red,error,control changes,counter inc.,time/s,control/V,Ewe/V,<I>/mA,cycle number,(Q-Qo)/C,I Range,P/W,log(|I|),Tafel slope mV/dec,alpha_eff,dI/d(E-IR),E-IR/V,
2,1,0,1,0,9078.38,2.44065e-05,-0.000191712,25.5868,5,0.0000000E+000,10,-4.9053e-06,-1.59198, , , ,-0.000191712,
2,1,0,1,0,9078.39,0.0122624,0.0118694,29.9798,5,0.00042536,10,0.000355841,-1.52317,0.264929,0.222702,258.733,0.01186935,
2,1,0,1,0,9078.41,0.0250636,0.0247544,32.7263,5,0.000928517,10,0.00081012,-1.4851,0.405212,0.145603,185.432,0.0247544,
2,1,0,1,0,9078.42,0.0378703,0.0375195,34.8722,5,0.00146989,10,0.00130839,-1.45752,0.507257,0.116312,158.134,0.0375195,
2,1,0,1,0,9078.44,0.0506632,0.0503324,36.8314,5,0.00204383,10,0.00185381,-1.43378,0.538044,0.109657,157.721,0.0503324,
2,1,0,1,0,9078.46,0.0634672,0.0631093,38.928,5,0.0026501,10,0.00245672,-1.40974,0.524856,0.112412,170.896,0.0631093,
2,1,0,1,0,9078.47,0.0762629,0.0759232,41.2218,5,0.00329138,10,0.00312969,-1.38487,0.511342,0.115383,185.675,0.0759232,
2,1,0,1,0,9078.49,0.0890668,0.0887043,43.717,5,0.00397085,10,0.00387789,-1.35935,0.492466,0.119805,204.488,0.0887043,
2,1,0,1,0,9078.5,0.10186,0.101492,46.4031,5,0.00469206,10,0.00470953,-1.33345,0.507349,0.116291,210.507,0.101492,
2,1,0,1,0,9078.52,0.114666,0.114253,49.1678,5,0.00545646,10,0.00561756,-1.30832,0.495273,0.119126,228.681,0.114253,
2,1,0,1,0,9078.54,0.127462,0.127079,52.1518,5,0.0062675,10,0.00662741,-1.28273,0.499294,0.118167,240.723,0.127079,
2,1,0,1,0,9078.55,0.140263,0.139941,55.4434,5,0.00712823,10,0.0077588,-1.25615,0.470426,0.125418,271.537,0.139941,
2,1,0,1,0,9078.57,0.153064,0.15271,59.094,5,0.0080446,10,0.00902426,-1.22846,0.470113,0.125502,289.339,0.15271,
2,1,0,1,0,9078.58,0.165866,0.165541,62.7647,5,0.0090201,10,0.0103902,-1.20228,0.527046,0.111945,273.869,0.165541,
2,1,0,1,0,9078.6,0.178667,0.178329,65.9669,5,0.0100512,10,0.0117638,-1.18067,0.699755,0.0843152,216.623,0.178329,
2,1,0,1,0,9078.62,0.191463,0.191107,68.0835,5,0.0111261,10,0.0130112,-1.16696,1.72569,0.0341893,90.4696,0.191107,
2,1,0,1,0,9078.63,0.204269,0.203955,67.8861,5,0.0122182,10,0.0138457,-1.16822,-1.02796,-0.057395,-151.01,0.203955,
2,1,0,1,0,9078.65,0.217062,0.216774,64.0656,5,0.0132786,10,0.0138877,-1.19338,-0.336639,-0.175262,-435.117,0.216774,
2,1,0,1,0,9078.66,0.229866,0.229606,57.0918,5,0.0142501,10,0.0131086,-1.24343,-0.216429,-0.272606,-605.284,0.229606,
2,1,0,1,0,9078.68,0.242662,0.242352,49.2297,5,0.0150993,10,0.0119309,-1.30777,-0.195412,-0.301926,-581.106,0.2423519,
2,1,0,1,0,9078.7,0.255466,0.255166,42.6069,5,0.0158313,10,0.0108718,-1.37052,-0.221135,-0.266805,-445.492,0.255166,
2,1,0,1,0,9078.71,0.268259,0.267994,37.7649,5,0.0164717,10,0.0101207,-1.42291,-0.275187,-0.2144,-317.331,0.267994,
2,1,0,1,0,9078.73,0.281065,0.280792,34.4275,5,0.0170474,10,0.00966694,-1.4631,-0.367384,-0.160595,-216.419,0.280792,
2,1,0,1,0,9078.74,0.293861,0.293523,32.0971,5,0.0175783,10,0.00942124,-1.49353,-0.488749,-0.120716,-151.815,0.293523,
2,1,0,1,0,9078.75,0.298983,0.298834,28.3531,5,0.0178597,10,0.00847288,-1.5474,0.0225651,2.61466,2283.6,0.298834,
2,1,0,1,0,9078.77,0.286187,0.285972,7.04607,5,0.0181153,10,0.00201498,-2.15205,0.0115849,5.09283,1098.91,0.2859717,
2,0,0,1,0,9078.79,0.273386,0.273138,-3.09503,5,0.0181374,10,-0.00084537,-2.50933,-0.0176368,-3.34527,586.072,0.273138,
2,0,0,1,0,9078.8,0.260585,0.26031,-8.82706,5,0.0180375,10,-0.00229777,-2.05418,-0.0551749,-1.06933,349.152,0.26031,
2,0,0,1,0,9078.82,0.247783,0.247518,-12.4143,5,0.0178652,10,-0.00307277,-1.90608,-0.122294,-0.482446,229.98,0.2475182,
2,0,0,1,0,9078.83,0.234982,0.234682,-14.8902,5,0.0176455,10,-0.00349446,-1.8271,-0.204658,-0.288286,166.359,0.234682,
2,0,0,1,0,9078.85,0.222187,0.221933,-16.7402,5,0.0173916,10,-0.00371521,-1.77624,-0.292837,-0.201478,131.323,0.221933,
2,0,0,1,0,9078.87,0.20938,0.209085,-18.3013,5,0.0171107,10,-0.00382652,-1.73752,-0.371953,-0.158622,113.111,0.209085,
2,0,0,1,0,9078.88,0.196587,0.196323,-19.7048,5,0.0168064,10,-0.0038685,-1.70543,-0.422187,-0.139749,107.366,0.196323,
2,0,0,1,0,9078.9,0.183783,0.183506,-21.0969,5,0.01648,10,-0.0038714,-1.67578,-0.425162,-0.138771,114.299,0.183506,
2,0,0,1,0,9078.91,0.170987,0.170686,-22.6328,5,0.0161302,10,-0.00386311,-1.64526,-0.391501,-0.150702,133.446,0.170686,
2,0,0,1,0,9078.93,0.158183,0.157898,-24.5892,5,0.0157528,10,-0.00388258,-1.60926,-0.316482,-0.186424,179.585,0.157898,
2,0,0,1,0,9078.95,0.145385,0.145099,-27.3226,5,0.0153384,10,-0.00396447,-1.56348,-0.24653,-0.239322,256.379,0.145099,
2,0,0,1,0,9078.96,0.132584,0.132298,-31.2716,5,0.0148711,10,-0.00413715,-1.50485,-0.198984,-0.296506,363.189,0.132298,
2,0,0,1,0,9078.98,0.119782,0.119537,-36.6644,5,0.014329,10,-0.00438274,-1.43575,-0.179729,-0.328272,470.027,0.119537,
2,0,0,1,0,9078.99,0.106987,0.106725,-42.9648,5,0.0136917,10,-0.00458541,-1.36689,-0.199121,-0.296303,495.457,0.106725,
2,0,0,1,0,9079.01,0.0941801,0.093931,-49.1819,5,0.0129536,10,-0.00461971,-1.30819,-0.2431,-0.242698,464.15,0.093931,
2,0,0,1,0,9079.03,0.0813844,0.081186,-54.6729,5,0.0121209,10,-0.00443867,-1.26223,-0.324397,-0.181876,386.751,0.081186,
2,0,0,1,0,9079.04,0.0685832,0.0683339,-59.0841,5,0.0112091,10,-0.00403745,-1.22853,-0.458842,-0.128585,295.426,0.0683339,
2,0,0,1,0,9079.06,0.0557876,0.0554849,-62.0495,5,0.0102373,10,-0.00344281,-1.20726,-0.863611,-0.0683178,164.884,0.0554849,
2,0,0,1,0,9079.07,0.0429808,0.0427272,-63.382,5,0.00923153,10,-0.00270813,-1.19803,-3.02055,-0.0195329,48.1919,0.04272718,
2,0,0,1,0,9079.09,0.030188,0.029874,-63.3976,5,0.00821589,10,-0.00189394,-1.19793,4.50813,0.0130875,-32.3416,0.029874,
2,0,0,1,0,9079.11,0.017384,0.0170802,-62.7129,5,0.00720629,10,-0.00107115,-1.20264,2.11377,0.0279122,-68.2745,0.01708019,
2,0,0,1,0,9079.12,0.00458834,0.00428426,-61.6787,5,0.00621073,10,-0.000264248,-1.20986,1.57013,0.0375765,-90.4212,0.00428426,
2,0,0,1,0,9079.14,-0.00821564,-0.00854242,-60.328,5,0.00523389,10,0.000515347,-1.21948,1.07297,0.0549875,-129.296,-0.00854242,
2,0,0,1,0,9079.15,-0.0210196,-0.0214147,-58.3832,5,0.00428361,10,0.00125026,-1.23371,0.770801,0.0765437,-174.167,-0.0214147,
2,0,0,1,0,9079.17,-0.0338153,-0.0341481,-55.8966,5,0.003369,10,0.00190876,-1.25261,0.635876,0.0927853,-202.373,-0.0341481,
2,0,0,1,0,9079.19,-0.0466193,-0.0469694,-53.3452,5,0.00249554,10,0.00250559,-1.2729,0.66013,0.0893763,-186.268,-0.0469694,
2,0,0,1,0,9079.2,-0.0594121,-0.0597739,-51.2773,5,0.00165964,10,0.00306504,-1.29008,0.897648,0.0657273,-131.77,-0.0597739,
2,0,0,1,0,9079.22,-0.0722189,-0.0725783,-49.984,5,0.000850655,10,0.00362776,-1.30117,1.59806,0.0369198,-72.1395,-0.0725783,
2,0,0,1,0,9079.23,-0.0850146,-0.0853657,-49.3949,5,5.64854e-05,10,0.00421663,-1.30632,6.04482,0.00976042,-18.8503,-0.0853657,
2,0,0,1,0,9079.25,-0.0978158,-0.0981394,-49.4394,5,-0.000733679,10,0.00485195,-1.30593,-4.8168,-0.0122488,23.671,-0.09813939,
2,0,0,1,0,9079.27,-0.110611,-0.110898,-49.9762,5,-0.00152867,10,0.00554227,-1.30124,-1.97461,-0.0298794,58.3539,-0.110898,
2,0,0,1,0,9079.28,-0.123418,-0.123764,-50.9553,5,-0.00233584,10,0.00630643,-1.29281,-1.30956,-0.0450533,89.6498,-0.123764,
2,0,0,1,0,9079.3,-0.136214,-0.136532,-52.2368,5,-0.00316116,10,0.00713202,-1.28202,-1.09844,-0.0537127,109.548,-0.136532,
2,0,0,1,0,9079.31,-0.149015,-0.149353,-53.7373,5,-0.004009,10,0.00802581,-1.26972,-1.00489,-0.0587129,123.153,-0.149353,
2,0,0,1,0,9079.33,-0.161816,-0.162154,-55.331,5,-0.00488177,10,0.00897214,-1.25703,-1.01723,-0.0580005,125.256,-0.162154,
2,0,0,1,0,9079.35,-0.174615,-0.174957,-56.9371,5,-0.00578022,10,0.00996158,-1.2446,-1.04697,-0.0563531,125.224,-0.174957,
2,0,0,1,0,9079.36,-0.187419,-0.187735,-58.5429,5,-0.00670429,10,0.0109906,-1.23253,-1.08527,-0.0543642,124.188,-0.187735,
2,0,0,1,0,9079.38,-0.199647,-0.199893,-60.0559,5,-0.00761185,10,0.0120047,-1.22144,0.289605,0.203725,-461.853,-0.199893,
2,0,0,1,1,9079.39,-0.192535,-0.192942,-43.2551,5,-0.00813008,10,0.00834572,-1.36396,-0.0554052,-1.06488,1829.47,-0.192942,
2,0,0,1,1,9079.4,-0.179739,-0.180106,-25.0947,5,-0.0086655,10,0.0045197,-1.60042,-0.0485483,-1.21528,1181.63,-0.180106,
2,0,0,1,1,9079.42,-0.166932,-0.167318,-11.9786,5,-0.00895605,10,0.00200424,-1.92159,-0.028808,-2.04804,906.628,-0.167318,
2,0,0,1,1,9079.44,-0.154139,-0.154574,-1.66424,5,-0.00906117,10,0.000257249,-2.77878,-0.0341333,-1.72852,727.266,-0.154574,
2,1,0,1,1,9079.45,-0.141335,-0.141769,6.8094,5,-0.0090171,10,-0.00096536,-2.16689,0.0220178,2.67965,605.525,-0.141769,
2,1,0,1,1,9079.47,-0.12854,-0.128981,13.9351,5,-0.0088491,10,-0.00179737,-1.85589,0.0603843,0.977075,516.189,-0.128981,
2,1,0,1,1,9079.48,-0.115736,-0.116162,20.0545,5,-0.00857523,10,-0.00232958,-1.69779,0.10367,0.569115,439.946,-0.116162,
2,1,0,1,1,9079.5,-0.102932,-0.10334,25.2537,5,-0.00821107,10,-0.00260971,-1.59768,0.15427,0.382448,374.382,-0.10334,
2,1,0,1,1,9079.52,-0.0901362,-0.0905617,29.6919,5,-0.00777012,10,-0.00268895,-1.52736,0.211363,0.27914,322.096,-0.0905617,
2,1,0,1,1,9079.53,-0.0773322,-0.0777234,33.5243,5,-0.00726325,10,-0.00260562,-1.47464,0.280477,0.210356,274.246,-0.0777234,
2,1,0,1,1,9079.55,-0.0645393,-0.0649561,36.7547,5,-0.00670006,10,-0.00238744,-1.43469,0.361542,0.16319,233.529,-0.0649561,
2,1,0,1,1,9079.56,-0.0517325,-0.0521241,39.4822,5,-0.00608913,10,-0.00205797,-1.4036,0.466285,0.126532,194.64,-0.0521241,
2,1,0,1,1,9079.58,-0.0389369,-0.0393281,41.7209,5,-0.00543847,10,-0.00164081,-1.37965,0.612357,0.0963491,156.695,-0.0393281,
2,1,0,1,1,9079.6,-0.0261357,-0.0264898,43.5165,5,-0.00475567,10,-0.00115274,-1.36135,0.823454,0.0716494,121.515,-0.0264898,
2,1,0,1,1,9079.61,-0.01334,-0.0137013,44.8441,5,-0.00404807,10,-0.000614422,-1.3483,1.18054,0.049977,87.3673,-0.0137013,
2,1,0,1,1,9079.63,-0.000774628,-0.00116676,45.7417,5,-0.00333632,10,-5.33694e-05,-1.33969, , , ,-0.00116676,
2,1,0,0,1,9079.63,-0.000125413,-0.000611633,45.7909,5,-0.00329971,10,-2.80073e-05,-1.33922, , , ,-0.000611633,

File: 20221101_1-115_003_TrumpetPlot_ParaChange_from10_every3_13_CV_C01_5.csv
mode,ox/red,error,control changes,counter inc.,time/s,control/V,Ewe/V,<I>/mA,cycle number,(Q-Qo)/C,I Range,P/W,log(|I|),Tafel slope mV/dec,alpha_eff,dI/d(E-IR),E-IR/V,
2,1,0,1,0,11048.5,2.44065e-05,-0.000401673,24.8464,6,0.0000000E+000,10,-9.98013e-06,-1.60474, , , ,-0.000401673,
2,1,0,1,0,11048.5,0.0122624,0.0119287,29.1977,6,0.000413494,10,0.000348291,-1.53465,0.254213,0.232089,262.62,0.0119287,
2,1,0,1,0,11048.5,0.0250636,0.0247278,32.0202,6,0.000904732,10,0.000791792,-1.49458,0.378545,0.15586,194.262,0.02472784,
2,1,0,1,0,11048.6,0.0378704,0.0374983,34.2641,6,0.00143582,10,0.00128484,-1.46516,0.481965,0.122416,163.564,0.0374983,
2,1,0,1,0,11048.6,0.0506632,0.0503589,36.2971,6,0.00200075,10,0.00182788,-1.44013,0.522405,0.112939,160.031,0.0503589,
2,1,0,1,0,11048.6,0.0634672,0.0631411,38.3991,6,0.0025984,10,0.00242456,-1.41568,0.5289,0.111552,167.168,0.06314107,
2,1,0,1,0,11048.6,0.0762629,0.0758978,40.6242,6,0.00323059,10,0.00308328,-1.39122,0.51311,0.114985,182.333,0.0758978,
2,1,0,1,0,11048.6,0.0890668,0.0886502,43.0302,6,0.0038999,10,0.00381464,-1.36623,0.505933,0.116616,195.908,0.0886502,
2,1,0,1,0,11048.6,0.10186,0.101485,45.6049,6,0.00460917,10,0.00462823,-1.34099,0.515011,0.114561,203.894,0.101485,
2,1,0,1,0,11048.7,0.114666,0.114266,48.2016,6,0.00536009,10,0.00550783,-1.31694,0.518722,0.113741,214.317,0.114266,
2,1,0,1,0,11048.7,0.127462,0.127142,51.087,6,0.0061549,10,0.00649529,-1.29169,0.520867,0.113273,225.895,0.127142,
2,1,0,1,0,11048.7,0.140263,0.139886,54.1386,6,0.00699656,10,0.00757323,-1.26649,0.495684,0.119028,251.594,0.139886,
2,1,0,1,0,11048.7,0.153064,0.152688,57.5043,6,0.00788971,10,0.00878023,-1.2403,0.491671,0.119999,269.271,0.152688,
2,1,0,1,0,11048.7,0.165866,0.165519,60.9196,6,0.00883777,10,0.0100833,-1.21524,0.543082,0.108639,258.105,0.165519,
2,1,0,1,0,11048.7,0.178667,0.178347,64.0044,6,0.00983829,10,0.011415,-1.19379,0.686305,0.0859676,214.404,0.178347,
2,1,0,1,0,11048.7,0.191463,0.191102,66.2767,6,0.0108824,10,0.0126656,-1.17864,1.2486,0.0472528,121.827,0.191102,
2,1,0,1,0,11048.8,0.204269,0.203921,66.8411,6,0.0119504,10,0.0136303,-1.17496,-2.51027,-0.0235035,-60.9575,0.203921,
2,1,0,1,0,11048.8,0.217062,0.216732,64.4819,6,0.0130051,10,0.0139753,-1.19056,-0.477409,-0.123584,-308.989,0.216732,
2,1,0,1,0,11048.8,0.229866,0.22959,59.0435,6,0.0139964,10,0.0135558,-1.22883,-0.266999,-0.220975,-507.071,0.22959,
2,1,0,1,0,11048.8,0.242662,0.242366,52.012,6,0.014885,10,0.0126059,-1.2839,-0.217513,-0.271248,-550.549,0.242366,
2,1,0,1,0,11048.8,0.255466,0.255188,45.3858,6,0.0156622,10,0.0115819,-1.34308,-0.223167,-0.264376,-469.354,0.255188,
2,1,0,1,0,11048.8,0.268259,0.267979,40.1041,6,0.0163435,10,0.010747,-1.39681,-0.261482,-0.225637,-354.335,0.267979,
2,1,0,1,0,11048.9,0.281065,0.280728,36.2373,6,0.0169523,10,0.0101728,-1.44084,-0.326914,-0.180475,-256.057,0.280728,
2,1,0,1,0,11048.9,0.293861,0.29353,33.4403,6,0.0175085,10,0.00981573,-1.47573,-0.414985,-0.142174,-186.413,0.29353,
2,1,0,1,0,11048.9,0.298983,0.298887,29.6813,6,0.0178011,10,0.00887138,-1.52752,0.025384,2.3243,2185.28,0.298887,
2,1,0,1,0,11048.9,0.286187,0.285917,9.1295,6,0.0180867,10,0.00261027,-2.03955,0.0174834,3.37463,1098.38,0.285917,
2,0,0,1,0,11048.9,0.273386,0.273138,-1.30012,6,0.0181405,10,-0.000355111,-2.88602,-0.0741544,-0.795637,617.329,0.273138,
2,0,0,1,0,11048.9,0.260585,0.260342,-7.481,6,0.0180658,10,-0.00194762,-2.12604,-0.0414427,-1.42365,384.427,0.260342,
2,0,0,1,0,11048.9,0.247783,0.247451,-11.4686,6,0.0179117,10,-0.00283791,-1.94049,-0.100056,-0.589668,258.662,0.247451,
2,0,0,1,0,11049,0.234982,0.234722,-14.2401,6,0.0177045,10,-0.00334246,-1.84649,-0.1762,-0.334848,184.608,0.234722,
2,0,0,1,0,11049,0.222187,0.221883,-16.3114,6,0.0174591,10,-0.00361922,-1.78751,-0.258193,-0.228512,144.928,0.221883,
2,0,0,1,0,11049,0.20938,0.209064,-18.002,6,0.0171839,10,-0.00376355,-1.74468,-0.341166,-0.172937,121.208,0.2090636,
2,0,0,1,0,11049,0.196587,0.196294,-19.4713,6,0.0168838,10,-0.0038221,-1.71061,-0.401484,-0.146955,111.549,0.196294,
2,0,0,1,0,11049,0.183783,0.18348,-20.8759,6,0.0165608,10,-0.00383032,-1.68035,-0.426636,-0.138291,112.722,0.18348,
2,0,0,1,0,11049,0.170987,0.170724,-22.3682,6,0.0162148,10,-0.00381877,-1.65037,-0.407674,-0.144724,126.634,0.170724,
2,0,0,1,0,11049.1,0.158183,0.157927,-24.2124,6,0.0158424,10,-0.00382378,-1.61596,-0.338294,-0.174405,165.272,0.157927,
2,0,0,1,0,11049.1,0.145385,0.145082,-26.6978,6,0.015436,10,-0.00387336,-1.57352,-0.268939,-0.219381,229.388,0.145082,
2,0,0,1,0,11049.1,0.132584,0.132285,-30.2171,6,0.014982,10,-0.00399726,-1.51975,-0.214187,-0.275461,326.002,0.132285,
2,0,0,1,0,11049.1,0.119783,0.119495,-35.0651,6,0.0144611,10,-0.00419011,-1.45513,-0.189553,-0.311259,426.547,0.1194953,
2,0,0,1,0,11049.1,0.106987,0.106731,-40.8724,6,0.0138535,10,-0.00436236,-1.38857,-0.201389,-0.292965,466.771,0.106731,
2,0,0,1,0,11049.1,0.0941801,0.0939915,-46.6989,6,0.0131516,10,-0.0043893,-1.33069,-0.243535,-0.242265,440.946,0.0939915,
2,0,0,1,0,11049.2,0.0813844,0.0811733,-52.0992,6,0.0123593,10,-0.00422906,-1.28317,-0.311228,-0.189571,384.108,0.0811733,
2,0,0,1,0,11049.2,0.0685832,0.068336,-56.5111,6,0.0114887,10,-0.00386174,-1.24787,-0.424311,-0.139049,305.807,0.068336,
2,0,0,1,0,11049.2,0.0557876,0.0555157,-59.7979,6,0.0105559,10,-0.00331972,-1.22331,-0.688037,-0.0857512,199.51,0.0555157,
2,0,0,1,0,11049.2,0.0429808,0.0426667,-61.6364,6,0.00958225,10,-0.00262982,-1.21016,-1.56234,-0.0377638,90.6155,0.0426667,
2,0,0,1,0,11049.2,0.030188,0.0298613,-62.1953,6,0.00859,10,-0.00185723,-1.20624,-21.001,-0.00280938,6.80974,0.0298613,
2,0,0,1,0,11049.2,0.017384,0.0170919,-61.9709,6,0.00759586,10,-0.0010592,-1.20781,3.80849,0.0154917,-37.4318,0.0170919,
2,0,0,1,0,11049.3,0.00458834,0.00429805,-61.291,6,0.00660933,10,-0.000263432,-1.2126,2.31235,0.0255152,-61.0206,0.004298049,
2,0,0,1,0,11049.3,-0.00821564,-0.008535,-60.3238,6,0.00563557,10,0.000514863,-1.21951,1.44165,0.0409253,-96.2642,-0.008535,
2,0,0,1,0,11049.3,-0.0210196,-0.0213543,-58.8314,6,0.00468168,10,0.0012563,-1.23039,0.961676,0.0613513,-140.68,-0.0213543,
2,0,0,1,0,11049.3,-0.0338153,-0.0341672,-56.7479,6,0.00375637,10,0.00193891,-1.24605,0.73583,0.0801816,-177.472,-0.0341672,
2,0,0,1,0,11049.3,-0.0466193,-0.0469864,-54.4064,6,0.00286727,10,0.00255636,-1.26435,0.686315,0.0859663,-182.538,-0.0469864,
2,0,0,1,0,11049.3,-0.0594121,-0.0597622,-52.2626,6,0.00201487,10,0.00312333,-1.28181,0.841018,0.0701531,-143.266,-0.0597622,
2,0,0,1,0,11049.3,-0.0722189,-0.0725603,-50.741,6,0.00119182,10,0.00368178,-1.29464,1.29,0.0457364,-90.7349,-0.0725603,
2,0,0,1,0,11049.4,-0.0850146,-0.0853456,-49.8852,6,0.000387491,10,0.00425748,-1.30203,2.7813,0.0212131,-41.3854,-0.0853456,
2,0,0,1,0,11049.4,-0.0978158,-0.0981882,-49.6692,6,-0.000408446,10,0.00487693,-1.30391,-63.6479,-0.000926975,1.79933,-0.0981882,
2,0,0,1,0,11049.4,-0.110611,-0.110942,-49.9479,6,-0.00120479,10,0.0055413,-1.30148,-3.01039,-0.0195988,38.2383,-0.110942,
2,0,0,1,0,11049.4,-0.123418,-0.123776,-50.6452,6,-0.00200909,10,0.00626865,-1.29546,-1.69531,-0.0348019,68.828,-0.123776,
2,0,0,1,0,11049.4,-0.136214,-0.13654,-51.658,6,-0.00282728,10,0.00705338,-1.28686,-1.31915,-0.0447257,90.2346,-0.13654,
2,0,0,1,0,11049.4,-0.149015,-0.149355,-52.9054,6,-0.00366393,10,0.00790168,-1.2765,-1.17727,-0.0501157,103.535,-0.149355,
2,0,0,1,0,11049.5,-0.161816,-0.162153,-54.275,6,-0.00452162,10,0.00880085,-1.2654,-1.16239,-0.0507576,107.529,-0.162153,
2,0,0,1,0,11049.5,-0.174615,-0.174964,-55.6813,6,-0.00540146,10,0.0097422,-1.25429,-1.18289,-0.049878,108.35,-0.174964,
2,0,0,1,0,11049.5,-0.187419,-0.187776,-57.0526,6,-0.00630343,10,0.0107131,-1.24372,-1.23118,-0.0479215,106.675,-0.187776,
2,0,0,1,0,11049.5,-0.199647,-0.199941,-58.3245,6,-0.0071864,10,0.0116614,-1.23415,0.290945,0.202788,-447.352,-0.199941,
2,0,0,1,1,11049.5,-0.192535,-0.19296,-42.7202,6,-0.00769334,10,0.00824329,-1.36937,-0.0589065,-1.00159,1698.81,-0.1929599,
2,0,0,1,1,11049.5,-0.179739,-0.180135,-25.7891,6,-0.00823075,10,0.00464552,-1.58856,-0.0533332,-1.10625,1107.91,-0.180135,
2,0,0,1,1,11049.5,-0.166932,-0.167328,-13.4469,6,-0.00853908,10,0.00225004,-1.87138,-0.0350962,-1.6811,853.083,-0.167328,
2,0,0,1,1,11049.6,-0.154139,-0.154553,-3.6487,6,-0.0086723,10,0.000563918,-2.43786,-0.0110213,-5.35327,696.048,-0.154553,
2,1,0,1,1,11049.6,-0.141335,-0.141801,4.47237,6,-0.00866308,10,-0.000634184,-2.34946,0.0111609,5.28629,585.38,-0.141801,
2,1,0,1,1,11049.6,-0.12854,-0.129015,11.3617,6,-0.00853433,10,-0.00146584,-1.94456,0.0502589,1.17392,502.017,-0.129015,
2,1,0,1,1,11049.6,-0.115736,-0.116174,17.3607,6,-0.00830263,10,-0.00201686,-1.76043,0.0907311,0.650273,434.692,-0.116174,
2,1,0,1,1,11049.6,-0.102932,-0.10331,22.5674,6,-0.00798154,10,-0.00233144,-1.64652,0.137349,0.429564,375.425,-0.10331,
2,1,0,1,1,11049.6,-0.0901362,-0.0905246,27.0748,6,-0.00758314,10,-0.00245093,-1.56743,0.187845,0.314088,330.283,-0.0905246,
2,1,0,1,1,11049.7,-0.0773322,-0.0777393,31.0116,6,-0.0071174,10,-0.00241082,-1.50848,0.250007,0.235993,284.629,-0.0777393,
2,1,0,1,1,11049.7,-0.0645393,-0.0649306,34.4183,6,-0.00659298,10,-0.0022348,-1.46321,0.317221,0.18599,249.222,-0.0649306,
2,1,0,1,1,11049.7,-0.0517325,-0.0520902,37.355,6,-0.00601782,10,-0.00194583,-1.42765,0.404205,0.145966,212.415,-0.0520902,
2,1,0,1,1,11049.7,-0.0389369,-0.0393218,39.8223,6,-0.00539945,10,-0.00156588,-1.39987,0.521676,0.113097,175.558,-0.0393218,
2,1,0,1,1,11049.7,-0.0261357,-0.0265418,41.8758,6,-0.00474494,10,-0.00111146,-1.37804,0.677434,0.0870933,142.133,-0.0265418,
2,1,0,1,1,11049.7,-0.01334,-0.0137405,43.4869,6,-0.00406132,10,-0.000597534,-1.36164,0.915626,0.0644368,109.211,-0.0137405,
2,1,0,1,1,11049.8,-0.000774628,-0.00119698,44.6779,6,-0.00336865,10,-5.34785e-05,-1.34991, , , ,-0.00119698,
2,1,0,0,1,11049.8,-0.000125413,-0.000478022,44.7536,6,-0.00333289,10,-2.13932e-05,-1.34917, , , ,-0.000478022,