Folder: Figs_alphaMnO2_OER_Tafel_sleope/Figure_codes/Fig_3-5/rawdata_trumpetplot_data/after 10th (part 148)

File: 20221101_1-115_003_TrumpetPlot_ParaChange_from10_every3_10_CV_C01_17.csv
mode,ox/red,error,control changes,counter inc.,time/s,control/V,Ewe/V,<I>/mA,cycle number,(Q-Qo)/C,I Range,P/W,log(|I|),Tafel slope mV/dec,alpha_eff,dI/d(E-IR),E-IR/V,
2,1,0,0,0,34682.7,-2.44065e-05,-0.000382585,5.08935,18,0.0000000E+000,10,-1.94711e-06,-2.29334, , , ,-0.000382585,
2,1,0,1,0,34682.8,0.00977853,0.00947515,7.60782,18,0.000322544,10,7.20852e-05,-2.11874,0.116273,0.507425,150.126,0.00947515,
2,1,0,1,0,34682.8,0.0197755,0.0194448,8.72983,18,0.000733441,10,0.00016975,-2.05899,0.240826,0.24499,83.3306,0.0194448,
2,1,0,1,0,34682.9,0.0297726,0.0294778,9.46481,18,0.00118916,10,0.000279002,-2.02389,0.334644,0.176307,65.1047,0.0294778,
2,1,0,1,0,34682.9,0.0397514,0.0394192,10.0928,18,0.00167733,10,0.000397851,-1.99599,0.341712,0.17266,68.013,0.0394192,
2,1,0,1,0,34683,0.0497393,0.0494023,10.7305,18,0.00219683,10,0.000530112,-1.96938,0.379763,0.15536,65.0126,0.0494023,
2,1,0,1,0,34683,0.0597364,0.0594093,11.3811,18,0.00274929,10,0.00067614,-1.94382,0.39247,0.15033,66.7082,0.0594093,
2,1,0,1,0,34683.1,0.0697152,0.0694038,12.0514,18,0.00333409,10,0.000836414,-1.91896,0.435924,0.135345,63.7158,0.0694038,
2,1,0,1,0,34683.1,0.0796941,0.0793425,12.7188,18,0.00395234,10,0.00100915,-1.89555,0.443942,0.1329,65.9279,0.0793425,
2,1,0,1,0,34683.2,0.0896911,0.0893373,13.3439,18,0.0046047,10,0.00119211,-1.87472,0.501904,0.117552,61.3074,0.0893373,
2,1,0,1,0,34683.2,0.099679,0.0993598,13.958,18,0.00528604,10,0.00138686,-1.85518,0.554345,0.106432,57.9013,0.0993598,
2,1,0,1,0,34683.3,0.109658,0.109288,14.5926,18,0.00599752,10,0.0015948,-1.83587,0.458861,0.128579,73.2746,0.109288,
2,1,0,1,0,34683.3,0.119655,0.119305,15.4477,18,0.00674763,10,0.00184299,-1.81114,0.38783,0.152129,91.7096,0.119305,
2,1,0,1,0,34683.4,0.129652,0.129267,16.4464,18,0.00754494,10,0.00212598,-1.78393,0.380332,0.155128,99.5925,0.129267,
2,1,0,1,0,34683.4,0.139631,0.13929,17.4056,18,0.00839035,10,0.00242442,-1.75931,0.463041,0.127418,86.5013,0.13929,
2,1,0,1,0,34683.5,0.149619,0.14928,18.1392,18,0.00927819,10,0.00270782,-1.74138,0.717408,0.0822405,58.1857,0.14928,
2,1,0,1,0,34683.5,0.159616,0.159301,18.4124,18,0.0101947,10,0.00293311,-1.73489,-2.65059,-0.0222592,-15.9764,0.159301,
2,1,0,1,0,34683.6,0.169595,0.169265,17.6583,18,0.0110999,10,0.00298894,-1.75305,-0.283146,-0.208373,-143.401,0.169265,
2,1,0,1,0,34683.6,0.179573,0.179244,15.6848,18,0.0119356,10,0.00281141,-1.80452,-0.153542,-0.384259,-235.061,0.179244,
2,1,0,1,0,34683.7,0.18957,0.18925,13.3559,18,0.0126607,10,0.0025276,-1.87433,-0.143858,-0.410128,-214.042,0.18925,
2,1,0,1,0,34683.7,0.199558,0.199248,11.5618,18,0.0132795,10,0.00230367,-1.93697,-0.179923,-0.327918,-147.954,0.199248,
2,1,0,1,0,34683.8,0.209537,0.209246,10.3595,18,0.0138239,10,0.00216768,-1.98466,-0.232056,-0.254249,-102.863,0.209246,
2,1,0,1,0,34683.8,0.219534,0.219213,9.55019,18,0.01432,10,0.00209352,-2.01999,-0.332488,-0.17745,-66.111,0.219213,
2,1,0,1,0,34683.9,0.229531,0.2292,8.97518,18,0.0147825,10,0.00205711,-2.04696,-0.419245,-0.140729,-49.3504,0.2292,
2,1,0,1,0,34683.9,0.23951,0.239198,8.57405,18,0.01522,10,0.0020509,-2.06681,-0.584315,-0.100973,-33.8104,0.239198,
2,1,0,1,0,34684,0.249498,0.249146,8.26117,18,0.0156398,10,0.00205824,-2.08296,-0.701805,-0.0840689,-27.1351,0.249146,
2,1,0,1,0,34684,0.259495,0.259185,8.02927,18,0.0160466,10,0.00208107,-2.09532,-0.749823,-0.0786853,-24.621,0.259185,
2,1,0,1,0,34684.1,0.269474,0.269127,7.8204,18,0.0164418,10,0.00210468,-2.10677,-0.95509,-0.0617743,-18.8761,0.269127,
2,1,0,1,0,34684.1,0.279453,0.279107,7.66382,18,0.016828,10,0.00213903,-2.11555,-1.12614,-0.0523915,-15.6605,0.279107,
2,1,0,1,0,34684.2,0.28945,0.289169,7.50622,18,0.0172071,10,0.00217056,-2.12458,-1.43275,-0.0411796,-12.0713,0.289169,
2,1,0,1,0,34684.2,0.299438,0.299117,7.37715,18,0.0175783,10,0.00220663,-2.13211,-0.066463,-0.887712,-246.082,0.2991173,
2,1,0,1,0,34684.3,0.291747,0.291427,0.710838,18,0.0177303,10,0.000207157,-3.14823,0.00125815,46.8943,397.572,0.291427,
2,0,0,1,0,34684.3,0.28175,0.281478,-1.71721,18,0.0176952,10,-0.000483358,-2.76518,-0.025344,-2.32797,151.388,0.281478,
2,0,0,1,0,34684.4,0.27178,0.271475,-2.8096,18,0.0175796,10,-0.000762737,-2.55136,-0.0764858,-0.771385,84.2996,0.271475,
2,0,0,1,0,34684.4,0.261783,0.261468,-3.47536,18,0.0174212,10,-0.000908698,-2.459,-0.152034,-0.388072,52.5199,0.261468,
2,0,0,1,0,34684.5,0.251786,0.251442,-3.93931,18,0.017235,10,-0.000990505,-2.40458,-0.215128,-0.274255,42.2863,0.2514416,
2,0,0,1,0,34684.5,0.241807,0.241474,-4.3236,18,0.0170282,10,-0.00104404,-2.36415,-0.284415,-0.207443,34.9839,0.2414736,
2,0,0,1,0,34684.6,0.231824,0.231468,-4.6416,18,0.0168045,10,-0.00107438,-2.33333,-0.334635,-0.176311,31.9251,0.231468,
2,0,0,1,0,34684.6,0.221822,0.221509,-4.92124,18,0.0165653,10,-0.0010901,-2.30793,-0.40977,-0.143983,27.6075,0.221509,
2,0,0,1,0,34684.7,0.211843,0.211494,-5.17974,18,0.016313,10,-0.00109548,-2.28569,-0.528111,-0.111719,22.6161,0.211494,
2,0,0,1,0,34684.7,0.201865,0.201568,-5.44072,18,0.0160479,10,-0.00109668,-2.26434,-0.499374,-0.118148,25.0808,0.201568,
2,0,0,1,0,34684.8,0.191868,0.191538,-5.69607,18,0.0157694,10,-0.00109101,-2.24442,-0.48389,-0.121928,27.1396,0.1915378,
2,0,0,1,0,34684.8,0.18188,0.181537,-5.99122,18,0.015478,10,-0.00108763,-2.22248,-0.41594,-0.141847,33.0805,0.181537,
2,0,0,1,0,34684.9,0.171901,0.171598,-6.30209,18,0.0151716,10,-0.00108143,-2.20052,-0.412098,-0.14317,35.2721,0.171598,
2,0,0,1,0,34684.9,0.161904,0.161568,-6.73264,18,0.0148461,10,-0.00108778,-2.17181,-0.30388,-0.194155,50.9775,0.161568,
2,0,0,1,0,34685,0.151907,0.151539,-7.32858,18,0.0144956,10,-0.00111057,-2.13498,-0.227417,-0.259436,74.3518,0.151539,
2,0,0,1,0,34685,0.141928,0.141573,-8.31198,18,0.0141073,10,-0.00117675,-2.0803,-0.146996,-0.401372,130.274,0.141573,
2,0,0,1,0,34685.1,0.13194,0.131611,-9.87399,18,0.0136559,10,-0.00129952,-2.00551,-0.121681,-0.484874,186.99,0.131611,
2,0,0,1,0,34685.1,0.121943,0.121658,-11.8755,18,0.0131128,10,-0.00144475,-1.92535,-0.138095,-0.427243,197.653,0.121658,
2,0,0,1,0,34685.2,0.111964,0.111662,-13.801,18,0.0124713,10,-0.00154105,-1.86009,-0.177553,-0.332295,178.986,0.111662,
2,0,0,1,0,34685.2,0.101985,0.101674,-15.4179,18,0.0117402,10,-0.0015676,-1.81197,-0.257409,-0.229207,137.741,0.101674,
2,0,0,1,0,34685.3,0.0919883,0.0916669,-16.5373,18,0.0109389,10,-0.00151592,-1.78154,-0.425203,-0.138757,89.578,0.0916669,
2,0,0,1,0,34685.3,0.0820004,0.0817096,-17.0925,18,0.0100967,10,-0.00139662,-1.76719,-1.92522,-0.0306458,20.4177,0.0817096,
2,0,0,1,0,34685.4,0.0720215,0.0717163,-17.0238,18,0.00924355,10,-0.00122089,-1.76894,1.41637,0.0416557,-27.677,0.0717163,
2,0,0,1,0,34685.4,0.0620245,0.0617232,-16.6619,18,0.00840083,10,-0.00102843,-1.77827,0.906253,0.0651032,-42.3233,0.0617232,
2,0,0,1,0,34685.5,0.0520275,0.0516746,-16.2837,18,0.00757719,10,-0.000841452,-1.78825,0.924973,0.0637856,-40.545,0.0516746,
2,0,0,1,0,34685.5,0.0420486,0.0417216,-15.9354,18,0.00677343,10,-0.000664852,-1.79764,1.07751,0.0547561,-34.04,0.0417216,
2,0,0,1,0,34685.6,0.0320607,0.0316746,-15.5487,18,0.00598786,10,-0.000492498,-1.80831,0.840436,0.0702017,-42.5917,0.0316746,
2,0,0,1,0,34685.6,0.0220637,0.021724,-15.0885,18,0.00522173,10,-0.000327783,-1.82135,0.664886,0.088737,-52.2007,0.021724,
2,0,0,1,0,34685.7,0.0120848,0.0117689,-14.496,18,0.00448322,10,-0.000170602,-1.83875,0.502083,0.11751,-66.5081,0.0117689,
2,0,0,1,0,34685.7,0.00210598,0.00172223,-13.8809,18,0.0037764,10,-2.39061e-05,-1.85758,0.556563,0.106008,-57.2626,0.00172223,
2,0,0,1,0,34685.8,-0.00789103,-0.00824743,-13.2345,18,0.0030992,10,0.000109151,-1.87829,0.559801,0.105395,-54.5182,-0.00824743,
2,0,0,1,0,34685.8,-0.017879,-0.0182253,-12.8181,18,0.00244988,10,0.000233613,-1.89218,0.934834,0.0631128,-31.5467,-0.0182253,
2,0,0,1,0,34685.9,-0.0278578,-0.0282249,-12.5611,18,0.00181759,10,0.000354537,-1.90097,1.52115,0.0387865,-19.0335,-0.0282249,
2,0,0,1,0,34685.9,-0.0378549,-0.0382562,-12.4928,18,0.00119194,10,0.000477928,-1.90334,10.922,0.00540195,-2.63186,-0.0382562,
2,0,0,1,0,34686,-0.0478519,-0.0481694,-12.5474,18,0.000566383,10,0.000604399,-1.90145,-1.84133,-0.032042,15.7073,-0.0481694,
2,0,0,1,0,34686,-0.0578126,-0.0582163,-12.7337,18,-6.28426e-05,10,0.000741309,-1.89505,-1.36073,-0.0433592,21.5307,-0.0582163,
2,0,0,1,0,34686.1,-0.0678187,-0.0681964,-12.9987,18,-0.000705775,10,0.000886465,-1.8861,-0.902013,-0.0654093,33.1947,-0.0681964,
2,0,0,1,0,34686.1,-0.0778157,-0.078219,-13.3676,18,-0.00136465,10,0.0010456,-1.87395,-0.778553,-0.0757816,39.5337,-0.078219,
2,0,0,1,0,34686.2,-0.0877945,-0.0882105,-13.8286,18,-0.00204284,10,0.00121983,-1.85922,-0.589783,-0.100037,54.0311,-0.0882105,
2,0,0,1,0,34686.2,-0.0977734,-0.0981392,-14.3832,18,-0.00274668,10,0.00141155,-1.84215,-0.563856,-0.104637,58.7588,-0.0981392,
2,0,0,1,1,34686.3,-0.0936874,-0.0940616,-6.96122,18,-0.00322565,10,0.000654784,-2.15731,-0.0200794,-2.93834,796.809,-0.0940616,
2,0,0,1,1,34686.3,-0.0837086,-0.0840562,-1.00289,18,-0.00340924,10,8.42993e-05,-2.99875,-0.00352096,-16.7568,450.738,-0.0840562,
2,1,0,1,1,34686.4,-0.0737025,-0.0741256,2.64899,18,-0.00336105,10,-0.000196358,-2.57692,0.0198626,2.9704,299.395,-0.07412561,
2,1,0,1,1,34686.4,-0.0637236,-0.0641136,5.10143,18,-0.00316365,10,-0.000327071,-2.29231,0.0584768,1.00895,199.772,-0.0641136,
2,1,0,1,1,34686.5,-0.0537448,-0.0541004,6.78363,18,-0.00286425,10,-0.000366997,-2.16854,0.1133,0.520742,137.673,-0.0541004,
2,1,0,1,1,34686.5,-0.0437477,-0.044116,7.93748,18,-0.00249403,10,-0.00035017,-2.10032,0.198052,0.297901,92.1622,-0.04411599,
2,1,0,1,1,34686.6,-0.0337507,-0.0341463,8.70988,18,-0.0020762,10,-0.00029741,-2.05999,0.329934,0.178824,60.8385,-0.0341463,
2,1,0,1,1,34686.6,-0.0237809,-0.0241446,9.22032,18,-0.00162882,10,-0.000222621,-2.03525,0.528396,0.111659,40.0931,-0.0241446,
2,1,0,1,1,34686.7,-0.0137839,-0.0141931,9.50628,18,-0.00116013,10,-0.000134924,-2.02199,1.1421,0.0516593,19.1712,-0.0141931,
2,1,0,1,1,34686.7,-0.0037869,-0.00417489,9.67824,18,-0.000680167,10,-4.04056e-05,-2.0142,2.03219,0.0290327,10.9534,-0.00417489,
2,1,0,1,1,34686.7,-2.55332e-05,-0.000306236,9.71967,18,-0.000498913,10,-2.97651e-06,-2.01235, , , ,-0.000306236,

File: 20221101_1-115_003_TrumpetPlot_ParaChange_from10_every3_10_CV_C01_18.csv
mode,ox/red,error,control changes,counter inc.,time/s,control/V,Ewe/V,<I>/mA,cycle number,(Q-Qo)/C,I Range,P/W,log(|I|),Tafel slope mV/dec,alpha_eff,dI/d(E-IR),E-IR/V,
2,1,0,0,0,36652.9,-2.44065e-05,-0.000325324,5.15741,19,0.0000000E+000,10,-1.67783e-06,-2.28757, , , ,-0.000325324,
2,1,0,1,0,36652.9,0.00977853,0.00947601,7.59025,19,0.000322722,10,7.19253e-05,-2.11974,0.11778,0.500936,147.718,0.00947601,
2,1,0,1,0,36653,0.0197755,0.0193893,8.70677,19,0.000732655,10,0.000168818,-2.06014,0.232382,0.253892,86.2743,0.0193893,
2,1,0,1,0,36653,0.0297726,0.0294518,9.46488,19,0.001188,10,0.000278757,-2.02388,0.33059,0.178469,65.8463,0.02945176,
2,1,0,1,0,36653.1,0.0397514,0.0394526,10.0887,19,0.00167616,10,0.000398025,-1.99617,0.350782,0.168196,66.3152,0.0394526,
2,1,0,1,0,36653.1,0.0497393,0.0493833,10.7361,19,0.00219556,10,0.000530182,-1.96916,0.392106,0.150469,62.9046,0.0493833,
2,1,0,1,0,36653.2,0.0597364,0.059424,11.3614,19,0.00274762,10,0.000675142,-1.94457,0.376441,0.156731,69.5316,0.05942405,
2,1,0,1,0,36653.2,0.0697152,0.0693458,12.0443,19,0.00333157,10,0.000835219,-1.91922,0.41541,0.142028,66.7045,0.0693458,
2,1,0,1,0,36653.3,0.0796941,0.079346,12.6843,19,0.00394878,10,0.00100644,-1.89674,0.444899,0.132614,65.7392,0.079346,
2,1,0,1,0,36653.3,0.0896911,0.0893556,13.3409,19,0.00460002,10,0.00119208,-1.87482,0.509802,0.115731,60.2148,0.0893556,
2,1,0,1,0,36653.4,0.099679,0.0993518,13.9228,19,0.0052803,10,0.00138325,-1.85627,0.541781,0.1089,59.1812,0.0993518,
2,1,0,1,0,36653.4,0.109658,0.109396,14.5585,19,0.00599033,10,0.00159263,-1.83688,0.479009,0.123171,69.9334,0.109396,
2,1,0,1,0,36653.5,0.119655,0.119381,15.3546,19,0.00673733,10,0.00183304,-1.81376,0.403488,0.146225,87.6981,0.119381,
2,1,0,1,0,36653.5,0.129652,0.129314,16.3307,19,0.00752926,10,0.00211178,-1.787,0.375076,0.157302,100.19,0.129314,
2,1,0,1,0,36653.6,0.139631,0.139337,17.2732,19,0.00836846,10,0.00240679,-1.76263,0.452186,0.130477,88.0033,0.139337,
2,1,0,1,0,36653.6,0.149619,0.149295,18.0553,19,0.0092511,10,0.00269557,-1.74339,0.646346,0.0912823,64.2542,0.149295,
2,1,0,1,0,36653.7,0.159616,0.159321,18.4229,19,0.0101656,10,0.00293516,-1.73464,57.7818,0.00102108,0.734079,0.159321,
2,1,0,1,0,36653.7,0.169595,0.169304,17.9308,19,0.0110774,10,0.00303576,-1.7464,-0.363897,-0.162134,-113.227,0.169304,
2,1,0,1,0,36653.8,0.179573,0.179255,16.2161,19,0.0119335,10,0.00290681,-1.79005,-0.173214,-0.340618,-215.503,0.179255,
2,1,0,1,0,36653.8,0.18957,0.189226,13.9501,19,0.0126877,10,0.00263972,-1.85542,-0.148274,-0.397911,-216.599,0.189226,
2,1,0,1,0,36653.9,0.199558,0.199249,12.0106,19,0.0133327,10,0.00239311,-1.92043,-0.170067,-0.346922,-162.766,0.199249,
2,1,0,1,0,36653.9,0.209537,0.209244,10.6659,19,0.0138959,10,0.00223177,-1.972,-0.214113,-0.275556,-114.662,0.209244,
2,1,0,1,0,36654,0.219534,0.219189,9.73594,19,0.0144041,10,0.00213401,-2.01162,-0.308852,-0.19103,-72.6552,0.219189,
2,1,0,1,0,36654,0.229531,0.229218,9.1053,19,0.0148744,10,0.0020871,-2.04071,-0.38505,-0.153227,-54.4487,0.229218,
2,1,0,1,0,36654.1,0.23951,0.239232,8.65635,19,0.0153169,10,0.00207088,-2.06267,-0.537291,-0.10981,-37.1402,0.239232,
2,1,0,1,0,36654.1,0.249498,0.249195,8.32736,19,0.0157402,10,0.00207514,-2.07949,-0.612651,-0.0963027,-31.2707,0.249195,
2,1,0,1,0,36654.2,0.259495,0.259199,8.06536,19,0.0161497,10,0.00209053,-2.09338,-0.737415,-0.0800093,-25.1997,0.259199,
2,1,0,1,0,36654.2,0.269474,0.269162,7.86835,19,0.016547,10,0.00211786,-2.10412,-1.06858,-0.0552136,-16.9425,0.269162,
2,1,0,1,0,36654.3,0.279453,0.279104,7.68912,19,0.016935,10,0.00214607,-2.11412,-1.0559,-0.0558765,-16.7913,0.279104,
2,1,0,1,0,36654.3,0.28945,0.289123,7.54215,19,0.0173158,10,0.00218061,-2.1225,-1.47427,-0.0400199,-11.7749,0.289123,
2,1,0,1,0,36654.4,0.299438,0.299104,7.4055,19,0.0176887,10,0.00221501,-2.13045,-0.0674906,-0.874196,-244.057,0.299104,
2,1,0,1,0,36654.4,0.291747,0.291425,0.926077,19,0.0178487,10,0.000269882,-3.03335,0.00421416,14.0004,404.983,0.2914252,
2,0,0,1,0,36654.5,0.28175,0.281436,-1.60173,19,0.0178219,10,-0.000450784,-2.79541,-0.0218651,-2.69836,163.777,0.281436,
2,0,0,1,0,36654.5,0.27178,0.271462,-2.77475,19,0.01771,10,-0.00075324,-2.55678,-0.0696237,-0.847412,91.1448,0.271462,
2,0,0,1,0,36654.6,0.261783,0.261469,-3.47281,19,0.0175527,10,-0.000908033,-2.45932,-0.142901,-0.412873,55.8327,0.261469,
2,0,0,1,0,36654.6,0.251786,0.251477,-3.96421,19,0.0173661,10,-0.000996909,-2.40184,-0.217442,-0.271337,41.9367,0.251477,
2,0,0,1,0,36654.7,0.241807,0.241493,-4.34636,19,0.0171582,10,-0.00104962,-2.36187,-0.295409,-0.199723,33.9282,0.241493,
2,0,0,1,0,36654.7,0.231824,0.231486,-4.68114,19,0.0169328,10,-0.00108362,-2.32965,-0.332373,-0.177511,32.3647,0.231486,
2,0,0,1,0,36654.8,0.221822,0.221503,-4.9591,19,0.0166917,10,-0.00109846,-2.3046,-0.397901,-0.148278,28.6964,0.221503,
2,0,0,1,0,36654.8,0.211843,0.211556,-5.23152,19,0.0164374,10,-0.00110676,-2.28137,-0.531323,-0.111044,22.6504,0.211556,
2,0,0,1,0,36654.9,0.201865,0.201541,-5.47902,19,0.0161702,10,-0.00110425,-2.2613,-0.516477,-0.114235,24.4806,0.201541,
2,0,0,1,0,36654.9,0.191868,0.19153,-5.74906,19,0.0158894,10,-0.00110112,-2.2404,-0.502863,-0.117328,26.2893,0.19153,
2,0,0,1,0,36655,0.18188,0.181574,-6.02622,19,0.0155961,10,-0.00109421,-2.21996,-0.424714,-0.138917,32.6635,0.181574,
2,0,0,1,0,36655,0.171901,0.171568,-6.35604,19,0.0152876,10,-0.00109049,-2.19681,-0.418199,-0.141081,34.9084,0.171568,
2,0,0,1,0,36655.1,0.161904,0.161566,-6.75077,19,0.0149607,10,-0.00109069,-2.17065,-0.317433,-0.185866,49.0395,0.1615655,
2,0,0,1,0,36655.1,0.151907,0.151611,-7.33549,19,0.0146093,10,-0.00111214,-2.13457,-0.243476,-0.242324,69.4173,0.151611,
2,0,0,1,0,36655.2,0.141928,0.14163,-8.26158,19,0.014222,10,-0.00117009,-2.08294,-0.156254,-0.37759,122.008,0.14163,
2,0,0,1,0,36655.2,0.13194,0.131667,-9.7546,19,0.0137749,10,-0.00128436,-2.01079,-0.126409,-0.466739,177.569,0.131667,
2,0,0,1,0,36655.3,0.121943,0.121617,-11.6626,19,0.0132402,10,-0.00141837,-1.9332,-0.136281,-0.432929,197.052,0.121617,
2,0,0,1,0,36655.3,0.111964,0.111664,-13.5749,19,0.0126099,10,-0.00151583,-1.86726,-0.174326,-0.338447,179.015,0.111664,
2,0,0,1,0,36655.4,0.101985,0.101692,-15.1829,19,0.0118907,10,-0.00154398,-1.81865,-0.250067,-0.235937,139.751,0.101692,
2,0,0,1,0,36655.4,0.0919883,0.0916981,-16.3748,19,0.0110996,10,-0.00150154,-1.78582,-0.382526,-0.154238,98.4816,0.0916981,
2,0,0,1,0,36655.5,0.0820004,0.0816682,-17.0135,19,0.0102636,10,-0.00138947,-1.76921,-1.17284,-0.0503051,33.3962,0.08166822,
2,0,0,1,0,36655.5,0.0720215,0.0717206,-17.0915,19,0.00941068,10,-0.00122581,-1.76722,2.66864,0.0221086,-14.7334,0.0717206,
2,0,0,1,0,36655.6,0.0620245,0.0617501,-16.7937,19,0.00856271,10,-0.00103701,-1.77485,1.07743,0.0547599,-35.9239,0.0617501,
2,0,0,1,0,36655.6,0.0520275,0.0516998,-16.4622,19,0.00773113,10,-0.000851089,-1.78351,1.03511,0.0569988,-36.6048,0.0516998,
2,0,0,1,0,36655.7,0.0420486,0.0417336,-16.1108,19,0.00691822,10,-0.000672362,-1.79288,1.09887,0.0536917,-33.792,0.0417336,
2,0,0,1,0,36655.7,0.0320607,0.0316997,-15.7542,19,0.00612293,10,-0.000499403,-1.8026,0.894326,0.0659715,-40.5275,0.0316997,
2,0,0,1,0,36655.8,0.0220637,0.0217743,-15.2937,19,0.00534645,10,-0.000333011,-1.81549,0.702814,0.0839483,-50.1103,0.02177432,
2,0,0,1,0,36655.8,0.0120848,0.011718,-14.7371,19,0.00459669,10,-0.000172689,-1.83159,0.518552,0.113778,-65.3985,0.011718,
2,0,0,1,0,36655.9,0.00210598,0.00170574,-14.1058,19,0.00387813,10,-2.40608e-05,-1.8506,0.543453,0.108565,-59.6673,0.00170574,
2,0,0,1,0,36655.9,-0.00789103,-0.00825871,-13.4392,19,0.00319008,10,0.000110991,-1.87163,0.54251,0.108754,-57.069,-0.00825871,
2,0,0,1,0,36656,-0.017879,-0.0182714,-12.9592,19,0.00253218,10,0.000236782,-1.88742,0.778149,0.075821,-38.3539,-0.0182714,
2,0,0,1,0,36656,-0.0278578,-0.028211,-12.6574,19,0.00189388,10,0.000357078,-1.89766,1.36497,0.0432243,-21.3651,-0.028211,
2,0,0,1,0,36656.1,-0.0378548,-0.0382328,-12.5456,19,0.00126439,10,0.000479654,-1.90151,5.29579,0.0111409,-5.45586,-0.0382328,
2,0,0,1,0,36656.1,-0.0478519,-0.0482284,-12.5798,19,0.000636734,10,0.000606706,-1.90032,-2.07721,-0.0284035,13.9499,-0.0482284,
2,0,0,1,0,36656.2,-0.0578126,-0.0581842,-12.7261,19,6.73751e-06,10,0.000740458,-1.8953,-1.47683,-0.0399504,19.859,-0.0581842,
2,0,0,1,0,36656.2,-0.0678187,-0.0682163,-12.9922,19,-0.000635989,10,0.000886282,-1.88632,-0.945366,-0.0624097,31.6243,-0.0682163,
2,0,0,1,0,36656.3,-0.0778157,-0.0782346,-13.3248,19,-0.00129381,10,0.00104246,-1.87534,-0.801266,-0.0736334,38.3442,-0.0782346,
2,0,0,1,0,36656.3,-0.0877945,-0.0881525,-13.7864,19,-0.00196996,10,0.0012153,-1.86055,-0.635961,-0.092773,49.8711,-0.0881525,
2,0,0,1,0,36656.4,-0.0977734,-0.0981774,-14.3048,19,-0.00267056,10,0.00140441,-1.84452,-0.560461,-0.10527,58.8237,-0.0981774,
2,0,0,1,1,36656.4,-0.0936874,-0.0940926,-7.20358,19,-0.0031528,10,0.000677804,-2.14245,-0.0211224,-2.79324,786.374,-0.0940926,
2,0,0,1,1,36656.4,-0.0837086,-0.0840918,-1.38111,19,-0.00335286,10,0.00011614,-2.85977,-0.00613984,-9.60937,443.621,-0.0840918,
2,1,0,1,1,36656.5,-0.0737025,-0.074156,2.29871,19,-0.00332312,10,-0.000170463,-2.63852,0.0171946,3.43132,295.78,-0.074156,
2,1,0,1,1,36656.5,-0.0637236,-0.0641438,4.78374,19,-0.0031426,10,-0.000306847,-2.32023,0.0530486,1.11219,207.027,-0.0641438,
2,1,0,1,1,36656.6,-0.0537447,-0.0540778,6.55255,19,-0.00285699,10,-0.000354347,-2.18359,0.105126,0.561231,142.908,-0.0540778,
2,1,0,1,1,36656.6,-0.0437477,-0.0441012,7.76471,19,-0.00249698,10,-0.000342433,-2.10987,0.178979,0.329647,99.8907,-0.0441012,
2,1,0,1,1,36656.7,-0.0337507,-0.0341385,8.6217,19,-0.00208569,10,-0.000294332,-2.06441,0.285036,0.206991,69.5489,-0.0341385,
2,1,0,1,1,36656.7,-0.0237809,-0.0241411,9.17112,19,-0.00164168,10,-0.000221401,-2.03758,0.461642,0.127805,45.7466,-0.0241411,
2,1,0,1,1,36656.8,-0.0137839,-0.0141697,9.52119,19,-0.0011736,10,-0.000134913,-2.02131,0.932796,0.0632507,23.4911,-0.0141697,
2,1,0,1,1,36656.8,-0.0037869,-0.0041801,9.71729,19,-0.000692082,10,-4.06192e-05,-2.01245,1.37558,0.0428909,16.2738,-0.0041801,
2,1,0,1,1,36656.9,-2.55332e-05,-0.000363498,9.75528,19,-0.000509804,10,-3.54603e-06,-2.01076, , , ,-0.000363498,