Folder: Figs_alphaMnO2_OER_Tafel_sleope/Figure_codes/Fig_3-5/rawdata_trumpetplot_data/after 10th (part 59)

File: 20221101_1-115_003_TrumpetPlot_ParaChange_from10_every3_05_CV_C01_12.csv
mode,ox/red,error,control changes,counter inc.,time/s,control/V,Ewe/V,<I>/mA,cycle number,(Q-Qo)/C,I Range,P/W,log(|I|),Tafel slope mV/dec,alpha_eff,dI/d(E-IR),E-IR/V,
2,0,0,1,0,24761.6,2.44065e-05,-0.00042076,-0.73479,13,0.0000000E+000,10,3.0917e-07,-3.13384, , , ,-0.00042076,
2,1,0,1,0,24761.9,0.00729063,0.00698098,0.711453,13,0.000159306,10,4.96664e-06,-3.14785,0.0530539,1.11208,30.2826,0.00698098,
2,1,0,1,0,24762.3,0.0147802,0.0144492,0.859433,13,0.00046252,10,1.24181e-05,-3.06579,0.125048,0.471818,15.766,0.0144492,
2,1,0,1,0,24762.7,0.0222725,0.0219399,0.96338,13,0.000810644,10,2.11365e-05,-3.0162,0.17989,0.327978,12.3051,0.0219399,
2,1,0,1,0,24763.1,0.0297644,0.0294488,1.06101,13,0.00119622,10,3.12453e-05,-2.97428,0.194103,0.303962,12.5653,0.0294488,
2,1,0,1,0,24763.4,0.0372544,0.0369806,1.15777,13,0.00161839,10,4.28148e-05,-2.93638,0.215567,0.273696,12.3662,0.0369806,
2,1,0,1,0,24763.8,0.0447449,0.0444568,1.2546,13,0.00207699,10,5.57756e-05,-2.90149,0.235139,0.250916,12.2728,0.0444568,
2,1,0,1,0,24764.2,0.0522363,0.0518782,1.34385,13,0.00257069,10,6.97166e-05,-2.87165,0.256311,0.230189,12.076,0.0518782,
2,1,0,1,0,24764.6,0.0597291,0.0593847,1.42705,13,0.00309698,10,8.4745e-05,-2.84556,0.293839,0.20079,11.1694,0.0593847,
2,1,0,1,0,24764.9,0.0672182,0.0669183,1.50324,13,0.00365227,10,0.000100594,-2.82297,0.38984,0.151344,8.85409,0.0669183,
2,1,0,1,0,24765.3,0.0747092,0.074397,1.56603,13,0.00423327,10,0.000116508,-2.8052,0.564731,0.104474,6.37998,0.074397,
2,1,0,1,0,24765.7,0.0822001,0.0819069,1.61757,13,0.00483594,10,0.00013249,-2.79114,0.577405,0.102181,6.45734,0.08190693,
2,1,0,1,0,24766.1,0.0896911,0.0893743,1.68113,13,0.00545987,10,0.00015025,-2.7744,0.389557,0.151454,9.93947,0.0893743,
2,1,0,1,0,24766.4,0.097182,0.0968684,1.78249,13,0.00611442,10,0.000172667,-2.74897,0.21259,0.277529,19.3133,0.0968684,
2,1,0,1,0,24766.8,0.104673,0.104406,1.94199,13,0.00681677,10,0.000202755,-2.71175,0.201063,0.293441,22.1977,0.104406,
2,1,0,1,0,24767.2,0.112164,0.111828,2.10029,13,0.00758078,10,0.000234871,-2.67772,0.263163,0.224196,18.3472,0.111828,
2,1,0,1,0,24767.6,0.119655,0.119361,2.21528,13,0.00839758,10,0.000264418,-2.65457,0.50043,0.117899,10.1935,0.119361,
2,1,0,1,0,24767.9,0.127146,0.126833,2.29017,13,0.00924904,10,0.000290469,-2.64013,0.568458,0.10379,9.28267,0.126833,
2,1,0,1,0,24768.3,0.134637,0.134319,2.34139,13,0.0101255,10,0.000314493,-2.63053,5.57889,0.0105756,0.965589,0.134319,
2,1,0,1,0,24768.7,0.142128,0.141822,2.24485,13,0.0109993,10,0.000318369,-2.64881,-0.175535,-0.336116,-29.2948,0.141822,
2,1,0,1,0,24769.1,0.149619,0.149252,1.89676,13,0.011788,10,0.000283095,-2.72199,-0.0783938,-0.75261,-55.5755,0.149252,
2,1,0,1,0,24769.4,0.157108,0.156805,1.50401,13,0.0124276,10,0.000235836,-2.82275,-0.0794378,-0.742719,-43.6586,0.156805,
2,1,0,1,0,24769.8,0.164601,0.164297,1.26264,13,0.012947,10,0.000207448,-2.89872,-0.124169,-0.475159,-23.4369,0.164297,
2,1,0,1,0,24770.2,0.172092,0.171766,1.13375,13,0.0134004,10,0.000194739,-2.94548,-0.211856,-0.278491,-12.3944,0.171766,
2,1,0,1,0,24770.6,0.179582,0.179311,1.07015,13,0.0138189,10,0.000191889,-2.97056,-0.365771,-0.161303,-6.74236,0.179311,
2,1,0,1,0,24770.9,0.187073,0.186775,1.03131,13,0.0142182,10,0.000192623,-2.98661,-0.796778,-0.0740482,-2.97799,0.186775,
2,1,0,1,0,24771.3,0.194564,0.194228,1.00536,13,0.0146059,10,0.000195269,-2.99768,-0.802465,-0.0735234,-2.88588,0.194228,
2,1,0,1,0,24771.7,0.202057,0.201753,0.987381,13,0.0149855,10,0.000199207,-3.00552,-0.832526,-0.0708687,-2.7218,0.201753,
2,1,0,1,0,24772.1,0.209546,0.209241,0.972883,13,0.0153591,10,0.000203567,-3.01194,-0.790638,-0.0746233,-2.83793,0.209241,
2,1,0,1,0,24772.4,0.217037,0.21674,0.960171,13,0.0157276,10,0.000208107,-3.01765,-1.99172,-0.0296227,-1.11208,0.21674,
2,1,0,1,0,24772.8,0.224528,0.224245,0.953582,13,0.0160923,10,0.000213836,-3.02064,-1.27438,-0.0462971,-1.71856,0.224245,
2,1,0,1,0,24773.2,0.232019,0.231699,0.943199,13,0.0164534,10,0.000218538,-3.0254,-1.35127,-0.0436626,-1.60583,0.231699,
2,1,0,1,0,24773.6,0.23951,0.239227,0.936754,13,0.0168115,10,0.000224097,-3.02837,-3.29267,-0.0179186,-0.653981,0.239227,
2,1,0,1,0,24773.9,0.247001,0.246696,0.928529,13,0.0171666,10,0.000229064,-3.0322,-1.37808,-0.0428132,-1.54618,0.246696,
2,1,0,1,0,24774.3,0.254492,0.254147,0.919293,13,0.017519,10,0.000233635,-3.03655,-1.33585,-0.0441667,-1.58742,0.254147,
2,1,0,1,0,24774.7,0.261983,0.261687,0.911153,13,0.0178685,10,0.000238437,-3.04041,-1.90106,-0.0310353,-1.10448,0.261687,
2,1,0,1,0,24775.1,0.269474,0.269122,0.903355,13,0.0182153,10,0.000243113,-3.04414,-7.09938,-0.00831058,-0.293249,0.269122,
2,1,0,1,0,24775.4,0.276965,0.276653,0.897181,13,0.0185589,10,0.000248208,-3.04712,-1.84132,-0.0320421,-1.12152,0.276653,
2,1,0,1,0,24775.8,0.284456,0.28413,0.888491,13,0.0188996,10,0.000252447,-3.05135,-1.30433,-0.0452341,-1.56512,0.28413,
2,1,0,1,0,24776.2,0.291947,0.2916,0.878814,13,0.0192368,10,0.000256262,-3.0561,-1.17651,-0.0501484,-1.71795,0.2916,
2,1,0,1,0,24776.6,0.299436,0.299148,0.867813,13,0.0195708,10,0.000259605,-3.06157,-0.00285473,-20.6674,-380.106,0.299148,
2,0,0,1,0,24776.9,0.293745,0.293418,-0.192361,13,0.0195842,10,-5.64422e-05,-3.71588,-0.0198432,-2.97331,21.0338,0.293418,
2,0,0,1,0,24777.3,0.286254,0.285893,-0.293271,13,0.0194842,10,-8.38441e-05,-3.53273,-0.061651,-0.957,10.9508,0.285893,
2,0,0,1,0,24777.6,0.278763,0.278468,-0.359445,13,0.0193542,10,-0.000100094,-3.44437,-0.11397,-0.517679,7.25915,0.278468,
2,0,0,1,0,24778,0.271272,0.270956,-0.410162,13,0.0192035,10,-0.000111136,-3.38704,-0.132617,-0.444889,7.0768,0.270956,
2,0,0,1,0,24778.4,0.263781,0.263465,-0.446212,13,0.0190359,10,-0.000117561,-3.35046,-0.220786,-0.267227,4.66065,0.263465,
2,0,0,1,0,24778.8,0.25629,0.255973,-0.485908,13,0.0188542,10,-0.000124379,-3.31345,-0.253646,-0.232608,4.38335,0.255973,
2,0,0,1,0,24779.1,0.248799,0.248482,-0.516015,13,0.0186599,10,-0.000128221,-3.28734,-0.305711,-0.192993,3.8904,0.2484822,
2,0,0,1,0,24779.5,0.241308,0.240998,-0.544896,13,0.0184545,10,-0.000131319,-3.26369,-0.434274,-0.135859,2.89641,0.240998,
2,0,0,1,0,24779.9,0.233817,0.233501,-0.571048,13,0.0182385,10,-0.00013334,-3.24333,-0.360505,-0.163659,3.6516,0.233501,
2,0,0,1,0,24780.3,0.226326,0.225991,-0.597993,13,0.0180123,10,-0.000135141,-3.2233,-0.430975,-0.136899,3.20018,0.225991,
2,0,0,1,0,24780.6,0.218835,0.218538,-0.625883,13,0.0177762,10,-0.000136779,-3.20351,-0.438827,-0.134449,3.27881,0.218538,
2,0,0,1,0,24781,0.211344,0.211041,-0.652473,13,0.0175307,10,-0.000137699,-3.18544,-0.653142,-0.0903326,2.29416,0.211041,
2,0,0,1,0,24781.4,0.203855,0.203513,-0.675519,13,0.0172751,10,-0.000137477,-3.17036,-0.661293,-0.0892192,2.35981,0.203513,
2,0,0,1,0,24781.8,0.196362,0.196011,-0.704523,13,0.0170094,10,-0.000138095,-3.1521,-0.441923,-0.133507,3.66802,0.196011,
2,0,0,1,0,24782.1,0.188871,0.188523,-0.737238,13,0.0167326,10,-0.000138986,-3.13239,-0.280321,-0.210473,6.04892,0.188523,
2,0,0,1,0,24782.5,0.18138,0.181053,-0.772628,13,0.0164432,10,-0.000139886,-3.11203,-0.343498,-0.171762,5.18422,0.181053,
2,0,0,1,0,24782.9,0.173891,0.173524,-0.816111,13,0.0161392,10,-0.000141615,-3.08825,-0.279273,-0.211263,6.72725,0.173524,
2,0,0,1,0,24783.3,0.166398,0.166028,-0.875234,13,0.015816,10,-0.000145313,-3.05788,-0.273548,-0.215685,7.3815,0.166028,
2,0,0,1,0,24783.6,0.158906,0.158584,-0.952156,13,0.0154674,10,-0.000150996,-3.02129,-0.160065,-0.3686,13.7722,0.158584,
2,0,0,1,0,24784,0.151417,0.151106,-1.0894,13,0.0150794,10,-0.000164615,-2.96281,-0.110285,-0.534977,22.8205,0.151106,
2,0,0,1,0,24784.4,0.143926,0.143587,-1.31367,13,0.0146256,10,-0.000188626,-2.88152,-0.0758269,-0.778088,39.9336,0.143587,
2,0,0,1,0,24784.8,0.136435,0.136123,-1.64717,13,0.0140662,10,-0.000224217,-2.78326,-0.0786308,-0.750342,48.1377,0.136123,
2,0,0,1,0,24785.1,0.128942,0.128605,-1.99423,13,0.0133758,10,-0.000256469,-2.70022,-0.108769,-0.542433,42.0459,0.128605,
2,0,0,1,0,24785.5,0.121453,0.121166,-2.24853,13,0.0125711,10,-0.000272444,-2.6481,-0.214747,-0.274742,24.0127,0.121166,
2,0,0,1,0,24785.9,0.113962,0.113638,-2.3619,13,0.011696,10,-0.000268401,-2.62674,-1.00214,-0.0588742,5.42532,0.1136378,
2,0,0,1,0,24786.3,0.106471,0.10617,-2.35779,13,0.0108009,10,-0.000250328,-2.62749,0.879587,0.0670769,-6.18288,0.1061704,
2,0,0,1,0,24786.6,0.0989799,0.0986669,-2.28111,13,0.00992305,10,-0.00022507,-2.64185,0.432044,0.13656,-12.1472,0.0986669,
2,0,0,1,0,24787,0.0914889,0.0911699,-2.18284,13,0.00908075,10,-0.000199009,-2.66098,0.394197,0.149671,-12.7301,0.0911699,
2,0,0,1,0,24787.4,0.083998,0.0836759,-2.09975,13,0.00827324,10,-0.000175698,-2.67783,0.45596,0.129397,-10.5853,0.0836759,
2,0,0,1,0,24787.8,0.076507,0.0762139,-2.03379,13,0.00749302,10,-0.000155003,-2.69169,0.56977,0.103551,-8.21404,0.0762139,
2,0,0,1,0,24788.1,0.0690161,0.0686915,-1.97313,13,0.00673624,10,-0.000135537,-2.70484,0.548416,0.107582,-8.29083,0.0686915,
2,0,0,1,0,24788.5,0.0615251,0.0612049,-1.91374,13,0.00600062,10,-0.000117131,-2.71812,0.632692,0.0932523,-6.97572,0.0612049,
2,0,0,1,0,24788.9,0.0540342,0.0537097,-1.85825,13,0.00528707,10,-9.98058e-05,-2.7309,0.596662,0.0988834,-7.16784,0.0537097,
2,0,0,1,0,24789.3,0.0465432,0.046228,-1.79503,13,0.00459547,10,-8.29804e-05,-2.74593,0.503178,0.117255,-8.21504,0.046228,
2,0,0,1,0,24789.6,0.0390523,0.038731,-1.72981,13,0.00392878,10,-6.69974e-05,-2.762,0.380823,0.154928,-10.433,0.038731,
2,0,0,1,0,24790,0.0315626,0.0312524,-1.65725,13,0.00328813,10,-5.17931e-05,-2.78061,0.395655,0.14912,-9.63032,0.0312524,
2,0,0,1,0,24790.4,0.0240704,0.0237461,-1.58398,13,0.00267388,10,-3.76134e-05,-2.80025,0.43205,0.136558,-8.4739,0.0237461,
2,0,0,1,0,24790.8,0.0165785,0.0162928,-1.53236,13,0.00208312,10,-2.49665e-05,-2.81464,0.598223,0.0986255,-5.90286,0.0162928,
2,0,0,1,0,24791.1,0.00908845,0.00877249,-1.49157,13,0.00151072,10,-1.30848e-05,-2.82636,0.954711,0.0617988,-3.59826,0.008772485,
2,0,0,1,0,24791.5,0.0015984,0.0012026,-1.49123,13,0.000948678,10,-1.79336e-06,-2.82645, , , ,0.0012026,
2,0,0,1,0,24791.6,0.000199195,-0.000199717,-1.47252,13,0.000843633,10,2.94087e-07,-2.83194, , , ,-0.000199717,

File: 20221101_1-115_003_TrumpetPlot_ParaChange_from10_every3_05_CV_C01_13.csv
mode,ox/red,error,control changes,counter inc.,time/s,control/V,Ewe/V,<I>/mA,cycle number,(Q-Qo)/C,I Range,P/W,log(|I|),Tafel slope mV/dec,alpha_eff,dI/d(E-IR),E-IR/V,
2,0,0,1,0,26731.7,2.44065e-05,-0.000325324,-0.73797,14,0.0000000E+000,10,2.40079e-07,-3.13196, , , ,-0.000325324,
2,1,0,1,0,26732.1,0.00729063,0.00696502,0.718481,14,0.000161774,10,5.00424e-06,-3.14358,0.055653,1.06014,29.3248,0.00696502,
2,1,0,1,0,26732.5,0.0147802,0.0144786,0.86639,14,0.000468489,10,1.25441e-05,-3.06229,0.132562,0.445073,15.0271,0.0144786,
2,1,0,1,0,26732.8,0.0222725,0.0219868,0.969487,14,0.000819244,10,2.13159e-05,-3.01346,0.17137,0.344284,13.0308,0.0219868,
2,1,0,1,0,26733.2,0.0297644,0.0294494,1.0668,14,0.00120697,10,3.14166e-05,-2.97192,0.192379,0.306686,12.732,0.0294494,
2,1,0,1,0,26733.6,0.0372544,0.0369614,1.16338,14,0.0016311,10,4.30002e-05,-2.93428,0.195639,0.301576,13.6964,0.0369614,
2,1,0,1,0,26733.9,0.0447449,0.0444314,1.26021,14,0.0020919,10,5.5993e-05,-2.89956,0.227078,0.259823,12.7727,0.04443137,
2,1,0,1,0,26734.3,0.0522363,0.0519104,1.35135,14,0.0025877,10,7.01491e-05,-2.86923,0.239505,0.246342,12.9911,0.0519104,
2,1,0,1,0,26734.7,0.0597291,0.05941,1.43397,14,0.00311621,10,8.51919e-05,-2.84346,0.306758,0.192334,10.7517,0.05941,
2,1,0,1,0,26735.1,0.0672182,0.066894,1.50857,14,0.00367384,10,0.000100915,-2.82143,0.353905,0.166712,9.78648,0.066894,
2,1,0,1,0,26735.4,0.0747092,0.0743599,1.57157,14,0.00425693,10,0.000116862,-2.80367,0.525259,0.112326,6.87829,0.0743599,
2,1,0,1,0,26735.8,0.0822001,0.0818934,1.61904,14,0.00486164,10,0.000132589,-2.79074,0.573293,0.102914,6.52716,0.0818934,
2,1,0,1,0,26736.2,0.0896911,0.0893664,1.68494,14,0.00548711,10,0.000150577,-2.77342,0.363076,0.162501,10.6949,0.0893664,
2,1,0,1,0,26736.6,0.097182,0.096875,1.78527,14,0.00614314,10,0.000172948,-2.7483,0.223963,0.263436,18.3841,0.096875,
2,1,0,1,0,26736.9,0.104673,0.10434,1.94615,14,0.00684695,10,0.000203062,-2.71082,0.184873,0.319137,24.2183,0.10434,
2,1,0,1,0,26737.3,0.112164,0.111812,2.10915,14,0.00761289,10,0.000235829,-2.67589,0.254923,0.231442,18.988,0.111812,
2,1,0,1,0,26737.7,0.119655,0.119315,2.2241,14,0.00843256,10,0.000265368,-2.65285,0.481409,0.122557,10.6306,0.119315,
2,1,0,1,0,26738.1,0.127146,0.126824,2.29364,14,0.00928698,10,0.000290888,-2.63947,0.599214,0.0984624,8.83347,0.126824,
2,1,0,1,0,26738.4,0.134637,0.134263,2.34804,14,0.0101657,10,0.000315254,-2.62929,17.6967,0.00333396,0.305195,0.134263,
2,1,0,1,0,26738.8,0.142128,0.141844,2.25,14,0.0110411,10,0.00031915,-2.64782,-0.177458,-0.332472,-29.0365,0.141844,
2,1,0,1,0,26739.2,0.149619,0.149302,1.89517,14,0.0118302,10,0.000282953,-2.72235,-0.0760648,-0.775655,-57.3085,0.149302,
2,1,0,1,0,26739.6,0.157108,0.156794,1.49499,14,0.012468,10,0.000234405,-2.82536,-0.0768818,-0.767412,-44.8718,0.156794,
2,1,0,1,0,26739.9,0.164601,0.164278,1.25571,14,0.0129841,10,0.000206286,-2.90111,-0.122938,-0.479917,-23.5457,0.164278,
2,1,0,1,0,26740.3,0.172092,0.171802,1.12764,14,0.0134347,10,0.000193731,-2.94783,-0.217934,-0.270724,-11.9578,0.171802,
2,1,0,1,0,26740.7,0.179582,0.179257,1.06554,14,0.0138511,10,0.000191005,-2.97243,-0.431908,-0.136603,-5.68492,0.179257,
2,1,0,1,0,26741.1,0.187073,0.186768,1.02894,14,0.0142491,10,0.000192174,-2.98761,-0.857945,-0.0687689,-2.75636,0.186768,
2,1,0,1,0,26741.4,0.194564,0.194244,1.00638,14,0.0146358,10,0.000195483,-2.99724,-0.730244,-0.0807949,-3.16411,0.194244,
2,1,0,1,0,26741.8,0.202057,0.201715,0.9866,14,0.0150147,10,0.000199012,-3.00586,-0.655787,-0.0899682,-3.45201,0.201715,
2,1,0,1,0,26742.2,0.209546,0.209226,0.972618,14,0.0153879,10,0.000203497,-3.01206,-0.636752,-0.0926577,-3.51862,0.209226,
2,1,0,1,0,26742.6,0.217037,0.216694,0.95837,14,0.015756,10,0.000207673,-3.01847,-2.53545,-0.0232701,-0.871827,0.216694,
2,1,0,1,0,26742.9,0.224528,0.224175,0.950322,14,0.0161203,10,0.000213039,-3.02213,-2.00281,-0.0294586,-1.09237,0.2241752,
2,1,0,1,0,26743.3,0.232019,0.231742,0.942909,14,0.016481,10,0.000218512,-3.02553,-1.91983,-0.0307319,-1.12907,0.231742,
2,1,0,1,0,26743.7,0.23951,0.23923,0.933789,14,0.0168387,10,0.00022339,-3.02975,-2.66819,-0.0221123,-0.804803,0.23923,
2,1,0,1,0,26744.1,0.247001,0.246662,0.929543,14,0.0171935,10,0.000229283,-3.03173,-1.42887,-0.0412913,-1.49227,0.246662,
2,1,0,1,0,26744.4,0.254492,0.254178,0.918295,14,0.0175455,10,0.000233411,-3.03702,-1.36413,-0.0432511,-1.55108,0.254178,
2,1,0,1,0,26744.8,0.261983,0.261677,0.911445,14,0.0178945,10,0.000238504,-3.04027,-1.56113,-0.0377932,-1.34338,0.261677,
2,1,0,1,0,26745.2,0.269474,0.269166,0.90318,14,0.0182408,10,0.000243106,-3.04423,-3.39939,-0.0173561,-0.612838,0.2691665,
2,1,0,1,0,26745.6,0.276965,0.276655,0.897143,14,0.0185842,10,0.000248199,-3.04714,-2.23635,-0.0263823,-0.923509,0.276655,
2,1,0,1,0,26745.9,0.284456,0.284148,0.888484,14,0.0189246,10,0.000252461,-3.05135,-1.66517,-0.0354319,-1.22532,0.284148,
2,1,0,1,0,26746.3,0.291947,0.291695,0.875153,14,0.0192617,10,0.000255277,-3.05792,-1.10329,-0.0534766,-1.82975,0.291695,
2,1,0,1,0,26746.7,0.299436,0.299128,0.86783,14,0.0195954,10,0.000259592,-3.06157,-0.00295577,-19.9609,-366.162,0.299128,
2,0,0,1,0,26747,0.293745,0.293429,-0.201569,14,0.0196066,10,-5.91463e-05,-3.69558,-0.020857,-2.82879,21.0645,0.293429,
2,0,0,1,0,26747.4,0.286254,0.285931,-0.300443,14,0.0195035,10,-8.59059e-05,-3.52224,-0.0721487,-0.817756,9.6439,0.285931,
2,0,0,1,0,26747.8,0.278763,0.278439,-0.366826,14,0.0193708,10,-0.000102138,-3.43554,-0.114643,-0.514642,7.38367,0.278439,
2,0,0,1,0,26748.1,0.271272,0.270965,-0.416112,14,0.0192176,10,-0.000112752,-3.38079,-0.160689,-0.36717,5.92939,0.270965,
2,0,0,1,0,26748.5,0.263781,0.263451,-0.454777,14,0.0190478,10,-0.000119811,-3.3422,-0.193922,-0.304246,5.38584,0.2634511,
2,0,0,1,0,26748.9,0.25629,0.255992,-0.490536,14,0.0188639,10,-0.000125573,-3.30933,-0.269304,-0.219083,4.16982,0.255992,
2,0,0,1,0,26749.3,0.248799,0.248474,-0.520341,14,0.0186676,10,-0.000129291,-3.28371,-0.416694,-0.141591,2.88569,0.248474,
2,0,0,1,0,26749.6,0.241308,0.240994,-0.548874,14,0.0184603,10,-0.000132275,-3.26053,-0.346106,-0.170468,3.66541,0.240994,
2,0,0,1,0,26750,0.233817,0.23351,-0.575338,14,0.0182423,10,-0.000134347,-3.24008,-0.327924,-0.17992,4.05074,0.23351,
2,0,0,1,0,26750.4,0.226326,0.225988,-0.605036,14,0.0180141,10,-0.000136731,-3.21822,-0.406846,-0.145018,3.42544,0.225988,
2,0,0,1,0,26750.8,0.218835,0.218543,-0.631683,14,0.0177762,10,-0.00013805,-3.1995,-0.443779,-0.132949,3.27257,0.218543,
2,0,0,1,0,26751.1,0.211344,0.211017,-0.656707,14,0.0175289,10,-0.000138576,-3.18263,-0.55404,-0.106491,2.72043,0.211017,
2,0,0,1,0,26751.5,0.203855,0.203503,-0.67984,14,0.0172717,10,-0.000138349,-3.16759,-0.361647,-0.163142,4.34931,0.203503,
2,0,0,1,0,26751.9,0.196362,0.196041,-0.709928,14,0.0170044,10,-0.000139175,-3.14879,-0.437212,-0.134946,3.73365,0.196041,
2,0,0,1,0,26752.3,0.188871,0.188527,-0.743473,14,0.0167258,10,-0.000140165,-3.12873,-0.306498,-0.192497,5.58169,0.188527,
2,0,0,1,0,26752.6,0.18138,0.181037,-0.777586,14,0.0164349,10,-0.000140771,-3.10925,-0.284605,-0.207305,6.2936,0.181037,
2,0,0,1,0,26753,0.173891,0.173524,-0.82081,14,0.0161293,10,-0.00014243,-3.08576,-0.269024,-0.219311,7.01933,0.173524,
2,0,0,1,0,26753.4,0.166398,0.166068,-0.878147,14,0.0158046,10,-0.000145832,-3.05643,-0.26138,-0.225725,7.76471,0.166068,
2,0,0,1,0,26753.8,0.158906,0.158568,-0.961538,14,0.0154546,10,-0.000152469,-3.01703,-0.161216,-0.365969,13.7663,0.158568,
2,0,0,1,0,26754.1,0.151416,0.151065,-1.09158,14,0.0150652,10,-0.0001649,-2.96194,-0.113813,-0.518395,22.1586,0.151065,
2,0,0,1,0,26754.5,0.143926,0.1436,-1.31447,14,0.0146103,10,-0.000188758,-2.88125,-0.0767649,-0.768581,39.59,0.1436,
2,0,0,1,0,26754.9,0.136435,0.136101,-1.64807,14,0.0140504,10,-0.000224305,-2.78302,-0.0792031,-0.744921,47.8442,0.136101,
2,0,0,1,0,26755.3,0.128942,0.128593,-1.99576,14,0.0133599,10,-0.000256641,-2.69989,-0.113014,-0.52206,40.4972,0.1285928,
2,0,0,1,0,26755.6,0.121453,0.121131,-2.24692,14,0.0125549,10,-0.000272172,-2.64841,-0.214295,-0.275321,24.0855,0.121131,
2,0,0,1,0,26756,0.113962,0.113672,-2.36865,14,0.0116785,10,-0.000269248,-2.6255,-0.770494,-0.0765743,7.07091,0.113672,
2,0,0,1,0,26756.4,0.106471,0.106156,-2.36422,14,0.0107812,10,-0.000250975,-2.62631,0.863492,0.0683272,-6.31026,0.106156,
2,0,0,1,0,26756.8,0.0989799,0.0986774,-2.28453,14,0.00990186,10,-0.000225431,-2.6412,0.397541,0.148412,-13.2126,0.0986774,
2,0,0,1,0,26757.1,0.0914889,0.0911522,-2.18605,14,0.00905888,10,-0.000199263,-2.66034,0.44505,0.132569,-11.2906,0.0911522,
2,0,0,1,0,26757.5,0.083998,0.0836907,-2.09946,14,0.00825101,10,-0.000175705,-2.67789,0.445482,0.132441,-10.8451,0.0836907,
2,0,0,1,0,26757.9,0.076507,0.0761746,-2.03428,14,0.00747023,10,-0.00015496,-2.69159,0.53554,0.110169,-8.75295,0.0761746,
2,0,0,1,0,26758.3,0.0690161,0.0687339,-1.97277,14,0.00671284,10,-0.000135596,-2.70492,0.568496,0.103783,-8.00465,0.0687339,
2,0,0,1,0,26758.6,0.0615251,0.0612702,-1.91549,14,0.00597666,10,-0.000117362,-2.71772,0.550951,0.107087,-8.02079,0.0612702,
2,0,0,1,0,26759,0.0540342,0.0537232,-1.85986,14,0.00526274,10,-9.99177e-05,-2.73052,0.60765,0.0970954,-7.04172,0.0537232,
2,0,0,1,0,26759.4,0.0465432,0.0462103,-1.79403,14,0.00457146,10,-8.29027e-05,-2.74617,0.507819,0.116183,-8.14559,0.0462103,
2,0,0,1,0,26759.8,0.0390523,0.0387413,-1.7285,14,0.00390523,10,-6.69644e-05,-2.76233,0.38301,0.154043,-10.3621,0.0387413,
2,0,0,1,0,26760.1,0.0315626,0.0311774,-1.65456,14,0.0032659,10,-5.15848e-05,-2.78132,0.379783,0.155352,-10.0124,0.0311774,
2,0,0,1,0,26760.5,0.0240704,0.0237481,-1.58082,14,0.00265316,10,-3.75415e-05,-2.80112,0.371083,0.158994,-9.84484,0.02374813,
2,0,0,1,0,26760.9,0.0165785,0.0162708,-1.5262,14,0.00206386,10,-2.48325e-05,-2.81639,0.596166,0.0989656,-5.90931,0.0162708,
2,0,0,1,0,26761.3,0.00908846,0.00873566,-1.48798,14,0.00149261,10,-1.29985e-05,-2.8274,0.980225,0.0601903,-3.49975,0.00873566,
2,0,0,1,0,26761.6,0.0015984,0.00122654,-1.48888,14,0.000931114,10,-1.82618e-06,-2.82714, , , ,0.00122654,
2,0,0,1,0,26761.7,0.000199195,-0.000191558,-1.47874,14,0.00082612,10,2.83266e-07,-2.83011, , , ,-0.000191558,