Folder: Figs_alphaMnO2_OER_Tafel_sleope/Figure_codes/Fig_3-5/rawdata_trumpetplot_data/after 10th (part 40)

File: 20221101_1-115_003_TrumpetPlot_ParaChange_from10_every3_04_CV_C01_8.csv
mode,ox/red,error,control changes,counter inc.,time/s,control/V,Ewe/V,<I>/mA,cycle number,(Q-Qo)/C,I Range,P/W,log(|I|),Tafel slope mV/dec,alpha_eff,dI/d(E-IR),E-IR/V,
2,0,0,1,0,16821.1,2.44065e-05,-0.00042076,-0.372888,9,0.0000000E+000,10,1.56896e-07,-3.42842, , , ,-0.00042076,
2,1,0,1,0,16821.8,0.00729063,0.00697982,0.38414,9,0.000218275,10,2.68123e-06,-3.41551,0.0709593,0.831462,12.3588,0.00697982,
2,1,0,1,0,16822.5,0.0147814,0.0145001,0.458009,9,0.000550094,10,6.64118e-06,-3.33913,0.120328,0.490328,8.72229,0.0145001,
2,1,0,1,0,16823.3,0.0222725,0.021974,0.513741,9,0.000928494,10,1.12889e-05,-3.28926,0.156534,0.376914,7.55002,0.021974,
2,1,0,1,0,16824,0.0297635,0.0294569,0.566414,9,0.00134748,10,1.66848e-05,-3.24687,0.195555,0.301705,6.67793,0.0294569,
2,1,0,1,0,16824.8,0.0372544,0.036931,0.620046,9,0.00180657,10,2.28989e-05,-3.20758,0.22659,0.260382,6.3037,0.036931,
2,1,0,1,0,16825.5,0.0447458,0.0444094,0.672122,9,0.00230538,10,2.98485e-05,-3.17255,0.229459,0.257126,6.72618,0.0444094,
2,1,0,1,0,16826.3,0.0522363,0.0519135,0.720601,9,0.00284179,10,3.74089e-05,-3.14231,0.218411,0.270133,7.59075,0.0519135,
2,1,0,1,0,16827,0.0597282,0.0593436,0.76524,9,0.00341352,10,4.54121e-05,-3.1162,0.293436,0.201066,5.99822,0.0593436,
2,1,0,1,0,16827.8,0.0672182,0.0668843,0.807908,9,0.00401685,10,5.40364e-05,-3.09264,0.38821,0.151979,4.77238,0.0668843,
2,1,0,1,0,16828.5,0.0747092,0.0744079,0.838539,9,0.00464744,10,6.23939e-05,-3.07648,0.474922,0.124231,4.06588,0.07440789,
2,1,0,1,0,16829.3,0.0822001,0.0818859,0.866794,9,0.00530229,10,7.09782e-05,-3.06208,0.438158,0.134655,4.57097,0.0818859,
2,1,0,1,0,16830,0.0896911,0.0893448,0.912842,9,0.00598306,10,8.15576e-05,-3.0396,0.311399,0.189467,6.75609,0.0893448,
2,1,0,1,0,16830.8,0.097182,0.0968673,0.973677,9,0.00670343,10,9.43175e-05,-3.01159,0.190476,0.30975,11.7949,0.0968673,
2,1,0,1,0,16831.5,0.104673,0.104386,1.07081,9,0.00748244,10,0.000111777,-2.97029,0.190123,0.310326,12.9184,0.104386,
2,1,0,1,0,16832.3,0.112164,0.111797,1.14984,9,0.00832945,10,0.000128549,-2.93936,0.299389,0.197068,8.81946,0.111797,
2,1,0,1,0,16833,0.119655,0.119354,1.21099,9,0.00922863,10,0.000144537,-2.91686,0.47437,0.124375,5.86951,0.119354,
2,1,0,1,0,16833.8,0.127146,0.126831,1.25473,9,0.0101674,10,0.000159138,-2.90145,0.430085,0.137182,6.73701,0.1268312,
2,1,0,1,0,16834.5,0.134637,0.134325,1.28312,9,0.0111389,10,0.000172355,-2.89173,-0.890164,-0.0662799,-3.31413,0.134325,
2,1,0,1,0,16835.3,0.142127,0.14178,1.1831,9,0.0120874,10,0.00016774,-2.92698,-0.118275,-0.498838,-22.8836,0.14178,
2,1,0,1,0,16836,0.149619,0.149265,0.956525,9,0.0129063,10,0.000142776,-3.0193,-0.0707023,-0.834484,-31.1602,0.149265,
2,1,0,1,0,16836.8,0.157109,0.156784,0.762509,9,0.013559,10,0.000119549,-3.11776,-0.0885161,-0.666545,-19.921,0.156784,
2,1,0,1,0,16837.5,0.164601,0.164278,0.662116,9,0.0141024,10,0.000108771,-3.17907,-0.153783,-0.383658,-9.91059,0.164278,
2,1,0,1,0,16838.3,0.172091,0.171781,0.605491,9,0.0145897,10,0.000104012,-3.21789,-0.272561,-0.216465,-5.13916,0.171781,
2,1,0,1,0,16839,0.179582,0.179289,0.574767,9,0.0150463,10,0.00010305,-3.24051,-0.508156,-0.116106,-2.61867,0.1792895,
2,1,0,1,0,16839.8,0.187074,0.186782,0.559112,9,0.0154849,10,0.000104432,-3.2525,-0.589308,-0.100117,-2.17931,0.186782,
2,1,0,1,0,16840.5,0.194564,0.194187,0.545672,9,0.0159117,10,0.000105962,-3.26307,-0.810176,-0.0728237,-1.54711,0.194187,
2,1,0,1,0,16841.3,0.202056,0.201739,0.536041,9,0.0163296,10,0.00010814,-3.2708,-0.949721,-0.0621235,-1.2931,0.201739,
2,1,0,1,0,16842,0.209546,0.209258,0.527412,9,0.0167413,10,0.000110365,-3.27785,-0.859281,-0.068662,-1.4131,0.209258,
2,1,0,1,0,16842.8,0.217038,0.216695,0.519268,9,0.0171471,10,0.000112523,-3.28461,-1.8313,-0.0322176,-0.6539,0.216695,
2,1,0,1,0,16843.5,0.224528,0.224225,0.51501,9,0.0175484,10,0.000115478,-3.28818,-3.20974,-0.0183816,-0.368965,0.224225,
2,1,0,1,0,16844.3,0.232019,0.231701,0.510571,9,0.0179452,10,0.0001183,-3.29194,-2.9218,-0.020193,-0.400049,0.231701,
2,1,0,1,0,16845,0.23951,0.239225,0.503514,9,0.0183386,10,0.000120453,-3.29799,-2.25889,-0.0261191,-0.514293,0.239225,
2,1,0,1,0,16845.8,0.247001,0.246686,0.501359,9,0.0187287,10,0.000123678,-3.29985,-0.950369,-0.0620812,-1.21159,0.246686,
2,1,0,1,0,16846.5,0.254492,0.254185,0.4941,9,0.0191155,10,0.000125593,-3.30618,-1.77845,-0.033175,-0.642955,0.254185,
2,1,0,1,0,16847.3,0.261983,0.261676,0.490776,9,0.0194991,10,0.000128424,-3.30912,-2.24783,-0.0262476,-0.504337,0.261676,
2,1,0,1,0,16848,0.269474,0.269196,0.486294,9,0.0198797,10,0.000130908,-3.3131,50.9091,0.00115893,0.0220143,0.269196,
2,1,0,1,0,16848.8,0.276965,0.276677,0.48231,9,0.0202571,10,0.000133444,-3.31667,-1.83863,-0.0320891,-0.606829,0.276677,
2,1,0,1,0,16849.5,0.284456,0.284121,0.479295,9,0.0206313,10,0.000136178,-3.3194,-1.688,-0.0349526,-0.651779,0.2841213,
2,1,0,1,0,16850.3,0.291947,0.291657,0.472949,9,0.0210019,10,0.000137939,-3.32519,-2.20278,-0.0267844,-0.495717,0.291657,
2,1,0,1,0,16851,0.299437,0.299113,0.46899,9,0.0213694,10,0.000140281,-3.32884,-0.00169811,-34.7445,-242.32,0.2991133,
2,0,0,1,0,16851.7,0.293745,0.293415,-0.0869208,9,0.0213715,10,-2.55038e-05,-4.06088,-0.0194745,-3.0296,9.73545,0.293415,
2,0,0,1,0,16852.4,0.286253,0.285957,-0.138733,9,0.021271,10,-3.96717e-05,-3.85782,-0.05785,-1.01988,5.56033,0.285957,
2,0,0,1,0,16853.2,0.278763,0.278482,-0.172305,9,0.0211392,10,-4.79839e-05,-3.7637,-0.103293,-0.57119,3.84415,0.278482,
2,0,0,1,0,16853.9,0.271272,0.270947,-0.201062,9,0.020985,10,-5.44771e-05,-3.69667,-0.158142,-0.373082,2.91249,0.270947,
2,0,0,1,0,16854.7,0.263781,0.263474,-0.221465,9,0.0208122,10,-5.83503e-05,-3.65469,-0.184893,-0.319103,2.77552,0.263474,
2,0,0,1,0,16855.4,0.25629,0.25598,-0.24324,9,0.0206237,10,-6.22647e-05,-3.61396,-0.256121,-0.23036,2.17035,0.25598,
2,0,0,1,0,16856.2,0.248799,0.248435,-0.259179,9,0.0204216,10,-6.43894e-05,-3.5864,-0.343388,-0.171817,1.74067,0.248435,
2,0,0,1,0,16856.9,0.241308,0.241024,-0.276706,9,0.0202068,10,-6.66928e-05,-3.55798,-0.394573,-0.149529,1.61468,0.241024,
2,0,0,1,0,16857.7,0.233817,0.233518,-0.290374,9,0.0199802,10,-6.78076e-05,-3.53704,-0.270982,-0.217727,2.47441,0.233518,
2,0,0,1,0,16858.4,0.226326,0.226004,-0.306066,9,0.0197422,10,-6.91721e-05,-3.51418,-0.362927,-0.162567,1.93813,0.226004,
2,0,0,1,0,16859.2,0.218835,0.218512,-0.322144,9,0.0194927,10,-7.03922e-05,-3.49195,-0.336876,-0.175139,2.19685,0.218512,
2,0,0,1,0,16859.9,0.211344,0.211033,-0.337364,9,0.0192322,10,-7.11949e-05,-3.4719,-0.453021,-0.130237,1.70844,0.211033,
2,0,0,1,0,16860.7,0.203854,0.203557,-0.352071,9,0.0189597,10,-7.16665e-05,-3.45337,-0.499928,-0.118017,1.6272,0.203557,
2,0,0,1,0,16861.4,0.196362,0.196061,-0.365612,9,0.0186754,10,-7.16822e-05,-3.43698,-0.321875,-0.183301,2.63911,0.1960609,
2,0,0,1,0,16862.2,0.188872,0.188553,-0.388697,9,0.0183773,10,-7.32899e-05,-3.41039,-0.240103,-0.245728,3.72884,0.188553,
2,0,0,1,0,16862.9,0.18138,0.181055,-0.411506,9,0.0180639,10,-7.45053e-05,-3.38562,-0.263691,-0.223747,3.5889,0.181055,
2,0,0,1,0,16863.7,0.17389,0.173602,-0.440273,9,0.0177317,10,-7.64322e-05,-3.35628,-0.211812,-0.278549,4.77585,0.173602,
2,0,0,1,0,16864.4,0.166398,0.16606,-0.475095,9,0.0173749,10,-7.88941e-05,-3.32322,-0.210965,-0.279667,5.22143,0.16606,
2,0,0,1,0,16865.2,0.158907,0.158571,-0.53074,9,0.0169836,10,-8.416e-05,-3.27512,-0.132226,-0.446207,9.30623,0.158571,
2,0,0,1,0,16865.9,0.151417,0.151101,-0.626034,9,0.016538,10,-9.45943e-05,-3.2034,-0.0928737,-0.635271,15.5294,0.151101,
2,0,0,1,0,16866.7,0.143925,0.143645,-0.776395,9,0.0160028,10,-0.000111526,-3.10992,-0.0699682,-0.84324,25.5748,0.143645,
2,0,0,1,0,16867.4,0.136435,0.136069,-0.988773,9,0.0153289,10,-0.000134542,-3.0049,-0.0785817,-0.750811,28.8548,0.136069,
2,0,0,1,0,16868.2,0.128943,0.128584,-1.1861,9,0.0144969,10,-0.000152514,-2.92588,-0.136243,-0.433051,19.9133,0.128584,
2,0,0,1,0,16868.9,0.121453,0.121109,-1.29056,9,0.0135488,10,-0.000156298,-2.88922,-0.419643,-0.140596,7.06019,0.121109,
2,0,0,1,0,16869.7,0.113962,0.113666,-1.3042,9,0.0125564,10,-0.000148244,-2.88465,0.85469,0.0690309,-3.51492,0.113666,
2,0,0,1,0,16870.4,0.106471,0.106164,-1.26715,9,0.0115752,10,-0.000134526,-2.89717,0.48213,0.122374,-6.06754,0.106164,
2,0,0,1,0,16871.2,0.0989799,0.0987007,-1.21467,9,0.0106301,10,-0.000119889,-2.91554,0.390471,0.1511,-7.14481,0.0987007,
2,0,0,1,0,16871.9,0.0914889,0.0911856,-1.16062,9,0.00972768,10,-0.000105832,-2.93531,0.436817,0.135068,-6.09929,0.0911856,
2,0,0,1,0,16872.7,0.083998,0.0837002,-1.11109,9,0.00886404,10,-9.29984e-05,-2.95425,0.354296,0.166527,-7.21051,0.08370024,
2,0,0,1,0,16873.4,0.076507,0.0761268,-1.07008,9,0.00803346,10,-8.14615e-05,-2.97059,0.486663,0.121234,-5.05862,0.0761268,
2,0,0,1,0,16874.2,0.0690161,0.0687071,-1.03415,9,0.00723138,10,-7.10538e-05,-2.98541,0.462365,0.127605,-5.15621,0.0687071,
2,0,0,1,0,16874.9,0.0615251,0.0612005,-0.998249,9,0.00645475,10,-6.10933e-05,-3.00076,0.489006,0.120653,-4.71256,0.0612005,
2,0,0,1,0,16875.7,0.0540342,0.0537236,-0.968694,9,0.00570362,10,-5.20417e-05,-3.01381,0.462404,0.127594,-4.80906,0.0537236,
2,0,0,1,0,16876.4,0.0465441,0.0462208,-0.93083,9,0.00497853,10,-4.30237e-05,-3.03113,0.469511,0.125663,-4.56433,0.0462208,
2,0,0,1,0,16877.2,0.0390523,0.0387464,-0.896457,9,0.00428072,10,-3.47345e-05,-3.04747,0.348379,0.169356,-5.90642,0.0387464,
2,0,0,1,0,16877.9,0.0315618,0.0312477,-0.857237,9,0.0036101,10,-2.67867e-05,-3.0669,0.415624,0.141955,-4.76414,0.0312477,
2,0,0,1,0,16878.7,0.0240704,0.0237788,-0.822978,9,0.00296569,10,-1.95694e-05,-3.08461,0.411358,0.143428,-4.62294,0.0237788,
2,0,0,1,0,16879.4,0.0165796,0.0162791,-0.798334,9,0.00234374,10,-1.29962e-05,-3.09782,0.761533,0.0774753,-2.4169,0.0162791,
2,0,0,1,0,16880.2,0.00908846,0.00879311,-0.78274,9,0.00173763,10,-6.88272e-06,-3.10638,2.1163,0.0278788,-0.851695,0.00879311,
2,0,0,1,0,16880.9,0.00159728,0.00123438,-0.78908,9,0.00113763,10,-9.74027e-07,-3.10288, , , ,0.00123438,
2,0,0,1,0,16881,0.000199195,-0.00016499,-0.779079,9,0.00102538,10,1.2854e-07,-3.10842, , , ,-0.00016499,

File: 20221101_1-115_003_TrumpetPlot_ParaChange_from10_every3_04_CV_C01_9.csv
mode,ox/red,error,control changes,counter inc.,time/s,control/V,Ewe/V,<I>/mA,cycle number,(Q-Qo)/C,I Range,P/W,log(|I|),Tafel slope mV/dec,alpha_eff,dI/d(E-IR),E-IR/V,
2,0,0,1,0,18791.2,2.44065e-05,-0.000229887,-0.38688,10,0.0000000E+000,10,8.89387e-08,-3.41242, , , ,-0.000229887,
2,1,0,1,0,18791.9,0.00729063,0.00699784,0.377244,10,0.000202396,10,2.6399e-06,-3.42338,0.0618077,0.954574,13.9045,0.00699784,
2,1,0,1,0,18792.7,0.0147814,0.0144705,0.45311,10,0.000528633,10,6.55675e-06,-3.3438,0.117497,0.502143,8.8697,0.0144705,
2,1,0,1,0,18793.4,0.0222725,0.0219644,0.510513,10,0.000902398,10,1.12131e-05,-3.29199,0.156353,0.37735,7.50309,0.0219644,
2,1,0,1,0,18794.2,0.0297635,0.0294254,0.564902,10,0.00131703,10,1.66225e-05,-3.24803,0.20243,0.291459,6.4084,0.0294254,
2,1,0,1,0,18794.9,0.0372544,0.0369331,0.614381,10,0.00177148,10,2.2691e-05,-3.21156,0.196797,0.299802,7.22747,0.03693312,
2,1,0,1,0,18795.7,0.0447458,0.0444412,0.66857,10,0.00226612,10,2.9712e-05,-3.17485,0.237234,0.2487,6.48297,0.0444412,
2,1,0,1,0,18796.4,0.0522363,0.0519071,0.714282,10,0.0027976,10,3.70763e-05,-3.14613,0.233021,0.253196,7.07118,0.0519071,
2,1,0,1,0,18797.2,0.0597282,0.0594232,0.762485,10,0.00336422,10,4.53093e-05,-3.11777,0.287262,0.205388,6.10454,0.0594232,
2,1,0,1,0,18797.9,0.0672182,0.0669055,0.802938,10,0.00396272,10,5.3721e-05,-3.09532,0.367823,0.160403,5.01104,0.0669055,
2,1,0,1,0,18798.7,0.0747092,0.0744196,0.836682,10,0.00458812,10,6.22655e-05,-3.07744,0.484863,0.121684,3.96249,0.0744196,
2,1,0,1,0,18799.4,0.0822001,0.0819007,0.862946,10,0.00523755,10,7.06759e-05,-3.06402,0.543181,0.108619,3.67321,0.0819007,
2,1,0,1,0,18800.2,0.0896911,0.0893893,0.90642,10,0.00591231,10,8.10242e-05,-3.04267,0.323746,0.182242,6.44533,0.0893893,
2,1,0,1,0,18800.9,0.097182,0.0968493,0.967579,10,0.00662501,10,9.37093e-05,-3.01431,0.192591,0.306349,11.5588,0.0968493,
2,1,0,1,0,18801.7,0.104673,0.104382,1.05749,10,0.00739421,10,0.000110383,-2.97573,0.203497,0.28993,11.9069,0.104382,
2,1,0,1,0,18802.4,0.112164,0.111861,1.13859,10,0.00822912,10,0.000127364,-2.94363,0.288278,0.204663,9.05626,0.111861,
2,1,0,1,0,18803.2,0.119655,0.119316,1.19547,10,0.00911649,10,0.000142638,-2.92246,0.522474,0.112924,5.2701,0.1193161,
2,1,0,1,0,18803.9,0.127146,0.126833,1.2385,10,0.0100421,10,0.000157084,-2.9071,0.429643,0.137323,6.65455,0.1268333,
2,1,0,1,0,18804.7,0.134637,0.134321,1.26759,10,0.0109993,10,0.000170263,-2.89702,-1.24765,-0.0472888,-2.33602,0.134321,
2,1,0,1,0,18805.4,0.142127,0.141836,1.17691,10,0.0119375,10,0.000166928,-2.92926,-0.127998,-0.460946,-21.0469,0.141836,
2,1,0,1,0,18806.1,0.149619,0.149335,0.963259,10,0.0127552,10,0.000143848,-3.01626,-0.072303,-0.81601,-30.6411,0.149335,
2,1,0,1,0,18806.9,0.157109,0.156818,0.770425,10,0.0134115,10,0.000120816,-3.11327,-0.086385,-0.682989,-20.603,0.156818,
2,1,0,1,0,18807.6,0.164601,0.164282,0.668238,10,0.0139583,10,0.000109779,-3.17507,-0.153128,-0.385298,-10.054,0.164282,
2,1,0,1,0,18808.4,0.172091,0.171768,0.611491,10,0.0144484,10,0.000105035,-3.21361,-0.281654,-0.209477,-5.02379,0.171768,
2,1,0,1,0,18809.1,0.179582,0.179275,0.583065,10,0.0149075,10,0.000104529,-3.23428,-0.443219,-0.133117,-3.02906,0.179275,
2,1,0,1,0,18809.9,0.187074,0.186755,0.564279,10,0.0153481,10,0.000105382,-3.24851,-0.880189,-0.067031,-1.47154,0.186755,
2,1,0,1,0,18810.6,0.194564,0.19422,0.549014,10,0.0157766,10,0.00010663,-3.26042,-0.744206,-0.0792791,-1.70154,0.19422,
2,1,0,1,0,18811.4,0.202056,0.20172,0.540511,10,0.0161963,10,0.000109032,-3.2672,-0.760914,-0.0775383,-1.62852,0.20172,
2,1,0,1,0,18812.1,0.209546,0.209263,0.531888,10,0.0166095,10,0.000111304,-3.27418,-0.824291,-0.0715767,-1.48768,0.209263,
2,1,0,1,0,18812.9,0.217038,0.216703,0.52496,10,0.0170166,10,0.000113761,-3.27987,-1.38689,-0.0425411,-0.871117,0.216703,
2,1,0,1,0,18813.6,0.224528,0.22423,0.518137,10,0.017419,10,0.000116182,-3.28556,-1.74176,-0.0338738,-0.685088,0.22423,
2,1,0,1,0,18814.4,0.232019,0.231679,0.511794,10,0.0178174,10,0.000118572,-3.29091,-2.00464,-0.0294316,-0.589817,0.231679,
2,1,0,1,0,18815.1,0.23951,0.23919,0.508249,10,0.0182121,10,0.000121568,-3.29392,-4.37785,-0.0134769,-0.267459,0.23919,
2,1,0,1,0,18815.9,0.247001,0.246693,0.504386,10,0.0186031,10,0.000124429,-3.29724,-1.20875,-0.0488106,-0.959182,0.246693,
2,1,0,1,0,18816.6,0.254492,0.254168,0.499795,10,0.0189909,10,0.000127032,-3.30121,-1.36516,-0.0432182,-0.843387,0.254168,
2,1,0,1,0,18817.4,0.261983,0.261705,0.495187,10,0.0193755,10,0.000129593,-3.30523,-2.54907,-0.0231457,-0.448051,0.261705,
2,1,0,1,0,18818.1,0.269474,0.269166,0.491229,10,0.0197572,10,0.000132222,-3.30872,-4.72923,-0.0124756,-0.238351,0.269166,
2,1,0,1,0,18818.9,0.276965,0.276637,0.485867,10,0.0201357,10,0.000134409,-3.31348,-1.74131,-0.0338826,-0.644482,0.276637,
2,1,0,1,0,18819.6,0.284456,0.284165,0.482566,10,0.0205109,10,0.000137128,-3.31644,-6.98392,-0.00844798,-0.158982,0.284165,
2,1,0,1,0,18820.4,0.291947,0.291591,0.478273,10,0.0208824,10,0.00013946,-3.32032,-1.34471,-0.0438756,-0.81822,0.291591,
2,1,0,1,0,18821.1,0.299437,0.299115,0.472669,10,0.0212508,10,0.000141382,-3.32544,-0.00202255,-29.171,-235.715,0.299115,
2,0,0,1,0,18821.8,0.293745,0.293452,-0.0839173,10,0.0212607,10,-2.46257e-05,-4.07615,-0.0166692,-3.53947,10.951,0.293452,
2,0,0,1,0,18822.6,0.286253,0.285974,-0.137471,10,0.021163,10,-3.93133e-05,-3.86179,-0.0561302,-1.05113,5.68364,0.2859742,
2,0,0,1,0,18823.3,0.278763,0.278502,-0.173639,10,0.0210333,10,-4.83588e-05,-3.76035,-0.09809,-0.601488,4.06166,0.2785022,
2,0,0,1,0,18824.1,0.271272,0.27098,-0.200935,10,0.0208806,10,-5.44494e-05,-3.69694,-0.130466,-0.452225,3.53445,0.27098,
2,0,0,1,0,18824.8,0.263781,0.263478,-0.223865,10,0.0207092,10,-5.89836e-05,-3.65001,-0.162327,-0.363465,3.16126,0.263478,
2,0,0,1,0,18825.6,0.25629,0.255984,-0.243968,10,0.0205219,10,-6.24519e-05,-3.61267,-0.215174,-0.274197,2.59615,0.255984,
2,0,0,1,0,18826.3,0.248799,0.248475,-0.260295,10,0.0203207,10,-6.46768e-05,-3.58453,-0.264884,-0.222739,2.27474,0.248475,
2,0,0,1,0,18827.1,0.241308,0.241015,-0.277739,10,0.0201071,10,-6.69392e-05,-3.55636,-0.322586,-0.182897,1.97676,0.241015,
2,0,0,1,0,18827.8,0.233817,0.233503,-0.291337,10,0.0198815,10,-6.80281e-05,-3.5356,-0.303884,-0.194153,2.21356,0.233503,
2,0,0,1,0,18828.6,0.226326,0.226039,-0.306022,10,0.0196446,10,-6.91728e-05,-3.51425,-0.435109,-0.135598,1.62679,0.226039,
2,0,0,1,0,18829.3,0.218835,0.218514,-0.32386,10,0.0193963,10,-7.0768e-05,-3.48964,-0.300688,-0.196217,2.47701,0.218514,
2,0,0,1,0,18830.1,0.211344,0.211007,-0.337835,10,0.0191366,10,-7.12857e-05,-3.47129,-0.470908,-0.12529,1.64788,0.211007,
2,0,0,1,0,18830.8,0.203854,0.203537,-0.352333,10,0.018865,10,-7.17128e-05,-3.45305,-0.429012,-0.137525,1.90658,0.203537,
2,0,0,1,0,18831.6,0.196362,0.196045,-0.370744,10,0.0185815,10,-7.26825e-05,-3.43093,-0.402821,-0.146467,2.11632,0.196045,
2,0,0,1,0,18832.3,0.188872,0.188552,-0.387925,10,0.0182846,10,-7.31443e-05,-3.41125,-0.26469,-0.222903,3.37501,0.188552,
2,0,0,1,0,18833.1,0.18138,0.181049,-0.412057,10,0.017973,10,-7.46024e-05,-3.38504,-0.298787,-0.197465,3.17146,0.181049,
2,0,0,1,0,18833.8,0.17389,0.17357,-0.437962,10,0.0176434,10,-7.6017e-05,-3.35856,-0.236493,-0.249479,4.25389,0.17357,
2,0,0,1,0,18834.6,0.166398,0.166069,-0.47478,10,0.01729,10,-7.88464e-05,-3.32351,-0.221075,-0.266877,4.96225,0.166069,
2,0,0,1,0,18835.3,0.158907,0.158549,-0.524818,10,0.0169038,10,-8.32093e-05,-3.27999,-0.129641,-0.455103,9.38088,0.158549,
2,0,0,1,0,18836,0.151417,0.151126,-0.613193,10,0.0164666,10,-9.26695e-05,-3.2124,-0.10049,-0.587121,14.0718,0.151126,
2,0,0,1,0,18836.8,0.143925,0.143621,-0.756027,10,0.0159456,10,-0.000108581,-3.12146,-0.0708974,-0.832188,24.5435,0.143621,
2,0,0,1,0,18837.5,0.136435,0.13612,-0.95786,10,0.0152933,10,-0.000130384,-3.0187,-0.077642,-0.759898,28.3243,0.13612,
2,0,0,1,0,18838.3,0.128943,0.128634,-1.15309,10,0.0144874,10,-0.000148326,-2.93814,-0.127164,-0.463967,20.7679,0.128634,
2,0,0,1,0,18839,0.121453,0.121139,-1.26529,10,0.0135631,10,-0.000153276,-2.89781,-0.336702,-0.175229,8.63505,0.121139,
2,0,0,1,0,18839.8,0.113962,0.113641,-1.28808,10,0.0125866,10,-0.000146378,-2.89006,1.6203,0.036413,-1.83533,0.113641,
2,0,0,1,0,18840.5,0.106471,0.106198,-1.26112,10,0.0116144,10,-0.000133928,-2.89924,0.571267,0.103279,-5.09451,0.106198,
2,0,0,1,0,18841.3,0.0989799,0.098671,-1.21342,10,0.0106737,10,-0.000119729,-2.91599,0.436772,0.135082,-6.39208,0.098671,
2,0,0,1,0,18842,0.0914889,0.0911835,-1.1617,10,0.00977241,10,-0.000105928,-2.93491,0.44038,0.133975,-6.06632,0.0911835,
2,0,0,1,0,18842.8,0.083998,0.0836345,-1.1134,10,0.00890893,10,-9.31184e-05,-2.95335,0.345409,0.170812,-7.41502,0.0836345,
2,0,0,1,0,18843.5,0.076507,0.0761618,-1.07365,10,0.00807785,10,-8.17712e-05,-2.96914,0.452204,0.130472,-5.45809,0.0761618,
2,0,0,1,0,18844.3,0.0690161,0.0686976,-1.03367,10,0.00727513,10,-7.10106e-05,-2.98562,0.561624,0.105052,-4.25165,0.0686976,
2,0,0,1,0,18845,0.0615251,0.0612122,-1.00301,10,0.00649785,10,-6.13966e-05,-2.99869,0.571726,0.103196,-4.04899,0.0612122,
2,0,0,1,0,18845.8,0.0540342,0.0537151,-0.970378,10,0.00574606,10,-5.2124e-05,-3.01306,0.581521,0.101458,-3.83525,0.0537151,
2,0,0,1,0,18846.5,0.0465441,0.0462135,-0.934882,10,0.00501963,10,-4.32042e-05,-3.02924,0.435933,0.135342,-4.93728,0.0462135,
2,0,0,1,0,18847.3,0.0390523,0.0387104,-0.900591,10,0.00432043,10,-3.48622e-05,-3.04547,0.382854,0.154106,-5.39624,0.0387104,
2,0,0,1,0,18848,0.0315618,0.0311948,-0.86339,10,0.00364882,10,-2.69333e-05,-3.06379,0.410831,0.143611,-4.83303,0.0311948,
2,0,0,1,0,18848.8,0.0240704,0.023783,-0.82662,10,0.00300344,10,-1.96595e-05,-3.08269,0.404971,0.145689,-4.71608,0.023783,
2,0,0,1,0,18849.5,0.0165796,0.0162682,-0.801438,10,0.00238093,10,-1.3038e-05,-3.09613,0.948462,0.062206,-1.94641,0.0162682,
2,0,0,1,0,18850.3,0.00908846,0.00874115,-0.785667,10,0.00177461,10,-6.86763e-06,-3.10476,1.19532,0.0493592,-1.51417,0.00874115,
2,0,0,1,0,18851,0.00159728,0.00125441,-0.789231,10,0.00117524,10,-9.90017e-07,-3.1028, , , ,0.00125441,
2,0,0,1,0,18851.2,0.000199195,-0.000170716,-0.782323,10,0.00106306,10,1.33555e-07,-3.10661, , , ,-0.000170716,