Folder: Figs_alphaMnO2_OER_Tafel_sleope/Figure_codes/Fig_3-5/rawdata_trumpetplot_data/after 10th (part 80)

File: 20221101_1-115_003_TrumpetPlot_ParaChange_from10_every3_06_CV_C01_21.csv
mode,ox/red,error,control changes,counter inc.,time/s,control/V,Ewe/V,<I>/mA,cycle number,(Q-Qo)/C,I Range,P/W,log(|I|),Tafel slope mV/dec,alpha_eff,dI/d(E-IR),E-IR/V,
2,0,0,0,0,42522.8,2.44065e-05,-0.000401673,-1.41725,22,0.0000000E+000,10,5.69272e-07,-2.84855, , , ,-0.000401673,
2,1,0,1,0,42522.9,0.00729063,0.00697881,1.08708,22,6.49928e-05,10,7.58654e-06,-2.96374,0.02353,2.50744,100.889,0.00697881,
2,1,0,1,0,42523.1,0.014778,0.0144595,1.50636,22,0.000317682,10,2.17812e-05,-2.82207,0.0940542,0.627298,36.8102,0.0144595,
2,1,0,1,0,42523.3,0.0222743,0.0219422,1.72689,22,0.000624999,10,3.78918e-05,-2.76274,0.152734,0.386293,25.9779,0.0219422,
2,1,0,1,0,42523.5,0.0297626,0.029431,1.90368,22,0.000967621,10,5.60272e-05,-2.72041,0.198596,0.297086,22.0131,0.029431,
2,1,0,1,0,42523.7,0.0372544,0.036906,2.06906,22,0.00134266,10,7.63609e-05,-2.68423,0.221905,0.26588,21.5286,0.036906,
2,1,0,1,0,42523.9,0.0447472,0.0443862,2.24316,22,0.00174941,10,9.95654e-05,-2.64914,0.2292,0.257417,22.4756,0.0443862,
2,1,0,1,0,42524.1,0.0522345,0.0518952,2.4042,22,0.00218719,10,0.000124766,-2.61903,0.252559,0.233609,21.9138,0.0518952,
2,1,0,1,0,42524.2,0.0597308,0.0594072,2.56035,22,0.00265552,10,0.000152103,-2.5917,0.297799,0.19812,19.7873,0.0594072,
2,1,0,1,0,42524.4,0.0672182,0.0669045,2.70598,22,0.00315097,10,0.000181042,-2.56767,0.3306,0.178464,18.7773,0.0669045,
2,1,0,1,0,42524.6,0.0747074,0.0743927,2.82454,22,0.00367141,10,0.000210125,-2.54905,0.46625,0.126542,13.9544,0.0743927,
2,1,0,1,0,42524.8,0.0822019,0.0818693,2.92574,22,0.00421347,10,0.000239529,-2.53376,0.605723,0.0974043,11.1197,0.0818693,
2,1,0,1,0,42525,0.0896911,0.0893428,3.02052,22,0.00477314,10,0.000269862,-2.51992,0.447273,0.13191,15.5858,0.0893428,
2,1,0,1,0,42525.2,0.097182,0.0968264,3.1555,22,0.00535452,10,0.000305536,-2.50093,0.305635,0.19304,23.8428,0.0968264,
2,1,0,1,0,42525.4,0.104675,0.104349,3.38436,22,0.00596845,10,0.000353155,-2.47052,0.224123,0.263248,34.7104,0.104349,
2,1,0,1,0,42525.6,0.112162,0.111864,3.65358,22,0.0066294,10,0.000408704,-2.43728,0.238531,0.247348,35.2416,0.111864,
2,1,0,1,0,42525.7,0.119655,0.119351,3.91039,22,0.00734178,10,0.00046671,-2.40778,0.341686,0.172673,26.3048,0.119351,
2,1,0,1,0,42525.9,0.127146,0.126828,4.06895,22,0.0080933,10,0.000516057,-2.39052,0.596829,0.0988559,15.6878,0.126828,
2,1,0,1,0,42526.1,0.134635,0.134307,4.16061,22,0.00886827,10,0.000558799,-2.38084,1.34506,0.0438643,7.13585,0.134307,
2,1,0,1,0,42526.3,0.14213,0.14186,4.15509,22,0.00965415,10,0.000589442,-2.38142,-0.539489,-0.109363,-17.6746,0.14186,
2,1,0,1,0,42526.5,0.149619,0.149279,3.8274,22,0.0104107,10,0.000571348,-2.4171,-0.125625,-0.469652,-69.8906,0.149279,
2,1,0,1,0,42526.7,0.157106,0.156776,3.18572,22,0.0110725,10,0.000499444,-2.49679,-0.082929,-0.711452,-88.6051,0.156776,
2,1,0,1,0,42526.9,0.164602,0.164273,2.62191,22,0.0116161,10,0.000430708,-2.58138,-0.0973197,-0.60625,-62.0288,0.164273,
2,1,0,1,0,42527.1,0.172091,0.171767,2.25978,22,0.0120732,10,0.000388154,-2.64593,-0.146393,-0.403025,-35.7334,0.171767,
2,1,0,1,0,42527.2,0.179582,0.179232,2.05771,22,0.0124793,10,0.000368807,-2.68662,-0.241509,-0.244297,-19.6773,0.179232,
2,1,0,1,0,42527.4,0.187074,0.186759,1.93974,22,0.0128557,10,0.000362263,-2.71226,-0.435131,-0.135591,-10.2487,0.186759,
2,1,0,1,0,42527.6,0.194563,0.194249,1.86213,22,0.0132142,10,0.000361717,-2.72999,-0.53512,-0.110256,-8.03586,0.194249,
2,1,0,1,0,42527.8,0.202059,0.201759,1.81892,22,0.0135616,10,0.000366985,-2.74019,-0.723167,-0.0815856,-5.76275,0.2017594,
2,1,0,1,0,42528,0.209546,0.209251,1.78072,22,0.0139009,10,0.000372618,-2.7494,-0.813801,-0.0724993,-5.03901,0.209251,
2,1,0,1,0,42528.2,0.217035,0.216738,1.74948,22,0.0142344,10,0.000379179,-2.75709,-1.35889,-0.0434179,-2.97702,0.216738,
2,1,0,1,0,42528.4,0.22453,0.224213,1.73391,22,0.0145641,10,0.000388765,-2.76097,-1.57197,-0.0375325,-2.53533,0.224213,
2,1,0,1,0,42528.6,0.232019,0.231707,1.71161,22,0.0148897,10,0.000396591,-2.7666,-3.14979,-0.0187314,-1.25419,0.231707,
2,1,0,1,0,42528.7,0.23951,0.239211,1.70266,22,0.0152126,10,0.000407294,-2.76887,-1.85486,-0.0318084,-2.11045,0.239211,
2,1,0,1,0,42528.9,0.247003,0.246728,1.68897,22,0.0155329,10,0.000416717,-2.77238,-1.9345,-0.0304989,-2.00696,0.2467283,
2,1,0,1,0,42529.1,0.25449,0.254182,1.67557,22,0.0158507,10,0.0004259,-2.77584,-2.16866,-0.0272058,-1.78082,0.254182,
2,1,0,1,0,42529.3,0.261983,0.261678,1.66648,22,0.0161665,10,0.000436082,-2.7782,-2.4974,-0.0236246,-1.53218,0.261678,
2,1,0,1,0,42529.5,0.269474,0.269163,1.64941,22,0.0164799,10,0.00044396,-2.78267,-5.85963,-0.0100689,-0.650152,0.2691634,
2,1,0,1,0,42529.7,0.276963,0.276681,1.63859,22,0.016791,10,0.000453368,-2.78553,-1.40166,-0.042093,-2.6964,0.276681,
2,1,0,1,0,42529.9,0.284458,0.284189,1.63036,22,0.0171,10,0.00046333,-2.78772,-3.15625,-0.0186931,-1.18481,0.284189,
2,1,0,1,0,42530.1,0.291947,0.291661,1.60734,22,0.0174061,10,0.000468797,-2.79389,-1.54056,-0.0382978,-2.4132,0.291661,
2,1,0,1,0,42530.2,0.299434,0.299197,1.59808,22,0.0177095,10,0.000478141,-2.7964,-0.0172606,-3.4182,-184.763,0.299197,
2,0,0,1,0,42530.4,0.294196,0.293885,-0.291244,22,0.0177586,10,-8.55921e-05,-3.53574,-0.00668617,-8.82419,75.8717,0.293885,
2,0,0,1,0,42530.6,0.286701,0.286353,-0.569448,22,0.0176692,10,-0.000163063,-3.24455,-0.0586034,-1.00677,22.5232,0.286353,
2,0,0,1,0,42530.8,0.279212,0.278911,-0.710445,22,0.0175448,10,-0.000198151,-3.14847,-0.10897,-0.541435,14.9214,0.278911,
2,0,0,1,0,42531,0.271725,0.271415,-0.798631,22,0.0173996,10,-0.000216761,-3.09765,-0.144383,-0.408636,12.8052,0.2714152,
2,0,0,1,0,42531.1,0.264228,0.2639,-0.881957,22,0.0172387,10,-0.000232748,-3.05455,-0.206942,-0.285104,9.73153,0.2639,
2,0,0,1,0,42531.3,0.256741,0.256437,-0.941992,22,0.0170651,10,-0.000241562,-3.02595,-0.291593,-0.202337,7.42759,0.256437,
2,0,0,1,0,42531.5,0.249248,0.248944,-0.995388,22,0.0168802,10,-0.000247796,-3.00201,-0.392029,-0.150499,5.8622,0.248944,
2,0,0,1,0,42531.7,0.241756,0.241446,-1.04778,22,0.0166853,10,-0.000252982,-2.97973,-0.439325,-0.134297,5.47965,0.241446,
2,0,0,1,0,42531.9,0.234268,0.233948,-1.09432,22,0.0164812,10,-0.000256014,-2.96085,-0.388982,-0.151678,6.50442,0.233948,
2,0,0,1,0,42532.1,0.226772,0.226492,-1.14299,22,0.016268,10,-0.000258878,-2.94196,-0.364084,-0.162051,7.23455,0.226492,
2,0,0,1,0,42532.3,0.219284,0.218946,-1.19099,22,0.0160466,10,-0.000260763,-2.92409,-0.479977,-0.122923,5.67768,0.218946,
2,0,0,1,0,42532.5,0.211796,0.2115,-1.22944,22,0.0158168,10,-0.000260025,-2.91029,-0.548236,-0.107618,5.17867,0.2115,
2,0,0,1,0,42532.6,0.204301,0.203939,-1.2778,22,0.0155783,10,-0.000260593,-2.89354,-0.842204,-0.0700543,3.49326,0.203939,
2,0,0,1,0,42532.8,0.196812,0.196533,-1.32317,22,0.0153317,10,-0.000260047,-2.87838,-0.449859,-0.131152,6.76571,0.196533,
2,0,0,1,0,42533,0.189321,0.188982,-1.37154,22,0.0150758,10,-0.000259197,-2.86279,-0.452294,-0.130446,7.01009,0.188982,
2,0,0,1,0,42533.2,0.181828,0.181529,-1.43416,22,0.0148103,10,-0.00026034,-2.8434,-0.369635,-0.159617,8.88006,0.181529,
2,0,0,1,0,42533.4,0.174341,0.173985,-1.49391,22,0.0145335,10,-0.000259919,-2.82567,-0.369772,-0.159558,9.30599,0.173985,
2,0,0,1,0,42533.6,0.166848,0.166501,-1.57866,22,0.0142427,10,-0.000262849,-2.80171,-0.293316,-0.201148,12.3966,0.166501,
2,0,0,1,0,42533.8,0.159357,0.159007,-1.69472,22,0.0139338,10,-0.000269472,-2.7709,-0.213945,-0.275772,18.1924,0.159007,
2,0,0,1,0,42534,0.151868,0.151585,-1.85809,22,0.0135986,10,-0.000281659,-2.73093,-0.153781,-0.383664,28.0325,0.151585,
2,0,0,1,0,42534.1,0.144373,0.144039,-2.14976,22,0.0132217,10,-0.00030965,-2.66761,-0.102229,-0.577138,48.5261,0.144039,
2,0,0,1,0,42534.3,0.136884,0.136553,-2.59058,22,0.0127771,10,-0.000353752,-2.5866,-0.0872617,-0.676127,68.3016,0.136553,
2,0,0,1,0,42534.5,0.129393,0.129094,-3.12069,22,0.0122389,10,-0.000402863,-2.50575,-0.0986592,-0.598018,72.8418,0.129094,
2,0,0,1,0,42534.7,0.1219,0.121617,-3.61341,22,0.0116036,10,-0.000439451,-2.44208,-0.144646,-0.407892,57.2493,0.121617,
2,0,0,1,0,42534.9,0.114413,0.114075,-3.971,22,0.0108884,10,-0.000452991,-2.4011,-0.241732,-0.244072,37.7815,0.114075,
2,0,0,1,0,42535.1,0.10692,0.106607,-4.16507,22,0.0101197,10,-0.000444026,-2.38038,-0.667218,-0.0884269,14.3761,0.106607,
2,0,0,1,0,42535.3,0.0994284,0.0990852,-4.18564,22,0.00933119,10,-0.000414735,-2.37824,1.27547,0.0462574,-7.54604,0.0990852,
2,0,0,1,0,42535.5,0.0919401,0.0915873,-4.06854,22,0.0085539,10,-0.000372627,-2.39056,0.552568,0.106774,-16.9658,0.0915873,
2,0,0,1,0,42535.6,0.0844447,0.0841659,-3.92861,22,0.00780144,10,-0.000330655,-2.40576,0.541494,0.108958,-16.7051,0.0841659,
2,0,0,1,0,42535.8,0.0769565,0.076633,-3.81598,22,0.00707418,10,-0.00029243,-2.41839,0.555512,0.106208,-15.7952,0.076633,
2,0,0,1,0,42536,0.0694682,0.0691409,-3.71635,22,0.00636601,10,-0.000256952,-2.42988,0.720197,0.0819221,-11.9011,0.0691409,
2,0,0,1,0,42536.2,0.0619728,0.0616558,-3.62868,22,0.00567414,10,-0.000223729,-2.44025,0.664432,0.0887977,-12.564,0.0616558,
2,0,0,1,0,42536.4,0.0544836,0.0541131,-3.52539,22,0.00500109,10,-0.00019077,-2.45279,0.663148,0.0889696,-12.2416,0.0541131,
2,0,0,1,0,42536.6,0.0469927,0.0466615,-3.42317,22,0.00434694,10,-0.00015973,-2.46557,0.540751,0.109107,-14.5676,0.0466615,
2,0,0,1,0,42536.8,0.0394999,0.0391464,-3.31026,22,0.00371371,10,-0.000129585,-2.48014,0.46227,0.127631,-16.4376,0.0391464,
2,0,0,1,0,42537,0.0320125,0.0316749,-3.17686,22,0.00310347,10,-0.000100627,-2.498,0.417006,0.141485,-17.5495,0.0316749,
2,0,0,1,0,42537.1,0.0245198,0.0242097,-3.04426,22,0.00251734,10,-7.37007e-05,-2.51652,0.426392,0.13837,-16.4491,0.0242097,
2,0,0,1,0,42537.3,0.0170289,0.0167118,-2.93487,22,0.00195458,10,-4.9047e-05,-2.53241,0.51014,0.115654,-13.2263,0.0167118,
2,0,0,1,0,42537.5,0.0095397,0.00919243,-2.83943,22,0.00141138,10,-2.61013e-05,-2.54677,0.810295,0.072813,-8.08189,0.00919243,
2,0,0,1,0,42537.7,0.00204518,0.00169043,-2.81937,22,0.000881227,10,-4.76596e-06,-2.54985,3.00957,0.0196041,-2.13562,0.00169043,
2,0,0,1,0,42537.8,0.000177222,-0.000202401,-2.78712,22,0.000749683,10,5.64116e-07,-2.55484, , , ,-0.000202401,

File: 20221101_1-115_003_TrumpetPlot_ParaChange_from10_every3_06_CV_C01_22.csv
mode,ox/red,error,control changes,counter inc.,time/s,control/V,Ewe/V,<I>/mA,cycle number,(Q-Qo)/C,I Range,P/W,log(|I|),Tafel slope mV/dec,alpha_eff,dI/d(E-IR),E-IR/V,
2,0,0,0,0,44492.9,2.44065e-05,-0.000306236,-1.41598,23,0.0000000E+000,10,4.33624e-07,-2.84894, , , ,-0.000306236,
2,1,0,1,0,44493.1,0.00729063,0.00693842,1.1016,23,6.82693e-05,10,7.64336e-06,-2.95798,0.0243361,2.42439,98.9854,0.00693842,
2,1,0,1,0,44493.3,0.014778,0.0144544,1.5139,23,0.000322712,10,2.18826e-05,-2.8199,0.0998505,0.590883,34.7364,0.0144544,
2,1,0,1,0,44493.4,0.0222743,0.0219424,1.71882,23,0.000630084,10,3.77152e-05,-2.76477,0.156603,0.37675,25.2885,0.0219424,
2,1,0,1,0,44493.6,0.0297626,0.0294855,1.89396,23,0.00097177,10,5.58445e-05,-2.72263,0.193061,0.305603,22.5522,0.0294855,
2,1,0,1,0,44493.8,0.0372544,0.0369279,2.06025,23,0.00134533,10,7.60807e-05,-2.68608,0.216816,0.272121,21.9225,0.0369279,
2,1,0,1,0,44494,0.0447472,0.044422,2.22971,23,0.00175053,10,9.90481e-05,-2.65175,0.22573,0.261374,22.7689,0.044422,
2,1,0,1,0,44494.2,0.0522345,0.0519,2.39367,23,0.00218685,10,0.000124231,-2.62094,0.241041,0.244772,22.8636,0.0519,
2,1,0,1,0,44494.4,0.0597308,0.0594391,2.54788,23,0.00265366,10,0.000151444,-2.59382,0.295413,0.199721,19.8872,0.0594391,
2,1,0,1,0,44494.6,0.0672182,0.066943,2.69353,23,0.0031476,10,0.000180313,-2.56968,0.342299,0.172364,18.1003,0.066943,
2,1,0,1,0,44494.8,0.0747074,0.0743933,2.81364,23,0.00366637,10,0.000209316,-2.55073,0.456198,0.12933,14.1926,0.0743933,
2,1,0,1,0,44494.9,0.0822019,0.0818931,2.91327,23,0.00420666,10,0.000238577,-2.53562,0.569478,0.103604,11.8008,0.0818931,
2,1,0,1,0,44495.1,0.0896911,0.089352,3.01625,23,0.00476429,10,0.000269508,-2.52053,0.442709,0.13327,15.6737,0.089352,
2,1,0,1,0,44495.3,0.097182,0.0968845,3.14947,23,0.00534378,10,0.000305135,-2.50176,0.301391,0.195759,24.08,0.0968845,
2,1,0,1,0,44495.5,0.104675,0.104381,3.37337,23,0.00595594,10,0.000352117,-2.47194,0.216381,0.272668,35.8845,0.1043814,
2,1,0,1,0,44495.7,0.112162,0.11183,3.65148,23,0.00661556,10,0.000408346,-2.43753,0.220143,0.268007,38.1089,0.11183,
2,1,0,1,0,44495.9,0.119655,0.119313,3.90283,23,0.0073272,10,0.000465659,-2.40862,0.344455,0.171285,26.0784,0.119313,
2,1,0,1,0,44496.1,0.127146,0.126869,4.05858,23,0.00807752,10,0.000514907,-2.39163,0.603445,0.0977719,15.4828,0.126869,
2,1,0,1,0,44496.3,0.134635,0.134312,4.15027,23,0.00885025,10,0.000557432,-2.38192,1.71622,0.0343779,5.56432,0.134312,
2,1,0,1,0,44496.4,0.142129,0.141816,4.12097,23,0.00963179,10,0.000584418,-2.385,-0.502175,-0.117489,-18.8594,0.141816,
2,1,0,1,0,44496.6,0.149619,0.149305,3.77476,23,0.0103804,10,0.000563593,-2.42311,-0.120794,-0.488436,-71.6747,0.149305,
2,1,0,1,0,44496.8,0.157106,0.156811,3.1278,23,0.0110309,10,0.000490474,-2.50476,-0.0807429,-0.730714,-89.1534,0.156811,
2,1,0,1,0,44497,0.164602,0.164273,2.5627,23,0.0115637,10,0.000420984,-2.5913,-0.0997177,-0.59167,-59.4689,0.164273,
2,1,0,1,0,44497.2,0.172091,0.171774,2.22298,23,0.0120123,10,0.000381851,-2.65306,-0.145552,-0.405353,-35.2548,0.171774,
2,1,0,1,0,44497.4,0.179582,0.179279,2.02743,23,0.0124122,10,0.000363475,-2.69305,-0.246115,-0.239725,-19.0324,0.179279,
2,1,0,1,0,44497.6,0.187074,0.186793,1.91811,23,0.0127841,10,0.000358289,-2.71713,-0.398446,-0.148075,-11.0963,0.186793,
2,1,0,1,0,44497.8,0.194563,0.194278,1.85352,23,0.0131392,10,0.000360097,-2.732,-0.564868,-0.104449,-7.53225,0.194278,
2,1,0,1,0,44497.9,0.202059,0.201764,1.80331,23,0.0134842,10,0.000363842,-2.74393,-0.726372,-0.0812255,-5.71871,0.201764,
2,1,0,1,0,44498.1,0.209546,0.209195,1.77178,23,0.0138218,10,0.000370648,-2.75159,-0.85211,-0.0692399,-4.79213,0.209195,
2,1,0,1,0,44498.3,0.217035,0.216702,1.74819,23,0.0141541,10,0.000378835,-2.75741,-1.25787,-0.0469049,-3.19811,0.216702,
2,1,0,1,0,44498.5,0.22453,0.224208,1.7223,23,0.0144827,10,0.000386155,-2.76389,-2.01404,-0.0292943,-1.97697,0.224208,
2,1,0,1,0,44498.7,0.232019,0.231689,1.71182,23,0.0148076,10,0.00039661,-2.76654,-2.54269,-0.0232038,-1.54886,0.231689,
2,1,0,1,0,44498.9,0.23951,0.23922,1.69653,23,0.01513,10,0.000405844,-2.77044,-2.08454,-0.0283036,-1.87398,0.23922,
2,1,0,1,0,44499.1,0.247003,0.246696,1.68475,23,0.01545,10,0.000415623,-2.77346,-1.19274,-0.0494658,-3.25762,0.246696,
2,1,0,1,0,44499.2,0.25449,0.254184,1.67595,23,0.0157676,10,0.000426,-2.77574,-1.84053,-0.032056,-2.09252,0.2541841,
2,1,0,1,0,44499.4,0.261983,0.261694,1.66285,23,0.0160832,10,0.000435159,-2.77915,-2.6008,-0.0226853,-1.47392,0.261694,
2,1,0,1,0,44499.6,0.269474,0.269138,1.65335,23,0.0163966,10,0.000444979,-2.78164,-43.7174,-0.00134958,-0.0870792,0.269138,
2,1,0,1,0,44499.8,0.276963,0.276631,1.6427,23,0.0167078,10,0.000454422,-2.78444,-2.40654,-0.0245166,-1.5669,0.276631,
2,1,0,1,0,44500,0.284458,0.284128,1.62588,23,0.0170169,10,0.000461957,-2.78891,-4.12368,-0.0143076,-0.908558,0.284128,
2,1,0,1,0,44500.2,0.291947,0.291596,1.61216,23,0.0173231,10,0.0004701,-2.79259,-1.13641,-0.0519177,-3.26616,0.291596,
2,1,0,1,0,44500.4,0.299434,0.299155,1.59886,23,0.0176267,10,0.000478309,-2.79619,-0.0170821,-3.45392,-186.425,0.299155,
2,0,0,1,0,44500.5,0.294196,0.293869,-0.297464,23,0.0176747,10,-8.74154e-05,-3.52657,-0.00715719,-8.24346,73.9829,0.2938689,
2,0,0,1,0,44500.7,0.286701,0.286386,-0.574134,23,0.017585,10,-0.000164424,-3.24099,-0.0571092,-1.03311,22.8354,0.286386,
2,0,0,1,0,44500.9,0.279212,0.278895,-0.703109,23,0.0174611,10,-0.000196093,-3.15298,-0.106874,-0.552049,15.1625,0.278895,
2,0,0,1,0,44501.1,0.271725,0.271381,-0.792779,23,0.0173169,10,-0.000215145,-3.10085,-0.138263,-0.426722,13.2842,0.271381,
2,0,0,1,0,44501.3,0.264228,0.263914,-0.871374,23,0.0171569,10,-0.000229968,-3.0598,-0.229555,-0.257019,8.72778,0.263914,
2,0,0,1,0,44501.5,0.256741,0.256465,-0.934669,23,0.0169843,10,-0.00023971,-3.02934,-0.263705,-0.223734,8.16036,0.256465,
2,0,0,1,0,44501.7,0.249248,0.24893,-0.990882,23,0.0168006,10,-0.00024666,-3.00398,-0.328836,-0.179421,6.93235,0.24893,
2,0,0,1,0,44501.8,0.241756,0.241426,-1.04188,23,0.0166067,10,-0.000251536,-2.98218,-0.326832,-0.180521,7.32894,0.241426,
2,0,0,1,0,44502,0.234268,0.233917,-1.0878,23,0.0164036,10,-0.000254456,-2.96345,-0.477317,-0.123608,5.28544,0.233917,
2,0,0,1,0,44502.2,0.226772,0.226449,-1.13824,23,0.0161914,10,-0.000257753,-2.94377,-0.360581,-0.163625,7.25863,0.226449,
2,0,0,1,0,44502.4,0.219284,0.218967,-1.18654,23,0.0159711,10,-0.000259814,-2.92572,-0.435121,-0.135594,6.24088,0.218967,
2,0,0,1,0,44502.6,0.211796,0.211465,-1.22537,23,0.0157423,10,-0.000259124,-2.91173,-0.502877,-0.117325,5.61164,0.211465,
2,0,0,1,0,44502.8,0.204301,0.203984,-1.27468,23,0.0155048,10,-0.000260014,-2.8946,-0.756221,-0.0780195,3.86986,0.203984,
2,0,0,1,0,44503,0.196812,0.196443,-1.31346,23,0.0152592,10,-0.00025802,-2.88158,-0.561031,-0.105164,5.4062,0.1964431,
2,0,0,1,0,44503.2,0.189321,0.189023,-1.3639,23,0.0150044,10,-0.000257808,-2.86522,-0.459183,-0.128489,6.87098,0.189023,
2,0,0,1,0,44503.3,0.181828,0.181468,-1.42736,23,0.01474,10,-0.000259019,-2.84547,-0.34704,-0.170009,9.41114,0.181468,
2,0,0,1,0,44503.5,0.174341,0.174024,-1.48727,23,0.0144644,10,-0.000258821,-2.82761,-0.339309,-0.173883,10.1017,0.174024,
2,0,0,1,0,44503.7,0.166848,0.166483,-1.5711,23,0.0141748,10,-0.000261562,-2.8038,-0.296346,-0.199091,12.2021,0.166483,
2,0,0,1,0,44503.9,0.159357,0.15902,-1.68802,23,0.0138673,10,-0.000268428,-2.77262,-0.213332,-0.276564,18.1533,0.15902,
2,0,0,1,0,44504.1,0.151868,0.151486,-1.85019,23,0.0135339,10,-0.000280279,-2.73278,-0.151895,-0.388427,28.176,0.151486,
2,0,0,1,0,44504.3,0.144373,0.144042,-2.1294,23,0.013159,10,-0.000306723,-2.67174,-0.102676,-0.574626,48.0166,0.144042,
2,0,0,1,0,44504.5,0.136884,0.136545,-2.57689,23,0.012717,10,-0.000351861,-2.5889,-0.087098,-0.677398,68.0134,0.1365447,
2,0,0,1,0,44504.7,0.129393,0.129064,-3.10244,23,0.0121819,10,-0.000400413,-2.5083,-0.103423,-0.570475,69.0758,0.129064,
2,0,0,1,0,44504.8,0.1219,0.121586,-3.58861,23,0.0115501,10,-0.000436325,-2.44507,-0.14628,-0.403335,56.3208,0.121586,
2,0,0,1,0,44505,0.114413,0.114077,-3.95361,23,0.0108386,10,-0.000451017,-2.40301,-0.252806,-0.233381,35.9431,0.114077,
2,0,0,1,0,44505.2,0.10692,0.106594,-4.14223,23,0.010074,10,-0.000441536,-2.38277,-0.714099,-0.0826216,13.3486,0.1065938,
2,0,0,1,0,44505.4,0.0994284,0.0991019,-4.15537,23,0.00929041,10,-0.000411805,-2.38139,1.06024,0.055648,-9.0106,0.0991019,
2,0,0,1,0,44505.6,0.0919402,0.0916273,-4.03618,23,0.00851903,10,-0.000369825,-2.39403,0.490753,0.120223,-18.9444,0.0916273,
2,0,0,1,0,44505.8,0.0844447,0.0841316,-3.89324,23,0.0077725,10,-0.000327545,-2.40969,0.518773,0.11373,-17.3074,0.0841316,
2,0,0,1,0,44506,0.0769565,0.0766134,-3.7854,23,0.00705084,10,-0.000290012,-2.42189,0.617589,0.0955328,-14.1044,0.0766134,
2,0,0,1,0,44506.1,0.0694682,0.0691416,-3.69392,23,0.00634745,10,-0.000255404,-2.43251,0.777768,0.0758581,-10.9399,0.0691416,
2,0,0,1,0,44506.3,0.0619728,0.0616188,-3.60174,23,0.00565991,10,-0.000221935,-2.44349,0.593246,0.0994529,-13.9947,0.0616188,
2,0,0,1,0,44506.5,0.0544836,0.0541458,-3.50875,23,0.00499093,10,-0.000189984,-2.45485,0.720637,0.081872,-11.1852,0.0541458,
2,0,0,1,0,44506.7,0.0469927,0.0466173,-3.39723,23,0.00434058,10,-0.00015837,-2.46887,0.58299,0.101202,-13.4303,0.0466173,
2,0,0,1,0,44506.9,0.0394999,0.0391461,-3.28962,23,0.00371091,10,-0.000128776,-2.48285,0.458165,0.128775,-16.499,0.0391461,
2,0,0,1,0,44507.1,0.0320125,0.0317003,-3.16145,23,0.00310437,10,-0.000100219,-2.50011,0.394897,0.149406,-18.3886,0.0317003,
2,0,0,1,0,44507.3,0.0245198,0.0242407,-3.02136,23,0.00252166,10,-7.32401e-05,-2.5198,0.405678,0.145436,-17.2066,0.0242407,
2,0,0,1,0,44507.5,0.0170289,0.0167115,-2.91697,23,0.0019617,10,-4.87468e-05,-2.53507,0.460543,0.12811,-14.5941,0.0167115,
2,0,0,1,0,44507.6,0.0095397,0.00921578,-2.83405,23,0.00142051,10,-2.6118e-05,-2.54759,0.76676,0.0769472,-8.49925,0.00921578,
2,0,0,1,0,44507.8,0.00204518,0.00166913,-2.81168,23,0.000891757,10,-4.69307e-06,-2.55103,5.54141,0.0106471,-1.15882,0.00166913,
2,0,0,1,0,44507.9,0.000177222,-0.000173388,-2.78656,23,0.00076039,10,4.83158e-07,-2.55493, , , ,-0.000173388,