Folder: Figs_alphaMnO2_OER_Tafel_sleope/Figure_codes/Fig_3-5/rawdata_trumpetplot_data/after 10th (part 71)

File: 20221101_1-115_003_TrumpetPlot_ParaChange_from10_every3_06_CV_C01_2.csv
mode,ox/red,error,control changes,counter inc.,time/s,control/V,Ewe/V,<I>/mA,cycle number,(Q-Qo)/C,I Range,P/W,log(|I|),Tafel slope mV/dec,alpha_eff,dI/d(E-IR),E-IR/V,
2,0,0,0,0,5090.28,2.44065e-05,-0.000287149,-1.40199,3,0.0000000E+000,10,4.02579e-07,-2.85326, , , ,-0.0002871489,
2,1,0,1,0,5090.46,0.00729063,0.00700148,1.4202,3,0.000143405,10,9.94351e-06,-2.84765,0.0522894,1.12834,61.3893,0.00700148,
2,1,0,1,0,5090.65,0.014778,0.0144731,1.69568,3,0.000441405,10,2.45418e-05,-2.77066,0.142294,0.414635,27.3197,0.0144731,
2,1,0,1,0,5090.84,0.0222743,0.0219837,1.86947,3,0.000779254,10,4.10978e-05,-2.72828,0.183487,0.321548,23.5172,0.0219837,
2,1,0,1,0,5091.02,0.0297626,0.0294574,2.047,3,0.00114891,10,6.02992e-05,-2.68888,0.214694,0.27481,21.8954,0.02945737,
2,1,0,1,0,5091.21,0.0372544,0.0369602,2.2274,3,0.00155148,10,8.23253e-05,-2.6522,0.205132,0.28762,24.9357,0.03696024,
2,1,0,1,0,5091.4,0.0447472,0.0444537,2.41164,3,0.00198904,10,0.000107206,-2.61769,0.214641,0.274878,25.9376,0.0444537,
2,1,0,1,0,5091.58,0.0522345,0.0519248,2.60179,3,0.00246209,10,0.000135097,-2.58473,0.214187,0.27546,27.9951,0.0519248,
2,1,0,1,0,5091.77,0.0597309,0.0594026,2.79401,3,0.00297137,10,0.000165972,-2.55377,0.255934,0.230528,25.1066,0.0594026,
2,1,0,1,0,5091.96,0.0672182,0.0669312,2.96924,3,0.00351396,10,0.000198735,-2.52736,0.297078,0.198601,23.001,0.0669312,
2,1,0,1,0,5092.15,0.0747074,0.074395,3.13493,3,0.00408792,10,0.000233223,-2.50377,0.37704,0.156482,19.0778,0.074395,
2,1,0,1,0,5092.33,0.0822019,0.0819127,3.27881,3,0.00469172,10,0.000268576,-2.48428,0.409057,0.144234,18.4494,0.0819127,
2,1,0,1,0,5092.52,0.0896911,0.0893835,3.42793,3,0.00532291,10,0.000306401,-2.46497,0.365811,0.161286,21.6364,0.0893835,
2,1,0,1,0,5092.71,0.097182,0.0968501,3.63177,3,0.00598646,10,0.000351737,-2.43988,0.249767,0.23622,33.4666,0.0968501,
2,1,0,1,0,5092.9,0.104675,0.104378,3.91783,3,0.00669536,10,0.000408936,-2.40695,0.197644,0.298516,45.7077,0.104378,
2,1,0,1,0,5093.08,0.112162,0.111871,4.26386,3,0.00746454,10,0.000477001,-2.3702,0.21267,0.277425,46.1421,0.111871,
2,1,0,1,0,5093.27,0.119655,0.119367,4.59001,3,0.00829809,10,0.000547896,-2.33819,0.293064,0.201321,36.0134,0.119367,
2,1,0,1,0,5093.46,0.127146,0.126861,4.82491,3,0.0091848,10,0.000612093,-2.31651,0.374038,0.157738,29.7854,0.126861,
2,1,0,1,0,5093.64,0.134635,0.134319,5.04634,3,0.0101136,10,0.000677819,-2.29702,0.477647,0.123522,24.3204,0.134319,
2,1,0,1,0,5093.83,0.14213,0.14181,5.12749,3,0.0110745,10,0.00072713,-2.29009,-1.39774,-0.042211,-8.42167,0.14181,
2,1,0,1,0,5094.02,0.149619,0.149331,4.7819,3,0.0120147,10,0.000714088,-2.3204,-0.127366,-0.463232,-86.1322,0.149331,
2,1,0,1,0,5094.21,0.157106,0.156816,3.94399,3,0.0128385,10,0.000618479,-2.40406,-0.0735082,-0.802631,-123.243,0.156816,
2,1,0,1,0,5094.39,0.164602,0.164307,3.14965,3,0.0135009,10,0.00051751,-2.50174,-0.0857544,-0.688011,-84.8045,0.164307,
2,1,0,1,0,5094.58,0.172091,0.171772,2.65071,3,0.0140439,10,0.000455316,-2.57664,-0.116337,-0.507146,-52.7872,0.171772,
2,1,0,1,0,5094.77,0.179582,0.179251,2.35828,3,0.0145147,10,0.000422725,-2.6274,-0.164597,-0.35845,-33.0111,0.179251,
2,1,0,1,0,5094.96,0.187074,0.186751,2.15805,3,0.01494,10,0.000403017,-2.66594,-0.250254,-0.23576,-19.9087,0.186751,
2,1,0,1,0,5095.14,0.194563,0.194261,2.03779,3,0.0153355,10,0.000395861,-2.69084,-0.383807,-0.153723,-12.2413,0.194261,
2,1,0,1,0,5095.33,0.202059,0.201755,1.96187,3,0.0157124,10,0.000395816,-2.70733,-0.465618,-0.126713,-9.64411,0.201755,
2,1,0,1,0,5095.52,0.209546,0.209251,1.89609,3,0.0160763,10,0.00039676,-2.72214,-0.606009,-0.0973584,-7.23754,0.209251,
2,1,0,1,0,5095.7,0.217035,0.21673,1.85528,3,0.0164306,10,0.000402095,-2.73159,-1.02701,-0.0574486,-4.16391,0.21673,
2,1,0,1,0,5095.89,0.22453,0.224244,1.82019,3,0.0167783,10,0.000408168,-2.73988,-1.10504,-0.0533915,-3.79227,0.224244,
2,1,0,1,0,5096.08,0.232019,0.231767,1.79111,3,0.0171199,10,0.000415121,-2.74688,-1.15689,-0.0509988,-3.57761,0.231767,
2,1,0,1,0,5096.27,0.23951,0.23927,1.77611,3,0.017457,10,0.000424969,-2.75053,-1.4807,-0.0398461,-2.75038,0.23927,
2,1,0,1,0,5096.45,0.247003,0.246661,1.74935,3,0.01779,10,0.000431495,-2.75712,-1.2426,-0.047481,-3.24172,0.246661,
2,1,0,1,0,5096.64,0.25449,0.254206,1.72867,3,0.018119,10,0.000439438,-2.76229,-1.25574,-0.0469841,-3.17668,0.254206,
2,1,0,1,0,5096.83,0.261983,0.261715,1.71499,3,0.0184447,10,0.000448839,-2.76574,-1.3985,-0.0421881,-2.81783,0.261715,
2,1,0,1,0,5097.02,0.269474,0.269186,1.69072,3,0.018767,10,0.000455118,-2.77193,-3.21873,-0.0183302,-1.21502,0.269186,
2,1,0,1,0,5097.2,0.276963,0.276666,1.67859,3,0.0190857,10,0.000464408,-2.77506,-1.46518,-0.0402681,-2.63265,0.276666,
2,1,0,1,0,5097.39,0.284458,0.284162,1.66233,3,0.0194014,10,0.000472373,-2.77928,-1.43939,-0.0409895,-2.64786,0.284162,
2,1,0,1,0,5097.58,0.291947,0.291673,1.63847,3,0.0197134,10,0.000477897,-2.78556,-1.61873,-0.0364484,-2.33885,0.291673,
2,1,0,1,0,5097.76,0.299434,0.299148,1.62026,3,0.0200219,10,0.000484697,-2.79042,-0.0106874,-5.52051,-276.391,0.299148,
2,0,0,1,0,5097.92,0.294196,0.293904,-0.451874,3,0.0200305,10,-0.000132808,-3.34498,-0.0232167,-2.54128,42.9547,0.293904,
2,0,0,1,0,5098.11,0.286701,0.286391,-0.649154,3,0.019921,10,-0.000185912,-3.18765,-0.0782864,-0.753644,19.101,0.286391,
2,0,0,1,0,5098.3,0.279212,0.278897,-0.771079,3,0.0197836,10,-0.000215051,-3.1129,-0.133837,-0.440836,13.1498,0.2788969,
2,0,0,1,0,5098.49,0.271725,0.271485,-0.856914,3,0.0196273,10,-0.00023264,-3.06706,-0.17031,-0.346427,11.6371,0.271485,
2,0,0,1,0,5098.67,0.264228,0.263942,-0.931207,3,0.019456,10,-0.000245784,-3.03095,-0.262019,-0.225174,8.16567,0.263942,
2,0,0,1,0,5098.86,0.256741,0.256472,-0.995123,3,0.0192723,10,-0.000255221,-3.00212,-0.310879,-0.189785,7.30497,0.256472,
2,0,0,1,0,5099.05,0.249248,0.248927,-1.04554,3,0.0190775,10,-0.000260262,-2.98066,-0.345534,-0.17075,7.00944,0.248927,
2,0,0,1,0,5099.23,0.241756,0.241454,-1.09657,3,0.0188725,10,-0.000264772,-2.95996,-0.380949,-0.154876,6.65383,0.241454,
2,0,0,1,0,5099.42,0.234268,0.233964,-1.14964,3,0.0186582,10,-0.000268974,-2.93944,-0.347205,-0.169929,7.6477,0.233964,
2,0,0,1,0,5099.61,0.226772,0.22648,-1.19552,3,0.0184343,10,-0.000270761,-2.92244,-0.331172,-0.178155,8.35762,0.22648,
2,0,0,1,0,5099.8,0.219284,0.218992,-1.25125,3,0.0182016,10,-0.000274013,-2.90266,-0.484538,-0.121765,5.92304,0.218992,
2,0,0,1,0,5099.98,0.211796,0.211519,-1.30162,3,0.0179596,10,-0.000275318,-2.88551,-0.493594,-0.119531,6.04613,0.211519,
2,0,0,1,0,5100.17,0.204301,0.204019,-1.35124,3,0.0177073,10,-0.00027568,-2.86927,-0.536607,-0.10995,5.82499,0.204019,
2,0,0,1,0,5100.36,0.196812,0.196515,-1.41521,3,0.0174452,10,-0.00027811,-2.84918,-0.404293,-0.145934,8.03263,0.196515,
2,0,0,1,0,5100.55,0.189321,0.188986,-1.4822,3,0.0171706,10,-0.000280116,-2.82909,-0.337947,-0.174584,10.1195,0.188986,
2,0,0,1,0,5100.73,0.181828,0.181526,-1.57383,3,0.0168814,10,-0.000285692,-2.80304,-0.256152,-0.230332,14.1283,0.181526,
2,0,0,1,0,5100.92,0.174341,0.174039,-1.68843,3,0.0165736,10,-0.000293852,-2.77252,-0.208273,-0.283283,18.6463,0.174039,
2,0,0,1,0,5101.11,0.166848,0.166531,-1.85402,3,0.0162398,10,-0.000308751,-2.73189,-0.167733,-0.351749,25.4017,0.166531,
2,0,0,1,0,5101.29,0.159357,0.159099,-2.09717,3,0.0158683,10,-0.000333657,-2.67837,-0.120208,-0.490817,40.2553,0.1590991,
2,0,0,1,0,5101.48,0.151868,0.151564,-2.48873,3,0.0154382,10,-0.000377202,-2.60402,-0.0882914,-0.668242,65.1132,0.151564,
2,0,0,1,0,5101.67,0.144373,0.144035,-3.09454,3,0.0149144,10,-0.000445724,-2.5094,-0.0732773,-0.80516,97.6372,0.144035,
2,0,0,1,0,5101.86,0.136884,0.136567,-3.88165,3,0.0142582,10,-0.000530105,-2.41098,-0.0830305,-0.710583,107.38,0.136567,
2,0,0,1,0,5102.04,0.129393,0.129074,-4.60085,3,0.0134576,10,-0.000593852,-2.33716,-0.12726,-0.463617,83.0144,0.129074,
2,0,0,1,0,5102.23,0.1219,0.121581,-5.06383,3,0.012544,10,-0.000615665,-2.29552,-0.2916,-0.202332,39.9026,0.121581,
2,0,0,1,0,5102.42,0.114413,0.114096,-5.23302,3,0.0115724,10,-0.000597066,-2.28125,-2.33283,-0.0252912,5.15233,0.1140958,
2,0,0,1,0,5102.61,0.10692,0.106616,-5.15429,3,0.010593,10,-0.000549531,-2.28783,0.487243,0.121089,-24.3337,0.106616,
2,0,0,1,0,5102.79,0.0994284,0.0991109,-4.90487,3,0.00964494,10,-0.000486126,-2.30937,0.277844,0.212349,-40.6649,0.0991109,
2,0,0,1,0,5102.98,0.0919401,0.0916205,-4.58774,3,0.00875317,10,-0.000420331,-2.3384,0.251511,0.234582,-41.9359,0.0916205,
2,0,0,1,0,5103.17,0.0844447,0.0841086,-4.29932,3,0.00791883,10,-0.00036161,-2.3666,0.31237,0.188879,-31.7139,0.0841086,
2,0,0,1,0,5103.35,0.0769565,0.0766439,-4.10027,3,0.00713041,10,-0.000314261,-2.38719,0.390657,0.151028,-24.1818,0.0766439,
2,0,0,1,0,5103.54,0.0694682,0.0691704,-3.9521,3,0.00637391,10,-0.000273368,-2.40317,0.468965,0.125809,-19.3964,0.0691704,
2,0,0,1,0,5103.73,0.0619728,0.0616152,-3.81349,3,0.00564244,10,-0.000234969,-2.41868,0.480042,0.122906,-18.3263,0.0616152,
2,0,0,1,0,5103.92,0.0544836,0.0541076,-3.68054,3,0.00493684,10,-0.000199145,-2.43409,0.536968,0.109876,-15.7867,0.0541076,
2,0,0,1,0,5104.1,0.0469927,0.046679,-3.53951,3,0.00425714,10,-0.000165221,-2.45106,0.389182,0.1516,-20.8812,0.046679,
2,0,0,1,0,5104.29,0.0394999,0.0391767,-3.36681,3,0.00360743,10,-0.000131901,-2.47278,0.32536,0.181337,-23.8067,0.0391767,
2,0,0,1,0,5104.48,0.0320125,0.0317044,-3.18507,3,0.00299123,10,-0.000100981,-2.49688,0.297825,0.198103,-24.5858,0.0317044,
2,0,0,1,0,5104.67,0.0245198,0.0241729,-3.01356,3,0.00240753,10,-7.28466e-05,-2.52092,0.347362,0.169852,-19.9929,0.0241729,
2,0,0,1,0,5104.85,0.0170289,0.0167287,-2.8861,3,0.0018518,10,-4.82806e-05,-2.53969,0.502495,0.117414,-13.2864,0.0167287,
2,0,0,1,0,5105.04,0.0095397,0.00921169,-2.81158,3,0.00131572,10,-2.58994e-05,-2.55105,0.970937,0.0607661,-6.65727,0.00921169,
2,0,0,1,0,5105.23,0.00204518,0.00169538,-2.82021,3,0.00078981,10,-4.78131e-06,-2.54972,-7.18755,-0.00820864,0.889143,0.00169538,
2,0,0,1,0,5105.27,0.000177222,-0.000231032,-2.77723,3,0.000658328,10,6.4163e-07,-2.55639, , , ,-0.000231032,

File: 20221101_1-115_003_TrumpetPlot_ParaChange_from10_every3_06_CV_C01_3.csv
mode,ox/red,error,control changes,counter inc.,time/s,control/V,Ewe/V,<I>/mA,cycle number,(Q-Qo)/C,I Range,P/W,log(|I|),Tafel slope mV/dec,alpha_eff,dI/d(E-IR),E-IR/V,
2,0,0,0,0,7060.41,2.44065e-05,-0.000325324,-1.38799,4,0.0000000E+000,10,4.51547e-07,-2.85761, , , ,-0.000325324,
2,1,0,1,0,7060.59,0.00729063,0.00694882,1.46065,4,0.000145744,10,1.01498e-05,-2.83545,0.0516036,1.14333,63.4062,0.00694882,
2,1,0,1,0,7060.78,0.014778,0.0144472,1.73224,4,0.000451312,10,2.5026e-05,-2.76139,0.134381,0.439051,29.7706,0.0144472,
2,1,0,1,0,7060.97,0.0222743,0.0219901,1.92996,4,0.000798423,10,4.244e-05,-2.71445,0.178135,0.33121,24.8312,0.0219901,
2,1,0,1,0,7061.15,0.0297626,0.0294799,2.10564,4,0.00117848,10,6.20739e-05,-2.67662,0.195512,0.301772,24.711,0.0294799,
2,1,0,1,0,7061.34,0.0372544,0.036948,2.28352,4,0.00159253,10,8.43715e-05,-2.6414,0.225134,0.262066,23.3919,0.036948,
2,1,0,1,0,7061.53,0.0447472,0.0444794,2.47786,4,0.00204145,10,0.000110214,-2.60592,0.234658,0.251429,24.2285,0.0444794,
2,1,0,1,0,7061.71,0.0522345,0.0519371,2.65455,4,0.00252485,10,0.00013787,-2.57601,0.237941,0.24796,25.7465,0.0519371,
2,1,0,1,0,7061.9,0.0597309,0.05944,2.8334,4,0.00304297,10,0.000168417,-2.54769,0.268311,0.219894,24.3176,0.05944,
2,1,0,1,0,7062.09,0.0672182,0.0669369,3.00293,4,0.00359228,10,0.000201007,-2.52245,0.310648,0.189926,22.1813,0.0669369,
2,1,0,1,0,7062.28,0.0747074,0.0744157,3.1506,4,0.00417141,10,0.000234454,-2.50161,0.419848,0.140527,17.2915,0.0744157,
2,1,0,1,0,7062.46,0.0822019,0.0819185,3.29025,4,0.00477847,10,0.000269532,-2.48277,0.427916,0.137878,17.7037,0.0819185,
2,1,0,1,0,7062.65,0.0896911,0.0894013,3.43764,4,0.00541131,10,0.00030733,-2.46374,0.360717,0.163563,21.9604,0.0894013,
2,1,0,1,0,7062.84,0.097182,0.0968742,3.63439,4,0.00607606,10,0.000352078,-2.43957,0.235466,0.250567,35.6452,0.0968742,
2,1,0,1,0,7063.03,0.104675,0.104357,3.93665,4,0.00678682,10,0.000410818,-2.40487,0.205014,0.287786,44.1359,0.104357,
2,1,0,1,0,7063.21,0.112162,0.111856,4.2762,4,0.00755808,10,0.000478318,-2.36894,0.22496,0.262269,43.7038,0.111856,
2,1,0,1,0,7063.4,0.119655,0.119343,4.57249,4,0.00839124,10,0.000545694,-2.33985,0.323669,0.182285,32.517,0.119343,
2,1,0,1,0,7063.59,0.127146,0.126836,4.78879,4,0.0092724,10,0.000607393,-2.31977,0.416287,0.141729,26.4781,0.126836,
2,1,0,1,0,7063.77,0.134635,0.134324,4.97928,4,0.0101916,10,0.000668839,-2.30283,0.55794,0.105746,20.5859,0.134324,
2,1,0,1,0,7063.96,0.14213,0.141829,5.03112,4,0.0111381,10,0.00071356,-2.29834,-0.7243,-0.081458,-15.9383,0.141829,
2,1,0,1,0,7064.15,0.149619,0.149317,4.61149,4,0.012053,10,0.000688574,-2.33616,-0.113266,-0.520896,-93.212,0.149317,
2,1,0,1,0,7064.34,0.157106,0.156796,3.75396,4,0.0128414,10,0.000588607,-2.42551,-0.0753938,-0.782557,-114.672,0.156796,
2,1,0,1,0,7064.52,0.164602,0.164269,3.02605,4,0.0134748,10,0.000497088,-2.51912,-0.0923524,-0.638857,-75.6425,0.1642694,
2,1,0,1,0,7064.71,0.172091,0.171817,2.57756,4,0.0139994,10,0.000442869,-2.58879,-0.127073,-0.464299,-46.872,0.171817,
2,1,0,1,0,7064.9,0.179582,0.17925,2.30055,4,0.0144581,10,0.000412373,-2.63817,-0.180972,-0.326017,-29.4712,0.17925,
2,1,0,1,0,7065.09,0.187074,0.186751,2.13021,4,0.0148751,10,0.000397818,-2.67158,-0.276242,-0.213581,-17.6758,0.186751,
2,1,0,1,0,7065.27,0.194563,0.194279,2.0131,4,0.0152648,10,0.000391104,-2.69613,-0.352891,-0.167191,-13.1481,0.194279,
2,1,0,1,0,7065.46,0.202059,0.201774,1.93376,4,0.0156372,10,0.000390181,-2.7136,-0.455175,-0.12962,-9.78498,0.201774,
2,1,0,1,0,7065.65,0.209546,0.209222,1.8847,4,0.0159974,10,0.000394321,-2.72476,-0.549502,-0.10737,-7.87922,0.209222,
2,1,0,1,0,7065.83,0.217035,0.21671,1.83207,4,0.0163486,10,0.000397028,-2.73706,-0.807364,-0.0730773,-5.25334,0.21671,
2,1,0,1,0,7066.02,0.22453,0.224243,1.81099,4,0.0166935,10,0.000406103,-2.74208,-0.881748,-0.0669126,-4.71991,0.224243,
2,1,0,1,0,7066.21,0.232019,0.231737,1.78739,4,0.0170326,10,0.000414206,-2.74778,-2.27309,-0.0259558,-1.80418,0.231737,
2,1,0,1,0,7066.4,0.23951,0.239251,1.76066,4,0.0173675,10,0.00042124,-2.75432,-1.4517,-0.0406419,-2.79755,0.239251,
2,1,0,1,0,7066.58,0.247003,0.246696,1.74419,4,0.0176986,10,0.000430285,-2.75841,-0.979172,-0.060255,-4.08016,0.246696,
2,1,0,1,0,7066.77,0.25449,0.254201,1.72238,4,0.0180259,10,0.000437829,-2.76387,-1.17342,-0.0502804,-3.37633,0.254201,
2,1,0,1,0,7066.96,0.261983,0.261674,1.70294,4,0.0183499,10,0.000445614,-2.7688,-1.91861,-0.0307514,-2.04621,0.261674,
2,1,0,1,0,7067.15,0.269474,0.269182,1.68721,4,0.0186705,10,0.000454167,-2.77283,-2.02698,-0.0291074,-1.9122,0.269182,
2,1,0,1,0,7067.33,0.276963,0.276672,1.66576,4,0.0189878,10,0.000460871,-2.77839,-1.62077,-0.0364025,-2.3733,0.276672,
2,1,0,1,0,7067.52,0.284458,0.284198,1.64915,4,0.0193022,10,0.000468687,-2.78274,-3.12062,-0.0189065,-1.21915,0.284198,
2,1,0,1,0,7067.71,0.291947,0.291636,1.63375,4,0.0196129,10,0.000476462,-2.78681,-0.921891,-0.0639989,-4.07601,0.291636,
2,1,0,1,0,7067.89,0.299434,0.299089,1.61245,4,0.0199201,10,0.000482266,-2.79251,-0.0102419,-5.76065,-287.392,0.299089,
2,0,0,1,0,7068.05,0.294196,0.293906,-0.477247,4,0.0199266,10,-0.000140266,-3.32126,-0.0245438,-2.40387,42.1293,0.293906,
2,0,0,1,0,7068.24,0.286701,0.286373,-0.668922,4,0.019813,10,-0.000191561,-3.17462,-0.0800304,-0.737219,19.2998,0.286373,
2,0,0,1,0,7068.43,0.279212,0.278962,-0.785784,4,0.0196718,10,-0.000219204,-3.1047,-0.137313,-0.429676,13.2616,0.278962,
2,0,0,1,0,7068.62,0.271725,0.271394,-0.877941,4,0.0195121,10,-0.000238268,-3.05653,-0.160458,-0.367698,12.4679,0.271394,
2,0,0,1,0,7068.8,0.264228,0.263907,-0.944468,4,0.0193376,10,-0.000249252,-3.02481,-0.244499,-0.241309,8.90693,0.263907,
2,0,0,1,0,7068.99,0.256741,0.256441,-1.00567,4,0.019151,10,-0.000257895,-2.99754,-0.315373,-0.18708,7.34387,0.256441,
2,0,0,1,0,7069.18,0.249248,0.248973,-1.06354,4,0.0189534,10,-0.000264792,-2.97325,-0.364563,-0.161838,6.69442,0.248973,
2,0,0,1,0,7069.36,0.241756,0.241462,-1.10547,4,0.0187459,10,-0.00026693,-2.95645,-0.358057,-0.164778,7.19781,0.241462,
2,0,0,1,0,7069.55,0.234268,0.233958,-1.16261,4,0.0185293,10,-0.000272001,-2.93457,-0.357464,-0.165052,7.49071,0.233958,
2,0,0,1,0,7069.74,0.226772,0.226472,-1.21231,4,0.0183033,10,-0.000274555,-2.91638,-0.329827,-0.178882,8.41564,0.226472,
2,0,0,1,0,7069.93,0.219284,0.218979,-1.25868,4,0.0180688,10,-0.000275625,-2.90008,-0.458475,-0.128688,6.32587,0.218979,
2,0,0,1,0,7070.11,0.211796,0.211519,-1.30986,4,0.0178253,10,-0.000277059,-2.88278,-0.5967,-0.0988772,5.02779,0.211519,
2,0,0,1,0,7070.3,0.204301,0.203992,-1.357,4,0.0175718,10,-0.000276819,-2.86742,-0.611396,-0.0965005,5.12454,0.2039925,
2,0,0,1,0,7070.49,0.196812,0.196502,-1.40629,4,0.0173089,10,-0.00027634,-2.85192,-0.396923,-0.148644,8.24408,0.196502,
2,0,0,1,0,7070.68,0.189321,0.189019,-1.48061,4,0.0170343,10,-0.000279863,-2.82956,-0.379732,-0.155373,8.95623,0.189019,
2,0,0,1,0,7070.86,0.181828,0.181499,-1.56043,4,0.0167462,10,-0.000283216,-2.80676,-0.257896,-0.228774,13.9554,0.1814986,
2,0,0,1,0,7071.05,0.174341,0.174026,-1.66687,4,0.0164408,10,-0.000290078,-2.7781,-0.232119,-0.25418,16.5694,0.174026,
2,0,0,1,0,7071.24,0.166848,0.166535,-1.8228,4,0.0161118,10,-0.000303561,-2.73926,-0.182538,-0.32322,22.8414,0.166535,
2,0,0,1,0,7071.42,0.159357,0.159049,-2.03205,4,0.015749,10,-0.000323195,-2.69207,-0.129159,-0.456801,36.4091,0.159049,
2,0,0,1,0,7071.61,0.151868,0.151529,-2.38472,4,0.0153337,10,-0.000361354,-2.62256,-0.0936636,-0.629914,58.8623,0.151529,
2,0,0,1,0,7071.8,0.144373,0.144081,-2.94521,4,0.014834,10,-0.000424349,-2.53088,-0.0748367,-0.788383,90.8033,0.144081,
2,0,0,1,0,7071.99,0.136884,0.136539,-3.69538,4,0.0142097,10,-0.000504563,-2.43234,-0.0797544,-0.739771,106.807,0.136539,
2,0,0,1,0,7072.17,0.129393,0.129083,-4.44404,4,0.0134416,10,-0.000573652,-2.35222,-0.118135,-0.499427,86.1875,0.1290835,
2,0,0,1,0,7072.36,0.1219,0.121581,-4.94484,4,0.0125544,10,-0.000601199,-2.30585,-0.24652,-0.239332,46.081,0.121581,
2,0,0,1,0,7072.55,0.114413,0.114079,-5.16012,4,0.0116004,10,-0.000588659,-2.28734,-1.17076,-0.0503947,10.1366,0.114079,
2,0,0,1,0,7072.74,0.10692,0.106612,-5.1265,4,0.0106303,10,-0.000546548,-2.29018,0.613309,0.0961995,-19.2014,0.106612,
2,0,0,1,0,7072.92,0.0994284,0.0991324,-4.89902,4,0.00968504,10,-0.000485652,-2.30989,0.285021,0.207002,-39.6305,0.0991324,
2,0,0,1,0,7073.11,0.0919401,0.0916604,-4.5881,4,0.00879254,10,-0.000420547,-2.33837,0.250161,0.235848,-42.2715,0.0916604,
2,0,0,1,0,7073.3,0.0844447,0.0841502,-4.30937,4,0.00795669,10,-0.000362634,-2.36559,0.328927,0.179371,-30.149,0.08415021,
2,0,0,1,0,7073.48,0.0769565,0.0766295,-4.10694,4,0.00716673,10,-0.000314713,-2.38648,0.391921,0.150541,-24.1537,0.07662946,
2,0,0,1,0,7073.67,0.0694682,0.0691339,-3.95936,4,0.00640851,10,-0.000273726,-2.40238,0.534067,0.110473,-17.0756,0.0691339,
2,0,0,1,0,7073.86,0.0619728,0.0616788,-3.83137,4,0.00567463,10,-0.000236314,-2.41665,0.474844,0.124251,-18.5871,0.0616788,
2,0,0,1,0,7074.05,0.0544836,0.0541403,-3.69807,4,0.00496574,10,-0.000200215,-2.43202,0.534381,0.110408,-15.9655,0.0541403,
2,0,0,1,0,7074.23,0.0469927,0.0466571,-3.56602,4,0.00428171,10,-0.00016638,-2.44782,0.436579,0.135142,-18.759,0.0466571,
2,0,0,1,0,7074.42,0.0394999,0.0391524,-3.40439,4,0.00362586,10,-0.00013329,-2.46796,0.348251,0.169418,-22.4828,0.0391524,
2,0,0,1,0,7074.61,0.0320125,0.0316919,-3.22541,4,0.00300161,10,-0.00010222,-2.49142,0.323776,0.182225,-22.9682,0.0316919,
2,0,0,1,0,7074.8,0.0245198,0.0241799,-3.06643,4,0.00240913,10,-7.41462e-05,-2.51337,0.319445,0.184695,-22.0583,0.0241799,
2,0,0,1,0,7074.98,0.0170289,0.0167048,-2.92088,4,0.00184531,10,-4.87927e-05,-2.53449,0.442007,0.133482,-15.2761,0.0167048,
2,0,0,1,0,7075.17,0.0095397,0.00923896,-2.83216,4,0.00130292,10,-2.61662e-05,-2.54788,0.892838,0.0660814,-7.31461,0.00923896,
2,0,0,1,0,7075.36,0.00204518,0.00165652,-2.84292,4,0.000772599,10,-4.70936e-06,-2.54624,4.76957,0.0123701,-1.34794,0.00165652,
2,0,0,1,0,7075.4,0.000177222,-0.00021958,-2.78948,4,0.000640275,10,6.12513e-07,-2.55448, , , ,-0.00021958,