Folder: Figs_alphaMnO2_OER_Tafel_sleope/Figure_codes/Fig_3-5/rawdata_trumpetplot_data/after 10th (part 96)

File: 20221101_1-115_003_TrumpetPlot_ParaChange_from10_every3_07_CV_C01_18.csv
mode,ox/red,error,control changes,counter inc.,time/s,control/V,Ewe/V,<I>/mA,cycle number,(Q-Qo)/C,I Range,P/W,log(|I|),Tafel slope mV/dec,alpha_eff,dI/d(E-IR),E-IR/V,
2,0,0,0,0,36627.4,2.44065e-05,-0.000382585,-2.73002,19,0.0000000E+000,10,1.04447e-06,-2.56383, , , ,-0.000382585,
2,1,0,1,0,36627.5,0.007288,0.00695975,1.01885,19,-2.79895e-05,10,7.09095e-06,-2.99189,0.0101925,5.78857,201.969,0.00695975,
2,1,0,1,0,36627.6,0.0147816,0.0144575,1.90561,19,0.000165811,10,2.75505e-05,-2.71996,0.0601323,0.981171,72.3671,0.0144575,
2,1,0,1,0,36627.7,0.0222712,0.0219248,2.32563,19,0.000433914,10,5.0989e-05,-2.63346,0.12152,0.485517,43.925,0.0219248,
2,1,0,1,0,36627.9,0.0297648,0.029464,2.62799,19,0.000745114,10,7.7431e-05,-2.58038,0.170648,0.345741,35.2519,0.029464,
2,1,0,1,0,36628,0.0372518,0.0369437,2.88555,19,0.00109072,10,0.000106603,-2.53977,0.189369,0.31156,35.0679,0.0369437,
2,1,0,1,0,36628.1,0.0447467,0.0444429,3.13191,19,0.00146887,10,0.000139191,-2.50419,0.222463,0.265212,32.494,0.0444429,
2,1,0,1,0,36628.2,0.052235,0.0519311,3.38421,19,0.00187778,10,0.000175746,-2.47054,0.239552,0.246293,32.5042,0.0519311,
2,1,0,1,0,36628.4,0.0597299,0.0594145,3.62193,19,0.00231698,10,0.000215195,-2.44106,0.273884,0.21542,30.3365,0.0594145,
2,1,0,1,0,36628.5,0.0672156,0.0669082,3.83345,19,0.00278356,10,0.000256489,-2.41641,0.291527,0.202382,30.214,0.0669082,
2,1,0,1,0,36628.6,0.0747105,0.0744013,4.0181,19,0.00327594,10,0.000298952,-2.39598,0.380051,0.155243,24.3542,0.0744013,
2,1,0,1,0,36628.7,0.0821988,0.0818884,4.18425,19,0.00379019,10,0.000342641,-2.37838,0.533236,0.110645,18.0662,0.0818884,
2,1,0,1,0,36628.9,0.0896937,0.0893449,4.33877,19,0.0043241,10,0.000387647,-2.36263,0.520025,0.113456,19.2015,0.0893449,
2,1,0,1,0,36629,0.0971794,0.0968334,4.5133,19,0.0048778,10,0.000437038,-2.34551,0.333486,0.176919,31.1801,0.0968334,
2,1,0,1,0,36629.1,0.104674,0.104341,4.78783,19,0.00545926,10,0.000499568,-2.31986,0.242286,0.243514,45.5101,0.104341,
2,1,0,1,0,36629.2,0.112163,0.111838,5.14631,19,0.00608066,10,0.000575553,-2.2885,0.229121,0.257506,51.7566,0.111838,
2,1,0,1,0,36629.4,0.119657,0.119368,5.52798,19,0.00674973,10,0.000659864,-2.25743,0.295895,0.199395,42.9465,0.119368,
2,1,0,1,0,36629.5,0.127143,0.126863,5.80868,19,0.00745999,10,0.000736904,-2.23592,0.425168,0.138769,31.4378,0.126863,
2,1,0,1,0,36629.6,0.134638,0.134259,5.99602,19,0.00820017,10,0.000805022,-2.22214,0.623895,0.0945673,22.1458,0.134259,
2,1,0,1,0,36629.7,0.142126,0.141805,6.08708,19,0.00895824,10,0.00086318,-2.21559,11.7899,0.00500428,1.18787,0.141805,
2,1,0,1,0,36629.9,0.149621,0.149293,5.89187,19,0.00971332,10,0.000879617,-2.22975,-0.217618,-0.271117,-62.1027,0.149293,
2,1,0,1,0,36630,0.157107,0.156751,5.19136,19,0.010411,10,0.00081375,-2.28472,-0.0986513,-0.598066,-120.65,0.156751,
2,1,0,1,0,36630.1,0.164602,0.164304,4.26814,19,0.0110023,10,0.000701272,-2.36976,-0.0898004,-0.657013,-109.647,0.164304,
2,1,0,1,0,36630.2,0.17209,0.171819,3.57777,19,0.0114911,10,0.000614729,-2.44639,-0.115248,-0.511938,-71.8568,0.171819,
2,1,0,1,0,36630.4,0.179585,0.179283,3.1643,19,0.0119124,10,0.000567305,-2.49972,-0.165685,-0.356097,-44.0803,0.179283,
2,1,0,1,0,36630.5,0.187072,0.186725,2.9156,19,0.0122924,10,0.000544415,-2.53527,-0.266898,-0.221059,-25.1606,0.186725,
2,1,0,1,0,36630.6,0.194566,0.194285,2.76167,19,0.012648,10,0.000536551,-2.55883,-0.448624,-0.131513,-14.1715,0.194285,
2,1,0,1,0,36630.7,0.202055,0.201755,2.65862,19,0.0129876,10,0.000536388,-2.57534,-0.572403,-0.103074,-10.6996,0.201755,
2,1,0,1,0,36630.9,0.209549,0.209255,2.59168,19,0.0133171,10,0.000542322,-2.58642,-0.617005,-0.0956233,-9.68506,0.209255,
2,1,0,1,0,36631,0.217036,0.216716,2.54128,19,0.0136389,10,0.000550736,-2.59495,-0.831489,-0.070957,-7.02767,0.2167163,
2,1,0,1,0,36631.1,0.224529,0.224264,2.50163,19,0.0139556,10,0.000561025,-2.60178,-1.14267,-0.0516336,-5.04324,0.224264,
2,1,0,1,0,36631.2,0.232019,0.231707,2.46951,19,0.0142677,10,0.000572204,-2.60739,-4.39205,-0.0134334,-1.29622,0.231707,
2,1,0,1,0,36631.4,0.239513,0.239184,2.44638,19,0.0145766,10,0.000585133,-2.61148,-2.17417,-0.0271368,-2.59319,0.239184,
2,1,0,1,0,36631.5,0.247001,0.246654,2.42404,19,0.0148824,10,0.000597898,-2.61546,-1.3364,-0.0441485,-4.17104,0.246654,
2,1,0,1,0,36631.6,0.254493,0.254176,2.40609,19,0.0151857,10,0.000611572,-2.61869,-2.48344,-0.0237574,-2.22866,0.254176,
2,1,0,1,0,36631.7,0.261983,0.261644,2.37899,19,0.0154863,10,0.000622448,-2.62361,-4.83027,-0.0122146,-1.13744,0.261644,
2,1,0,1,0,36631.9,0.269477,0.26918,2.36205,19,0.0157848,10,0.000635816,-2.62671,-3.72767,-0.0158276,-1.46181,0.26918,
2,1,0,1,0,36632,0.276965,0.276734,2.3491,19,0.0160808,10,0.000650076,-2.6291,-1.78544,-0.0330451,-3.02798,0.276734,
2,1,0,1,0,36632.1,0.284457,0.284167,2.33274,19,0.0163745,10,0.000662888,-2.63213,-3.55208,-0.01661,-1.50846,0.284167,
2,1,0,1,0,36632.2,0.291947,0.291623,2.31283,19,0.0166655,10,0.000674472,-2.63586,-2.61954,-0.0225231,-2.02806,0.291623,
2,1,0,1,0,36632.4,0.29944,0.299173,2.28393,19,0.0169542,10,0.000683293,-2.64132,-0.00805269,-7.32674,-513.644,0.299173,
2,0,0,1,0,36632.5,0.293742,0.293429,-0.371423,19,0.0170163,10,-0.000108986,-3.43013,-0.00455585,-12.9504,120.467,0.293429,
2,0,0,1,0,36632.6,0.286254,0.285906,-0.838158,19,0.0169329,10,-0.000239634,-3.07667,-0.0532378,-1.10823,36.0301,0.285906,
2,0,0,1,0,36632.7,0.278761,0.278447,-1.05097,19,0.0168117,10,-0.000292638,-2.97841,-0.102499,-0.575613,23.4873,0.278447,
2,0,0,1,0,36632.8,0.271272,0.270985,-1.18908,19,0.0166697,10,-0.000322223,-2.92479,-0.153519,-0.384316,17.8097,0.270985,
2,0,0,1,0,36633,0.263778,0.263452,-1.29513,19,0.0165119,10,-0.000341205,-2.88769,-0.224345,-0.262988,13.3335,0.263452,
2,0,0,1,0,36633.1,0.25629,0.255975,-1.3953,19,0.0163418,10,-0.000357163,-2.85533,-0.355487,-0.165969,8.98915,0.2559754,
2,0,0,1,0,36633.2,0.248797,0.248483,-1.47431,19,0.0161609,10,-0.000366341,-2.83141,-0.325374,-0.18133,10.4053,0.248483,
2,0,0,1,0,36633.3,0.241308,0.240962,-1.54483,19,0.0159706,10,-0.000372246,-2.81112,-0.311207,-0.189584,11.4311,0.240962,
2,0,0,1,0,36633.5,0.233814,0.233502,-1.60896,19,0.0157714,10,-0.000375695,-2.79346,-0.424308,-0.13905,8.7584,0.233502,
2,0,0,1,0,36633.6,0.226326,0.226022,-1.67669,19,0.015564,10,-0.000378968,-2.77555,-0.518967,-0.113687,7.44338,0.226022,
2,0,0,1,0,36633.7,0.218834,0.218511,-1.74334,19,0.0153486,10,-0.00038094,-2.75862,-0.428,-0.13785,9.35439,0.218511,
2,0,0,1,0,36633.8,0.211344,0.211051,-1.80203,19,0.0151256,10,-0.000380321,-2.74424,-0.445671,-0.132385,9.29018,0.211051,
2,0,0,1,0,36634,0.203856,0.203522,-1.86214,19,0.0148947,10,-0.000378987,-2.72999,-0.495166,-0.119152,8.68163,0.2035218,
2,0,0,1,0,36634.1,0.196362,0.196033,-1.92925,19,0.0146558,10,-0.000378196,-2.71461,-0.598672,-0.0985515,7.4204,0.196033,
2,0,0,1,0,36634.2,0.18887,0.188554,-2.00162,19,0.0144085,10,-0.000377414,-2.69862,-0.465441,-0.126761,9.87963,0.188554,
2,0,0,1,0,36634.3,0.18138,0.181045,-2.08103,19,0.0141522,10,-0.000376761,-2.68172,-0.372054,-0.158579,12.8602,0.181045,
2,0,0,1,0,36634.5,0.173892,0.173549,-2.17344,19,0.0138851,10,-0.000377199,-2.66285,-0.311712,-0.189277,16.0345,0.173549,
2,0,0,1,0,36634.6,0.166398,0.166094,-2.28449,19,0.0136048,10,-0.00037944,-2.64121,-0.303665,-0.194293,17.3773,0.166094,
2,0,0,1,0,36634.7,0.158905,0.158562,-2.44685,19,0.0133074,10,-0.000387977,-2.61139,-0.240271,-0.245556,23.4934,0.158562,
2,0,0,1,0,36634.8,0.151417,0.151071,-2.68993,19,0.0129856,10,-0.00040637,-2.57026,-0.154349,-0.38225,40.1963,0.151071,
2,0,0,1,0,36635,0.143927,0.143594,-3.07136,19,0.0126254,10,-0.000441029,-2.51267,-0.10269,-0.574543,69.1719,0.143594,
2,0,0,1,0,36635.1,0.136435,0.136117,-3.6705,19,0.0122034,10,-0.000499616,-2.43527,-0.0917318,-0.643179,92.3782,0.136117,
2,0,0,1,0,36635.2,0.128941,0.128603,-4.40871,19,0.011697,10,-0.000566972,-2.35569,-0.102148,-0.577595,99.1617,0.128603,
2,0,0,1,0,36635.3,0.121453,0.121146,-5.10093,19,0.0111006,10,-0.00061796,-2.29235,-0.141734,-0.416274,82.6348,0.121146,
2,0,0,1,0,36635.5,0.113963,0.113648,-5.63876,19,0.0104267,10,-0.000640833,-2.24882,-0.211797,-0.278568,61.2123,0.113648,
2,0,0,1,0,36635.6,0.106471,0.106164,-5.99032,19,0.009696,10,-0.000635958,-2.22255,-0.405303,-0.14557,34.0166,0.106164,
2,0,0,1,0,36635.7,0.0989825,0.0986736,-6.1189,19,0.0089355,10,-0.000603774,-2.21333,-8.91913,-0.00661499,1.578,0.0986736,
2,0,0,1,0,36635.8,0.0914889,0.0911844,-6.03403,19,0.00817286,10,-0.000550209,-2.21939,0.660751,0.0892923,-20.9956,0.09118443,
2,0,0,1,0,36636,0.0839993,0.0836455,-5.82209,19,0.00743067,10,-0.000486991,-2.23492,0.477195,0.123639,-28.077,0.0836455,
2,0,0,1,0,36636.1,0.076507,0.0761824,-5.62455,19,0.00671417,10,-0.000428492,-2.24991,0.551395,0.107001,-23.4976,0.07618241,
2,0,0,1,0,36636.2,0.0690187,0.0687248,-5.47145,19,0.00601975,10,-0.000376024,-2.2619,0.681494,0.0865745,-18.5099,0.0687248,
2,0,0,1,0,36636.3,0.0615251,0.0612388,-5.34873,19,0.00534157,10,-0.000327549,-2.27175,0.664931,0.088731,-18.5217,0.0612388,
2,0,0,1,0,36636.5,0.0540355,0.0536944,-5.22599,19,0.00467992,10,-0.000280606,-2.28183,0.802636,0.0735078,-14.9656,0.0536944,
2,0,0,1,0,36636.6,0.0465432,0.0462181,-5.07367,19,0.0040346,10,-0.000234495,-2.29468,0.675785,0.0873059,-17.307,0.0462181,
2,0,0,1,0,36636.7,0.0390549,0.0387351,-4.91589,19,0.00340846,10,-0.000190418,-2.3084,0.468623,0.125901,-24.19,0.0387351,
2,0,0,1,0,36636.8,0.0315613,0.0312773,-4.75119,19,0.00280231,10,-0.000148605,-2.3232,0.410496,0.143728,-26.6054,0.03127734,
2,0,0,1,0,36637,0.0240717,0.0237435,-4.55628,19,0.00221987,10,-0.000108182,-2.34139,0.418821,0.140872,-25.0281,0.0237435,
2,0,0,1,0,36637.1,0.0165781,0.0162847,-4.36764,19,0.00166078,10,-7.11256e-05,-2.35975,0.512283,0.115171,-19.6437,0.0162847,
2,0,0,1,0,36637.2,0.00909108,0.00876401,-4.2115,19,0.00112325,10,-3.69096e-05,-2.37556,0.560183,0.105323,-17.3429,0.00876401,
2,0,0,1,0,36637.3,0.00159616,0.00123494,-4.133,19,0.000601596,10,-5.10399e-06,-2.38373, , , ,0.00123494,
2,0,0,1,0,36637.4,0.000199195,-0.000203165,-4.10423,19,0.000505205,10,8.33835e-07,-2.38677, , , ,-0.000203165,

File: 20221101_1-115_003_TrumpetPlot_ParaChange_from10_every3_07_CV_C01_19.csv
mode,ox/red,error,control changes,counter inc.,time/s,control/V,Ewe/V,<I>/mA,cycle number,(Q-Qo)/C,I Range,P/W,log(|I|),Tafel slope mV/dec,alpha_eff,dI/d(E-IR),E-IR/V,
2,0,0,0,0,38597.5,2.44065e-05,-0.000325324,-2.71539,20,0.0000000E+000,10,8.83381e-07,-2.56617, , , ,-0.000325324,
2,1,0,1,0,38597.6,0.007288,0.00697231,1.11728,20,-1.63816e-05,10,7.79006e-06,-2.95184,0.0117111,5.03796,197.303,0.00697231,
2,1,0,1,0,38597.7,0.0147816,0.0144699,1.9776,20,0.000188659,10,2.86157e-05,-2.70386,0.0649922,0.907802,69.684,0.0144699,
2,1,0,1,0,38597.9,0.0222712,0.0219738,2.3832,20,0.000464986,10,5.23679e-05,-2.62284,0.127452,0.462919,42.8668,0.0219738,
2,1,0,1,0,38598,0.0297648,0.0294318,2.66444,20,0.000782521,10,7.84194e-05,-2.57439,0.171364,0.344297,35.7996,0.0294318,
2,1,0,1,0,38598.1,0.0372518,0.0369246,2.91799,20,0.00113356,10,0.000107746,-2.53492,0.208926,0.282397,32.244,0.0369246,
2,1,0,1,0,38598.2,0.0447467,0.0444582,3.17639,20,0.00151644,10,0.000141217,-2.49807,0.235443,0.250591,31.0437,0.0444582,
2,1,0,1,0,38598.4,0.052235,0.0519587,3.41934,20,0.00193,10,0.000177665,-2.46606,0.239846,0.245991,32.7811,0.0519587,
2,1,0,1,0,38598.5,0.0597299,0.0594122,3.6515,20,0.00237352,10,0.000216944,-2.43753,0.264616,0.222965,31.7131,0.0594122,
2,1,0,1,0,38598.6,0.0672156,0.0668836,3.86311,20,0.00284446,10,0.000258379,-2.41306,0.302013,0.195356,29.4577,0.0668836,
2,1,0,1,0,38598.7,0.0747105,0.0743721,4.04829,20,0.00334111,10,0.00030108,-2.39273,0.417241,0.141405,22.3756,0.07437212,
2,1,0,1,0,38598.9,0.0821988,0.0818938,4.2153,20,0.0038594,10,0.000345207,-2.37517,0.535692,0.110138,18.0984,0.0818938,
2,1,0,1,0,38599,0.0896937,0.0893409,4.36354,20,0.00439712,10,0.000389842,-2.36016,0.47192,0.125021,21.2964,0.0893409,
2,1,0,1,0,38599.1,0.0971794,0.0968562,4.54341,20,0.00495474,10,0.000440057,-2.34262,0.323402,0.182436,32.4059,0.0968562,
2,1,0,1,0,38599.2,0.104674,0.104358,4.82469,20,0.00554087,10,0.000503492,-2.31653,0.245141,0.240678,45.3684,0.104358,
2,1,0,1,0,38599.4,0.112163,0.111843,5.20803,20,0.0061682,10,0.000582483,-2.28333,0.232529,0.253732,51.4694,0.1118431,
2,1,0,1,0,38599.5,0.119657,0.119365,5.58757,20,0.00684423,10,0.000666958,-2.25278,0.281985,0.209231,45.5212,0.119365,
2,1,0,1,0,38599.6,0.127143,0.126814,5.85743,20,0.00756149,10,0.000742803,-2.23229,0.431792,0.13664,31.2579,0.1268138,
2,1,0,1,0,38599.7,0.134638,0.134342,6.03639,20,0.00830789,10,0.000810939,-2.21922,0.85941,0.0686518,16.1893,0.134342,
2,1,0,1,0,38599.9,0.142126,0.141844,6.11816,20,0.00907026,10,0.000867827,-2.21338,-3.19454,-0.018469,-4.39833,0.141844,
2,1,0,1,0,38600,0.149621,0.149286,5.86961,20,0.00982548,10,0.000876252,-2.23139,-0.198652,-0.297002,-67.6926,0.149286,
2,1,0,1,0,38600.1,0.157107,0.156806,5.10377,20,0.0105163,10,0.000800303,-2.29211,-0.0935578,-0.630626,-125.342,0.156806,
2,1,0,1,0,38600.2,0.164602,0.164295,4.17271,20,0.0110959,10,0.000685556,-2.37958,-0.0885945,-0.665955,-108.63,0.164295,
2,1,0,1,0,38600.4,0.17209,0.171799,3.50419,20,0.0115738,10,0.000602015,-2.45541,-0.117842,-0.500672,-68.7717,0.171799,
2,1,0,1,0,38600.5,0.179585,0.179285,3.11664,20,0.0119872,10,0.000558766,-2.50631,-0.179705,-0.328316,-39.939,0.179285,
2,1,0,1,0,38600.6,0.187072,0.186772,2.88106,20,0.012362,10,0.000538102,-2.54045,-0.299484,-0.197006,-22.1807,0.186772,
2,1,0,1,0,38600.7,0.194566,0.194261,2.73412,20,0.012714,10,0.000531134,-2.56318,-0.476128,-0.123916,-13.2535,0.194261,
2,1,0,1,0,38600.9,0.202055,0.201729,2.64317,20,0.0130512,10,0.000533203,-2.57788,-0.49617,-0.118911,-12.2447,0.201729,
2,1,0,1,0,38601,0.209549,0.209233,2.58571,20,0.0133789,10,0.000541015,-2.58742,-0.813845,-0.0724954,-7.29303,0.209233,
2,1,0,1,0,38601.1,0.217036,0.216726,2.52425,20,0.0136994,10,0.000547069,-2.59787,-1.72886,-0.0341265,-3.37129,0.216726,
2,1,0,1,0,38601.2,0.224529,0.224245,2.48924,20,0.0140149,10,0.000558198,-2.60393,-1.31453,-0.0448828,-4.37175,0.2242447,
2,1,0,1,0,38601.4,0.232019,0.231687,2.46281,20,0.0143261,10,0.000570601,-2.60857,-1.24863,-0.0472517,-4.54527,0.2316867,
2,1,0,1,0,38601.5,0.239513,0.239223,2.44255,20,0.0146342,10,0.000584315,-2.61216,-1.27397,-0.046312,-4.39983,0.239223,
2,1,0,1,0,38601.6,0.247001,0.2467,2.42219,20,0.0149391,10,0.000597554,-2.61579,-2.68775,-0.0219515,-2.06781,0.2467,
2,1,0,1,0,38601.7,0.254493,0.254215,2.39476,20,0.0152416,10,0.000608785,-2.62074,-2.107,-0.0280019,-2.62056,0.254215,
2,1,0,1,0,38601.9,0.261983,0.261676,2.37599,20,0.0155415,10,0.00062174,-2.62416,-1.32236,-0.0446174,-4.14754,0.261676,
2,1,0,1,0,38602,0.269477,0.269222,2.36256,20,0.0158392,10,0.000636053,-2.62662,-2.37401,-0.0248525,-2.28706,0.269222,
2,1,0,1,0,38602.1,0.276965,0.276653,2.3417,20,0.0161345,10,0.00064784,-2.63047,-4.05434,-0.0145523,-1.32885,0.2766535,
2,1,0,1,0,38602.2,0.284457,0.284147,2.32275,20,0.0164276,10,0.000660002,-2.634,-6.00802,-0.00982021,-0.890015,0.284147,
2,1,0,1,0,38602.4,0.291947,0.291636,2.3007,20,0.016718,10,0.000670968,-2.63814,-1.33989,-0.0440334,-3.95763,0.291636,
2,1,0,1,0,38602.5,0.29944,0.299177,2.2837,20,0.0170061,10,0.000683231,-2.64136,-0.00762693,-7.73575,-534.482,0.299177,
2,0,0,1,0,38602.6,0.293742,0.293367,-0.425729,20,0.0170624,10,-0.000124895,-3.37087,-0.00588644,-10.023,119.159,0.2933667,
2,0,0,1,0,38602.7,0.286254,0.285903,-0.875951,20,0.0169736,10,-0.000250437,-3.05752,-0.0570685,-1.03384,34.9605,0.285903,
2,0,0,1,0,38602.8,0.278761,0.278474,-1.07315,20,0.0168485,10,-0.000298845,-2.96934,-0.117848,-0.500643,21.0328,0.278474,
2,0,0,1,0,38603,0.271272,0.270942,-1.21488,20,0.0167031,10,-0.000329162,-2.91547,-0.183855,-0.320905,15.1675,0.270942,
2,0,0,1,0,38603.1,0.263778,0.263468,-1.32254,20,0.0165425,10,-0.000348446,-2.87859,-0.221007,-0.26696,13.7472,0.263468,
2,0,0,1,0,38603.2,0.25629,0.255971,-1.41639,20,0.0163698,10,-0.000362556,-2.84882,-0.269462,-0.218955,12.0048,0.2559714,
2,0,0,1,0,38603.3,0.248797,0.248464,-1.4847,20,0.0161865,10,-0.000368895,-2.82836,-0.377197,-0.156417,9.08939,0.248464,
2,0,0,1,0,38603.5,0.241308,0.241009,-1.55693,20,0.0159939,10,-0.000375235,-2.80773,-0.403382,-0.146263,8.91909,0.241009,
2,0,0,1,0,38603.6,0.233814,0.233515,-1.6291,20,0.0157927,10,-0.000380419,-2.78805,-0.447997,-0.131697,8.34943,0.233515,
2,0,0,1,0,38603.7,0.226326,0.225998,-1.69508,20,0.0155833,10,-0.000383085,-2.77081,-0.402625,-0.146538,9.67595,0.225998,
2,0,0,1,0,38603.8,0.218834,0.218563,-1.74907,20,0.015366,10,-0.000382281,-2.75719,-0.451588,-0.13065,8.94674,0.218563,
2,0,0,1,0,38604,0.211344,0.210986,-1.81205,20,0.0151411,10,-0.000382318,-2.74183,-0.593018,-0.0994911,7.05004,0.210986,
2,0,0,1,0,38604.1,0.203856,0.203552,-1.8831,20,0.0149085,10,-0.000383308,-2.72513,-0.714625,-0.0825608,6.0533,0.203552,
2,0,0,1,0,38604.2,0.196362,0.196042,-1.94587,20,0.0146679,10,-0.000381472,-2.71089,-0.52234,-0.112953,8.54667,0.196042,
2,0,0,1,0,38604.3,0.18887,0.18852,-2.00914,20,0.0144189,10,-0.000378762,-2.69699,-0.39949,-0.147688,11.6162,0.18852,
2,0,0,1,0,38604.5,0.18138,0.181062,-2.09353,20,0.0141608,10,-0.000379059,-2.67912,-0.45797,-0.128829,10.5162,0.1810617,
2,0,0,1,0,38604.6,0.173892,0.17356,-2.18789,20,0.013892,10,-0.000379729,-2.65998,-0.349921,-0.16861,14.3642,0.17356,
2,0,0,1,0,38604.7,0.166398,0.166071,-2.30879,20,0.0136098,10,-0.000383424,-2.63662,-0.305916,-0.192863,17.342,0.166071,
2,0,0,1,0,38604.8,0.158905,0.158562,-2.46523,20,0.0133103,10,-0.000390892,-2.60814,-0.203803,-0.289495,27.8691,0.158562,
2,0,0,1,0,38605,0.151417,0.151091,-2.70321,20,0.0129862,10,-0.000408432,-2.56812,-0.152661,-0.386476,41.0183,0.151091,
2,0,0,1,0,38605.1,0.143927,0.143618,-3.10823,20,0.0126227,10,-0.000446396,-2.50749,-0.106176,-0.555682,67.5599,0.143618,
2,0,0,1,0,38605.2,0.136435,0.136113,-3.7263,20,0.0121958,10,-0.000507197,-2.42872,-0.0937297,-0.62947,91.366,0.136113,
2,0,0,1,0,38605.3,0.128941,0.128624,-4.46627,20,0.0116829,10,-0.000574471,-2.35005,-0.101769,-0.579745,100.816,0.1286242,
2,0,0,1,0,38605.5,0.121453,0.121184,-5.15501,20,0.0110789,10,-0.000624707,-2.28777,-0.143575,-0.410935,82.5952,0.121184,
2,0,0,1,0,38605.6,0.113963,0.113609,-5.69153,20,0.0103975,10,-0.000646612,-2.24477,-0.226416,-0.260583,57.8782,0.113609,
2,0,0,1,0,38605.7,0.106471,0.10612,-6.0402,20,0.00966018,10,-0.000640988,-2.21895,-0.488859,-0.120689,28.4237,0.10612,
2,0,0,1,0,38605.8,0.0989825,0.0986449,-6.14774,20,0.00889497,10,-0.000606443,-2.21128,53.5642,0.00110148,-0.263673,0.09864492,
2,0,0,1,0,38606,0.0914889,0.0911901,-6.03432,20,0.0081305,10,-0.000550271,-2.21937,0.600459,0.0982581,-23.1111,0.0911901,
2,0,0,1,0,38606.1,0.0839993,0.0836653,-5.80773,20,0.00738911,10,-0.000485905,-2.23599,0.415727,0.14192,-32.1903,0.0836653,
2,0,0,1,0,38606.2,0.076507,0.0761859,-5.6157,20,0.00667436,10,-0.000427838,-2.2506,0.506086,0.116581,-25.5144,0.0761859,
2,0,0,1,0,38606.3,0.0690187,0.0687228,-5.46406,20,0.00598168,10,-0.000375506,-2.26248,0.682774,0.0864122,-18.4195,0.0687228,
2,0,0,1,0,38606.5,0.0615251,0.0611841,-5.33307,20,0.0053052,10,-0.000326299,-2.27302,0.786173,0.0750471,-15.6366,0.0611841,
2,0,0,1,0,38606.6,0.0540355,0.053707,-5.19984,20,0.0046455,10,-0.000279268,-2.28401,0.710846,0.0829997,-16.8522,0.053707,
2,0,0,1,0,38606.7,0.0465432,0.0462161,-5.05882,20,0.00400238,10,-0.000233799,-2.29595,0.558492,0.105642,-20.857,0.0462161,
2,0,0,1,0,38606.8,0.0390549,0.0387459,-4.90692,20,0.00337885,10,-0.000190123,-2.30919,0.468079,0.126047,-24.0691,0.0387459,
2,0,0,1,0,38607,0.0315613,0.0312206,-4.72031,20,0.00277562,10,-0.000147371,-2.32603,0.462024,0.127699,-23.5308,0.0312206,
2,0,0,1,0,38607.1,0.0240717,0.0237812,-4.51983,20,0.00219641,10,-0.000107487,-2.34488,0.39504,0.149352,-26.4032,0.0237812,
2,0,0,1,0,38607.2,0.0165781,0.0162362,-4.34693,20,0.00164047,10,-7.05776e-05,-2.36182,0.45465,0.12977,-22.022,0.0162362,
2,0,0,1,0,38607.3,0.00909108,0.00874391,-4.20163,20,0.00110547,10,-3.67387e-05,-2.37658,0.595673,0.0990477,-16.2124,0.00874391,
2,0,0,1,0,38607.5,0.00159616,0.00121765,-4.12568,20,0.000585522,10,-5.02365e-06,-2.3845, , , ,0.00121765,
2,0,0,1,0,38607.5,0.000199195,-0.0002108,-4.09701,20,0.000489298,10,8.63649e-07,-2.38753, , , ,-0.0002108,