Folder: Figs_alphaMnO2_OER_Tafel_sleope/Figure_codes/Fig_3-5/rawdata_trumpetplot_data/after 10th (part 50)

File: 20221101_1-115_003_TrumpetPlot_ParaChange_from10_every3_04_CV_C01_29.csv
mode,ox/red,error,control changes,counter inc.,time/s,control/V,Ewe/V,<I>/mA,cycle number,(Q-Qo)/C,I Range,P/W,log(|I|),Tafel slope mV/dec,alpha_eff,dI/d(E-IR),E-IR/V,
2,0,0,1,0,58193.8,2.44065e-05,-0.000382585,-0.385608,30,0.0000000E+000,10,1.47528e-07,-3.41385, , , ,-0.000382585,
2,1,0,1,0,58194.5,0.00729063,0.006948,0.343791,30,0.000162831,10,2.38866e-06,-3.46371,0.0530798,1.11153,14.6641,0.006948,
2,1,0,1,0,58195.3,0.0147814,0.0144387,0.419774,30,0.000461609,10,6.06098e-06,-3.37698,0.118068,0.49971,8.13902,0.0144387,
2,1,0,1,0,58196,0.0222725,0.0219252,0.471727,30,0.000805681,10,1.03427e-05,-3.32631,0.167166,0.352943,6.48103,0.0219252,
2,1,0,1,0,58196.8,0.0297635,0.0294114,0.522114,30,0.00118773,10,1.53561e-05,-3.28223,0.188529,0.312949,6.36198,0.0294114,
2,1,0,1,0,58197.5,0.0372544,0.0369087,0.569149,30,0.00160643,10,2.10066e-05,-3.24477,0.209944,0.281027,6.25341,0.0369087,
2,1,0,1,0,58198.3,0.0447458,0.0443809,0.617896,30,0.00206134,10,2.74228e-05,-3.20908,0.22391,0.263499,6.35193,0.0443809,
2,1,0,1,0,58199,0.0522363,0.051852,0.661809,30,0.00255178,10,3.43161e-05,-3.17927,0.238333,0.247553,6.39355,0.051852,
2,1,0,1,0,58199.8,0.0597282,0.0593592,0.703578,30,0.00307392,10,4.17638e-05,-3.15269,0.321414,0.183564,5.02662,0.0593592,
2,1,0,1,0,58200.5,0.0672182,0.0668408,0.738386,30,0.00362373,10,4.93544e-05,-3.13172,0.370361,0.159304,4.57877,0.06684082,
2,1,0,1,0,58201.3,0.0747092,0.07434,0.765977,30,0.00419819,10,5.69427e-05,-3.11578,0.485338,0.121565,3.64204,0.07434,
2,1,0,1,0,58202,0.0822001,0.0818509,0.792735,30,0.00479341,10,6.4886e-05,-3.10087,0.537895,0.109687,3.39963,0.0818509,
2,1,0,1,0,58202.8,0.0896911,0.089296,0.825467,30,0.00540942,10,7.37109e-05,-3.0833,0.333309,0.177013,5.71789,0.089296,
2,1,0,1,0,58203.5,0.097182,0.096809,0.877527,30,0.00605723,10,8.49525e-05,-3.05674,0.215936,0.273229,9.36985,0.09680897,
2,1,0,1,0,58204.3,0.104673,0.104293,0.956269,30,0.00675349,10,9.97324e-05,-3.01942,0.202108,0.291924,10.8651,0.104293,
2,1,0,1,0,58205,0.112164,0.111794,1.02805,30,0.00750823,10,0.00011493,-2.98798,0.279859,0.210821,8.45395,0.111794,
2,1,0,1,0,58205.8,0.119655,0.119279,1.07894,30,0.00831006,10,0.000128695,-2.967,0.67191,0.0878094,3.69553,0.119279,
2,1,0,1,0,58206.5,0.127146,0.126799,1.10083,30,0.00913917,10,0.000139584,-2.95828,1.17412,0.0502504,2.16096,0.126799,
2,1,0,1,0,58207.3,0.134637,0.134256,1.10113,30,0.00997949,10,0.000147834,-2.95816,-0.503347,-0.117215,-5.03362,0.134256,
2,1,0,1,0,58208,0.142127,0.141753,1.01284,30,0.0107893,10,0.000143574,-2.99446,-0.120267,-0.490574,-19.2963,0.141753,
2,1,0,1,0,58208.8,0.149619,0.149272,0.830629,30,0.0114923,10,0.000123989,-3.08059,-0.0781718,-0.754748,-24.441,0.149272,
2,1,0,1,0,58209.5,0.157109,0.1568,0.678243,30,0.0120621,10,0.000106348,-3.16861,-0.102476,-0.575747,-15.2639,0.1567996,
2,1,0,1,0,58210.3,0.164601,0.164286,0.600385,30,0.0125473,10,9.86348e-05,-3.22157,-0.191827,-0.307569,-7.21942,0.164286,
2,1,0,1,0,58211,0.172091,0.17174,0.563481,30,0.012992,10,9.67723e-05,-3.24912,-0.389375,-0.151525,-3.34526,0.17174,
2,1,0,1,0,58211.8,0.179582,0.179224,0.545018,30,0.0134167,10,9.76802e-05,-3.26359,-0.734582,-0.0803178,-1.71358,0.179224,
2,1,0,1,0,58212.5,0.187074,0.186751,0.535541,30,0.0138305,10,0.000100013,-3.27121,-1.74472,-0.0338162,-0.704924,0.186751,
2,1,0,1,0,58213.3,0.194564,0.194181,0.527492,30,0.0142375,10,0.000102429,-3.27778,-1.40365,-0.0420332,-0.864036,0.194181,
2,1,0,1,0,58214,0.202056,0.201658,0.522346,30,0.0146398,10,0.000105335,-3.28204,-0.989487,-0.0596268,-1.21091,0.201658,
2,1,0,1,0,58214.7,0.209546,0.20919,0.516355,30,0.0150386,10,0.000108016,-3.28705,-1.261,-0.0467882,-0.945047,0.20919,
2,1,0,1,0,58215.5,0.217038,0.216701,0.511994,30,0.0154339,10,0.00011095,-3.29074,-7.0704,-0.00834465,-0.167319,0.216701,
2,1,0,1,0,58216.2,0.224528,0.22417,0.509801,30,0.015827,10,0.000114282,-3.2926,-2.3727,-0.0248662,-0.495212,0.22417,
2,1,0,1,0,58217,0.232019,0.231656,0.508031,30,0.0162176,10,0.000117688,-3.29411,12.7446,0.0046294,0.0916984,0.231656,
2,1,0,1,0,58217.7,0.23951,0.239128,0.504433,30,0.0166063,10,0.000120624,-3.2972,16.2732,0.0036256,0.0714529,0.239128,
2,1,0,1,0,58218.5,0.247001,0.246676,0.502451,30,0.0169924,10,0.000123943,-3.29891,-1.73861,-0.0339352,-0.663033,0.246676,
2,1,0,1,0,58219.2,0.254492,0.254102,0.497457,30,0.0173764,10,0.000126405,-3.30324,-2.25808,-0.0261284,-0.508068,0.254102,
2,1,0,1,0,58220,0.261983,0.261628,0.495528,30,0.0177579,10,0.000129644,-3.30493,-2.44018,-0.0241786,-0.467006,0.261628,
2,1,0,1,0,58220.7,0.269474,0.269138,0.491615,30,0.018137,10,0.000132312,-3.30837,5.66725,0.0104107,0.199777,0.269138,
2,1,0,1,0,58221.5,0.276965,0.276624,0.488008,30,0.0185135,10,0.000134995,-3.31157,-1.27071,-0.0464307,-0.883265,0.276624,
2,1,0,1,0,58222.2,0.284456,0.284108,0.485272,30,0.018887,10,0.00013787,-3.31401,-1.33562,-0.0441744,-0.835558,0.284108,
2,1,0,1,0,58223,0.291947,0.291572,0.479604,30,0.0192574,10,0.000139839,-3.31912,-1.48504,-0.0397296,-0.744331,0.291572,
2,1,0,1,0,58223.7,0.299437,0.299083,0.475453,30,0.019625,10,0.0001422,-3.32289,-0.00314617,-18.753,-196.699,0.299083,
2,0,0,1,0,58224.4,0.293745,0.293389,-0.0688851,30,0.0196559,10,-2.02102e-05,-4.16187,-0.0128983,-4.57424,11.1538,0.2933892,
2,0,0,1,0,58225.2,0.286253,0.285919,-0.124518,30,0.0195708,10,-3.56021e-05,-3.90477,-0.05066,-1.16463,5.73518,0.285919,
2,0,0,1,0,58225.9,0.278763,0.278382,-0.162167,30,0.0194525,10,-4.51444e-05,-3.79004,-0.0877932,-0.672034,4.23378,0.278382,
2,0,0,1,0,58226.7,0.271272,0.270937,-0.191969,30,0.0193104,10,-5.20116e-05,-3.71677,-0.124726,-0.473037,3.52246,0.270937,
2,0,0,1,0,58227.4,0.263781,0.263443,-0.214242,30,0.0191487,10,-5.64406e-05,-3.6691,-0.160808,-0.366898,3.07133,0.263443,
2,0,0,1,0,58228.2,0.25629,0.25593,-0.236482,30,0.0189702,10,-6.0523e-05,-3.6262,-0.231264,-0.25512,2.33899,0.25593,
2,0,0,1,0,58228.9,0.248799,0.248413,-0.254765,30,0.0187772,10,-6.32871e-05,-3.59386,-0.271745,-0.217115,2.14087,0.248413,
2,0,0,1,0,58229.7,0.241308,0.24095,-0.270934,30,0.0185712,10,-6.52816e-05,-3.56714,-0.349711,-0.168711,1.781,0.24095,
2,0,0,1,0,58230.4,0.233817,0.233455,-0.28556,30,0.0183531,10,-6.66654e-05,-3.5443,-0.270767,-0.2179,2.4234,0.233455,
2,0,0,1,0,58231.2,0.226326,0.22599,-0.300427,30,0.0181238,10,-6.78935e-05,-3.52226,-0.353391,-0.166954,1.95481,0.22599,
2,0,0,1,0,58231.9,0.218835,0.218478,-0.315415,30,0.0178834,10,-6.89113e-05,-3.50112,-0.377074,-0.156468,1.9202,0.218478,
2,0,0,1,0,58232.7,0.211344,0.210982,-0.329573,30,0.0176321,10,-6.95339e-05,-3.48205,-0.551808,-0.106921,1.37223,0.210982,
2,0,0,1,0,58233.4,0.203854,0.203501,-0.3432,30,0.0173697,10,-6.98416e-05,-3.46445,-0.374831,-0.157404,2.11561,0.203501,
2,0,0,1,0,58234.2,0.196362,0.19599,-0.358662,30,0.0170966,10,-7.02942e-05,-3.44531,-0.408307,-0.144499,2.0267,0.19599,
2,0,0,1,0,58234.9,0.188872,0.188492,-0.374417,30,0.0168115,10,-7.05747e-05,-3.42664,-0.302615,-0.194967,2.85536,0.188492,
2,0,0,1,0,58235.7,0.18138,0.181072,-0.392272,30,0.0165139,10,-7.10295e-05,-3.40641,-0.455987,-0.12939,1.98704,0.181072,
2,0,0,1,0,58236.4,0.17389,0.173517,-0.413813,30,0.0162022,10,-7.18036e-05,-3.3832,-0.301324,-0.195802,3.15024,0.173517,
2,0,0,1,0,58237.2,0.166398,0.166026,-0.436809,30,0.0158735,10,-7.25216e-05,-3.35971,-0.329184,-0.179231,3.06402,0.166026,
2,0,0,1,0,58237.9,0.158907,0.158534,-0.471309,30,0.0155228,10,-7.47184e-05,-3.32669,-0.205348,-0.287317,5.30514,0.158534,
2,0,0,1,0,58238.7,0.151417,0.15104,-0.523283,30,0.0151407,10,-7.90368e-05,-3.28126,-0.143775,-0.410364,8.38993,0.15104,
2,0,0,1,0,58239.4,0.143925,0.143585,-0.609607,30,0.0147091,10,-8.75307e-05,-3.21495,-0.0876309,-0.673279,16.0069,0.143585,
2,0,0,1,0,58240.2,0.136435,0.136079,-0.741221,30,0.0141955,10,-0.000100865,-3.13005,-0.0845941,-0.697449,20.116,0.136079,
2,0,0,1,0,58240.9,0.128943,0.128562,-0.895869,30,0.0135716,10,-0.000115175,-3.04776,-0.106484,-0.554074,19.3392,0.128562,
2,0,0,1,0,58241.7,0.121453,0.121122,-1.02906,30,0.0128374,10,-0.000124642,-2.98756,-0.169038,-0.349035,13.9898,0.121122,
2,0,0,1,0,58242.4,0.113962,0.11362,-1.10584,30,0.012022,10,-0.000125645,-2.95631,-0.430189,-0.137149,5.91496,0.11362,
2,0,0,1,0,58243.2,0.106471,0.106118,-1.12089,30,0.0111734,10,-0.000118947,-2.95044,4.63337,0.0127337,-0.557069,0.106118,
2,0,0,1,0,58243.9,0.0989798,0.098653,-1.10435,30,0.0103286,10,-0.000108948,-2.95689,0.821577,0.0718131,-3.0886,0.098653,
2,0,0,1,0,58244.6,0.0914889,0.0911315,-1.07792,30,0.00950143,10,-9.82325e-05,-2.96741,0.741562,0.0795618,-3.34269,0.0911315,
2,0,0,1,0,58245.4,0.083998,0.0836186,-1.05012,30,0.00869378,10,-8.78098e-05,-2.97876,0.5571,0.105906,-4.34149,0.0836186,
2,0,0,1,0,58246.1,0.076507,0.0761565,-1.02438,30,0.00790575,10,-7.80129e-05,-2.98954,0.587746,0.100384,-4.00803,0.07615649,
2,0,0,1,0,58246.9,0.069016,0.0686955,-0.99238,30,0.00713925,10,-6.8172e-05,-3.00332,0.509959,0.115696,-4.4955,0.0686955,
2,0,0,1,0,58247.6,0.0615251,0.0611592,-0.964489,30,0.00639364,10,-5.89873e-05,-3.0157,0.587855,0.100365,-3.78786,0.0611592,
2,0,0,1,0,58248.4,0.0540342,0.0536971,-0.937366,30,0.00567015,10,-5.03338e-05,-3.02809,0.613461,0.0961756,-3.51662,0.0536971,
2,0,0,1,0,58249.1,0.0465441,0.046154,-0.905355,30,0.00496907,10,-4.17857e-05,-3.04318,0.561232,0.105126,-3.72084,0.046154,
2,0,0,1,0,58249.9,0.0390523,0.0386945,-0.875606,30,0.00429187,10,-3.38811e-05,-3.05769,0.418263,0.14106,-4.81222,0.0386945,
2,0,0,1,0,58250.6,0.0315618,0.0311648,-0.841581,30,0.00363888,10,-2.62277e-05,-3.0749,0.410035,0.14389,-4.72767,0.0311648,
2,0,0,1,0,58251.4,0.0240704,0.0237576,-0.807563,30,0.00300979,10,-1.91857e-05,-3.09282,0.511246,0.115404,-3.65553,0.0237576,
2,0,0,1,0,58252.1,0.0165796,0.0162714,-0.786764,30,0.00240107,10,-1.28018e-05,-3.10416,0.817672,0.0721561,-2.21767,0.01627144,
2,0,0,1,0,58252.9,0.00908846,0.00876024,-0.771904,30,0.00180708,10,-6.76206e-06,-3.11244,1.93394,0.0305076,-0.920226,0.008760239,
2,0,0,1,0,58253.6,0.00159728,0.00118462,-0.776382,30,0.00121908,10,-9.19718e-07,-3.10992, , , ,0.00118462,
2,0,0,1,0,58253.8,0.000199195,-0.000185986,-0.770768,30,0.001109,10,1.43352e-07,-3.11308, , , ,-0.000185986,

File: 20221101_1-115_003_TrumpetPlot_ParaChange_from10_every3_04_CV_C01_30.csv
mode,ox/red,error,control changes,counter inc.,time/s,control/V,Ewe/V,<I>/mA,cycle number,(Q-Qo)/C,I Range,P/W,log(|I|),Tafel slope mV/dec,alpha_eff,dI/d(E-IR),E-IR/V,
2,0,0,1,0,60163.9,2.44065e-05,-0.000458935,-0.394513,31,0.0000000E+000,10,1.81056e-07,-3.40394, , , ,-0.000458935,
2,1,0,1,0,60164.7,0.00729063,0.00693528,0.341314,31,0.000157412,10,2.36711e-06,-3.46685,0.0530432,1.1123,14.5665,0.00693528,
2,1,0,1,0,60165.4,0.0147814,0.0144373,0.415608,31,0.000453333,10,6.00027e-06,-3.38132,0.114595,0.514856,8.32835,0.0144373,
2,1,0,1,0,60166.2,0.0222725,0.0218997,0.468644,31,0.000794964,10,1.02632e-05,-3.32916,0.167538,0.352158,6.44439,0.0218997,
2,1,0,1,0,60166.9,0.0297635,0.0294476,0.518606,31,0.00117455,10,1.52717e-05,-3.28516,0.190595,0.309557,6.25308,0.0294476,
2,1,0,1,0,60167.7,0.0372544,0.0368896,0.56636,31,0.00159069,10,2.08928e-05,-3.24691,0.220625,0.267422,5.91249,0.0368896,
2,1,0,1,0,60168.4,0.0447458,0.0443922,0.614134,31,0.00204263,10,2.72627e-05,-3.21174,0.226701,0.260255,6.22912,0.0443922,
2,1,0,1,0,60169.1,0.0522363,0.0518393,0.657133,31,0.00252945,10,3.40653e-05,-3.18235,0.248061,0.237845,6.10074,0.0518393,
2,1,0,1,0,60169.9,0.0597282,0.0593532,0.699243,31,0.00304806,10,4.15023e-05,-3.15537,0.291766,0.202217,5.50749,0.0593532,
2,1,0,1,0,60170.6,0.0672182,0.0668101,0.734444,31,0.00359437,10,4.90682e-05,-3.13404,0.412023,0.143196,4.08723,0.0668101,
2,1,0,1,0,60171.4,0.0747092,0.0743464,0.762081,31,0.00416461,10,5.6658e-05,-3.118,0.500283,0.117933,3.50868,0.0743464,
2,1,0,1,0,60172.1,0.0822001,0.0818509,0.786787,31,0.00475565,10,6.43992e-05,-3.10414,0.651606,0.0905455,2.7885,0.0818509,
2,1,0,1,0,60172.9,0.0896911,0.0893236,0.820859,31,0.00536781,10,7.3322e-05,-3.08573,0.327804,0.179986,5.7799,0.0893236,
2,1,0,1,0,60173.6,0.097182,0.0968365,0.873593,31,0.00601173,10,8.45958e-05,-3.05869,0.205615,0.286944,9.78808,0.0968365,
2,1,0,1,0,60174.4,0.104673,0.104361,0.95096,31,0.00670386,10,9.92433e-05,-3.02184,0.199334,0.295985,10.9485,0.104361,
2,1,0,1,0,60175.1,0.112164,0.111851,1.02439,31,0.00745356,10,0.000114578,-2.98954,0.27943,0.211144,8.40779,0.111851,
2,1,0,1,0,60175.9,0.119655,0.119286,1.07134,31,0.00824963,10,0.000127797,-2.97007,0.698328,0.0844875,3.53122,0.1192864,
2,1,0,1,0,60176.6,0.127146,0.126821,1.09577,31,0.00907267,10,0.000138966,-2.96028,1.26812,0.0465256,1.9905,0.126821,
2,1,0,1,0,60177.4,0.134637,0.134298,1.09461,31,0.00990642,10,0.000147004,-2.96074,-0.488281,-0.120832,-5.14707,0.134298,
2,1,0,1,0,60178.1,0.142127,0.141771,1.00265,31,0.0107093,10,0.000142146,-2.99885,-0.119597,-0.493323,-19.2345,0.141771,
2,1,0,1,0,60178.9,0.149619,0.149247,0.821989,31,0.0114053,10,0.00012268,-3.08513,-0.0788401,-0.74835,-24.0433,0.149247,
2,1,0,1,0,60179.6,0.157109,0.156768,0.67215,31,0.0119701,10,0.000105372,-3.17253,-0.106293,-0.555067,-14.6,0.156768,
2,1,0,1,0,60180.4,0.164601,0.164252,0.598663,31,0.0124522,10,9.83315e-05,-3.22282,-0.206178,-0.28616,-6.69841,0.164252,
2,1,0,1,0,60181.1,0.172091,0.171761,0.560791,31,0.0128949,10,9.63222e-05,-3.2512,-0.386212,-0.152766,-3.35809,0.171761,
2,1,0,1,0,60181.9,0.179582,0.179245,0.543184,31,0.0133178,10,9.73629e-05,-3.26505,-0.738161,-0.0799284,-1.70097,0.179245,
2,1,0,1,0,60182.6,0.187074,0.186764,0.53322,31,0.01373,10,9.95865e-05,-3.27309,-5.08375,-0.0116056,-0.24085,0.1867643,
2,1,0,1,0,60183.4,0.194564,0.194191,0.525548,31,0.0141354,10,0.000102057,-3.27939,-1.03655,-0.0569197,-1.16769,0.1941914,
2,1,0,1,0,60184.1,0.202056,0.201715,0.518783,31,0.0145357,10,0.000104646,-3.28501,-1.98161,-0.0297737,-0.602925,0.201715,
2,1,0,1,0,60184.9,0.209546,0.2092,0.515987,31,0.014933,10,0.000107945,-3.28736,-1.18342,-0.0498553,-1.00428,0.2092,
2,1,0,1,0,60185.6,0.217038,0.216701,0.511682,31,0.0153268,10,0.000110882,-3.291,-5.10134,-0.0115656,-0.231499,0.216701,
2,1,0,1,0,60186.4,0.224528,0.22421,0.507681,31,0.0157183,10,0.000113827,-3.29441,-36.9615,-0.00159625,-0.0316736,0.22421,
2,1,0,1,0,60187.1,0.232019,0.231662,0.507032,31,0.0161077,10,0.00011746,-3.29496,-5.10317,-0.0115615,-0.22861,0.231662,
2,1,0,1,0,60187.9,0.23951,0.239164,0.502622,31,0.016495,10,0.000120209,-3.29876,-2.07672,-0.0284102,-0.556395,0.239164,
2,1,0,1,0,60188.6,0.247001,0.246677,0.501662,31,0.01688,10,0.000123749,-3.29959,-1.48358,-0.0397686,-0.776112,0.246677,
2,1,0,1,0,60189.4,0.254492,0.254152,0.496874,31,0.017263,10,0.000126282,-3.30375,-2.57142,-0.0229445,-0.445394,0.254152,
2,1,0,1,0,60190.1,0.261983,0.261669,0.495446,31,0.0176434,10,0.000129643,-3.305,-2.33932,-0.025221,-0.487224,0.261669,
2,1,0,1,0,60190.9,0.269474,0.269153,0.491114,31,0.0180218,10,0.000132185,-3.30882,8.04003,0.00733828,0.140773,0.269153,
2,1,0,1,0,60191.6,0.276965,0.276598,0.486989,31,0.0183973,10,0.0001347,-3.31248,-11.3372,-0.00520411,-0.0989526,0.276598,
2,1,0,1,0,60192.4,0.284456,0.284131,0.484733,31,0.01877,10,0.000137728,-3.3145,-2.53432,-0.0232804,-0.439035,0.284131,
2,1,0,1,0,60193.1,0.291947,0.291609,0.479092,31,0.0191395,10,0.000139707,-3.31958,-0.879811,-0.0670598,-1.25476,0.291609,
2,1,0,1,0,60193.9,0.299437,0.299104,0.474962,31,0.0195061,10,0.000142063,-3.32334,-0.00336666,-17.5248,-187.25,0.299104,
2,0,0,1,0,60194.6,0.293745,0.293431,-0.0666826,31,0.0195394,10,-1.95667e-05,-4.17599,-0.0120826,-4.88305,11.5499,0.293431,
2,0,0,1,0,60195.3,0.286253,0.285916,-0.124687,31,0.0194558,10,-3.56501e-05,-3.90418,-0.0514929,-1.14579,5.58764,0.285916,
2,0,0,1,0,60196.1,0.278763,0.278462,-0.161584,31,0.0193386,10,-4.49949e-05,-3.7916,-0.0827136,-0.713304,4.49048,0.278462,
2,0,0,1,0,60196.8,0.271272,0.27092,-0.190311,31,0.0191976,10,-5.15592e-05,-3.72054,-0.126463,-0.466539,3.44801,0.27092,
2,0,0,1,0,60197.6,0.263781,0.263468,-0.213629,31,0.0190369,10,-5.62845e-05,-3.67034,-0.170956,-0.345119,2.88124,0.263468,
2,0,0,1,0,60198.3,0.25629,0.255948,-0.235808,31,0.0188594,10,-6.03547e-05,-3.62744,-0.279023,-0.211452,1.93011,0.255948,
2,0,0,1,0,60199,0.248799,0.248469,-0.253087,31,0.0186674,10,-6.28844e-05,-3.59673,-0.262666,-0.22462,2.21921,0.248469,
2,0,0,1,0,60199.8,0.241308,0.240951,-0.268841,31,0.0184624,10,-6.47774e-05,-3.57051,-0.317677,-0.185723,1.95283,0.240951,
2,0,0,1,0,60200.5,0.233817,0.233469,-0.284044,31,0.0182455,10,-6.63153e-05,-3.54662,-0.254974,-0.231396,2.57019,0.233469,
2,0,0,1,0,60201.3,0.226326,0.225993,-0.298846,31,0.0180173,10,-6.75371e-05,-3.52455,-0.315863,-0.18679,2.18485,0.225993,
2,0,0,1,0,60202,0.218835,0.218458,-0.314314,31,0.017778,10,-6.86643e-05,-3.50264,-0.318205,-0.185415,2.27322,0.218458,
2,0,0,1,0,60202.8,0.211344,0.211002,-0.32831,31,0.0175278,10,-6.9274e-05,-3.48372,-0.400582,-0.147286,1.88573,0.211002,
2,0,0,1,0,60203.5,0.203854,0.203491,-0.342398,31,0.0172663,10,-6.96749e-05,-3.46547,-0.435533,-0.135466,1.82154,0.203491,
2,0,0,1,0,60204.3,0.196362,0.196028,-0.358601,31,0.0169939,10,-7.02958e-05,-3.44539,-0.522965,-0.112818,1.57976,0.196028,
2,0,0,1,0,60205,0.188872,0.188494,-0.373886,31,0.0167097,10,-7.04754e-05,-3.42726,-0.322427,-0.182987,2.67081,0.1884944,
2,0,0,1,0,60205.8,0.18138,0.18107,-0.392107,31,0.0164135,10,-7.09988e-05,-3.4066,-0.36521,-0.161551,2.47369,0.18107,
2,0,0,1,0,60206.5,0.17389,0.173544,-0.412755,31,0.0161033,10,-7.1631e-05,-3.38431,-0.326932,-0.180465,2.89866,0.173544,
2,0,0,1,0,60207.3,0.166398,0.16606,-0.435934,31,0.0157766,10,-7.23912e-05,-3.36058,-0.295062,-0.199958,3.40585,0.16606,
2,0,0,1,0,60208,0.158907,0.158579,-0.469277,31,0.0154283,10,-7.44172e-05,-3.32857,-0.201225,-0.293204,5.37771,0.158579,
2,0,0,1,0,60208.8,0.151417,0.15104,-0.518165,31,0.0150495,10,-7.82638e-05,-3.28553,-0.156433,-0.377159,7.64653,0.15104,
2,0,0,1,0,60209.5,0.143925,0.14356,-0.601565,31,0.0146232,10,-8.63603e-05,-3.22072,-0.0953712,-0.618635,14.5216,0.14356,
2,0,0,1,0,60210.3,0.136435,0.136058,-0.728418,31,0.014118,10,-9.91069e-05,-3.13762,-0.0836463,-0.705351,20.0402,0.136058,
2,0,0,1,0,60211,0.128943,0.128607,-0.880985,31,0.013505,10,-0.000113301,-3.05503,-0.101838,-0.579349,19.8686,0.128607,
2,0,0,1,0,60211.8,0.121453,0.121094,-1.01565,31,0.0127822,10,-0.000122989,-2.99326,-0.159835,-0.36913,14.5833,0.121094,
2,0,0,1,0,60212.5,0.113962,0.113584,-1.09265,31,0.0119775,10,-0.000124107,-2.96152,-0.420987,-0.140147,5.97657,0.113584,
2,0,0,1,0,60213.3,0.106471,0.106141,-1.1125,31,0.0111371,10,-0.000118081,-2.9537,7.67353,0.00768877,-0.334296,0.106141,
2,0,0,1,0,60214,0.0989798,0.0986191,-1.09516,31,0.0102985,10,-0.000108003,-2.96052,0.963488,0.0612358,-2.61575,0.0986191,
2,0,0,1,0,60214.8,0.0914889,0.0911231,-1.07249,31,0.00947655,10,-9.77286e-05,-2.96961,0.805518,0.0732448,-3.06241,0.0911231,
2,0,0,1,0,60215.5,0.083998,0.0836133,-1.04769,31,0.00867291,10,-8.76011e-05,-2.97977,0.572224,0.103106,-4.21131,0.0836133,
2,0,0,1,0,60216.3,0.076507,0.0761586,-1.02151,31,0.00788776,10,-7.77968e-05,-2.99076,0.575872,0.102453,-4.08375,0.0761586,
2,0,0,1,0,60217,0.069016,0.0686658,-0.990545,31,0.00712311,10,-6.80166e-05,-3.00413,0.591908,0.0996776,-3.86454,0.0686658,
2,0,0,1,0,60217.8,0.0615251,0.0612132,-0.964159,31,0.00637915,10,-5.90193e-05,-3.01585,0.531615,0.110983,-4.18056,0.06121324,
2,0,0,1,0,60218.5,0.0540342,0.0536759,-0.936957,31,0.00565716,10,-5.0292e-05,-3.02828,0.601778,0.0980428,-3.57698,0.0536759,
2,0,0,1,0,60219.3,0.0465441,0.0462125,-0.903722,31,0.00495755,10,-4.17633e-05,-3.04396,0.589011,0.100168,-3.53628,0.0462125,
2,0,0,1,0,60220,0.0390523,0.0386987,-0.874081,31,0.00428146,10,-3.38258e-05,-3.05845,0.401141,0.147081,-5.00922,0.0386987,
2,0,0,1,0,60220.8,0.0315618,0.0311947,-0.842419,31,0.00362918,10,-2.6279e-05,-3.07447,0.44824,0.131626,-4.32316,0.0311947,
2,0,0,1,0,60221.5,0.0240704,0.0237141,-0.808584,31,0.00300068,10,-1.91748e-05,-3.09227,0.475085,0.124188,-3.93407,0.02371409,
2,0,0,1,0,60222.3,0.0165796,0.0162365,-0.78699,31,0.00239313,10,-1.2778e-05,-3.10403,0.973422,0.0606109,-1.86387,0.0162365,
2,0,0,1,0,60223,0.00908846,0.00872737,-0.770048,31,0.00180005,10,-6.72049e-06,-3.11348,1.68006,0.0351177,-1.05711,0.00872737,
2,0,0,1,0,60223.8,0.00159728,0.00123195,-0.77493,31,0.00121331,10,-9.54679e-07,-3.11074, , , ,0.00123195,
2,0,0,1,0,60223.9,0.000199195,-0.00022607,-0.76727,31,0.00110346,10,1.73456e-07,-3.11505, , , ,-0.00022607,