Folder: Figs_alphaMnO2_OER_Tafel_sleope/Figure_codes/Fig_3-5/rawdata_trumpetplot_data/after 10th (part 30)

File: 20221101_1-115_003_TrumpetPlot_ParaChange_from10_every3_03_CV_C01_23.csv
mode,ox/red,error,control changes,counter inc.,time/s,control/V,Ewe/V,<I>/mA,cycle number,(Q-Qo)/C,I Range,P/W,log(|I|),Tafel slope mV/dec,alpha_eff,dI/d(E-IR),E-IR/V,
2,0,0,1,0,46253,2.44065e-05,-0.000306236,-0.113387,24,0.0000000E+000,10,3.47231e-08,-3.94544, , , ,-0.000306236,
2,1,0,1,0,46254.5,0.00729041,0.00696488,0.200157,24,0.000248959,10,1.39407e-06,-3.69863,0.0779234,0.757154,5.82243,0.00696488,
2,1,0,1,0,46256,0.0147815,0.0144629,0.229655,24,0.000593471,10,3.32148e-06,-3.63892,0.136884,0.431021,3.87465,0.0144629,
2,1,0,1,0,46257.5,0.0222725,0.0219167,0.25689,24,0.000980003,10,5.63018e-06,-3.59025,0.173142,0.340761,3.41425,0.0219167,
2,1,0,1,0,46259,0.0297635,0.0294519,0.282411,24,0.00140549,10,8.31755e-06,-3.54912,0.197542,0.298671,3.29696,0.0294519,
2,1,0,1,0,46260.5,0.0372545,0.0369206,0.309144,24,0.00186992,10,1.14138e-05,-3.50984,0.201522,0.292772,3.53125,0.0369206,
2,1,0,1,0,46262,0.0447456,0.044403,0.334621,24,0.00237327,10,1.48582e-05,-3.47545,0.230193,0.256307,3.34499,0.044403,
2,1,0,1,0,46263.5,0.0522367,0.0518798,0.357968,24,0.00291347,10,1.85713e-05,-3.44616,0.235802,0.25021,3.49111,0.0518798,
2,1,0,1,0,46265,0.0597277,0.0593854,0.380451,24,0.00348805,10,2.25933e-05,-3.4197,0.300188,0.196544,2.9143,0.0593854,
2,1,0,1,0,46266.5,0.0672187,0.0668497,0.39861,24,0.00409326,10,2.6647e-05,-3.39945,0.375686,0.157046,2.43959,0.0668497,
2,1,0,1,0,46268,0.0747092,0.0743856,0.413563,24,0.00472441,10,3.07631e-05,-3.38346,0.633462,0.0931389,1.50449,0.0743856,
2,1,0,0,0,46269.4,0.0822001,0.0818488,0.427854,24,0.00537789,10,3.50193e-05,-3.3687,0.426684,0.138276,2.3162,0.0818488,
2,1,0,1,0,46270.9,0.0896911,0.0893914,0.449185,24,0.00605689,10,4.01533e-05,-3.34757,0.321884,0.183296,3.21902,0.0893914,
2,1,0,0,0,46272.4,0.097182,0.0968694,0.480533,24,0.00677383,10,4.6549e-05,-3.31828,0.192351,0.306731,5.74046,0.0968694,
2,1,0,1,0,46273.9,0.104673,0.104334,0.521215,24,0.00754464,10,5.43803e-05,-3.28298,0.217541,0.271213,5.50204,0.104334,
2,1,0,0,0,46275.4,0.112164,0.111889,0.557905,24,0.00837477,10,6.24234e-05,-3.25344,0.354429,0.166465,3.6125,0.111889,
2,1,0,1,0,46276.9,0.119655,0.119352,0.581739,24,0.00925107,10,6.94318e-05,-3.23527,0.574142,0.102762,2.33556,0.119352,
2,1,0,0,0,46278.4,0.127146,0.126812,0.596314,24,0.0101587,10,7.56199e-05,-3.22452,0.963897,0.0612099,1.42808,0.1268121,
2,1,0,1,0,46279.9,0.134637,0.134336,0.594197,24,0.0110804,10,7.98219e-05,-3.22607,-0.341411,-0.172812,-3.99799,0.134336,
2,1,0,1,0,46281.4,0.142127,0.141809,0.532368,24,0.0119543,10,7.54946e-05,-3.27379,-0.102073,-0.578019,-11.9452,0.141809,
2,1,0,1,0,46282.9,0.149618,0.149316,0.427991,24,0.0126949,10,6.39058e-05,-3.36857,-0.0770548,-0.765689,-12.8047,0.149316,
2,1,0,1,0,46284.4,0.157109,0.156784,0.35773,24,0.0132981,10,5.60864e-05,-3.44644,-0.129273,-0.456397,-6.37646,0.1567843,
2,1,0,1,0,46285.9,0.1646,0.164299,0.326154,24,0.0138291,10,5.35868e-05,-3.48658,-0.23874,-0.247131,-3.15921,0.164299,
2,1,0,1,0,46287.4,0.172091,0.171783,0.311569,24,0.0143269,10,5.35222e-05,-3.50645,-0.492323,-0.11984,-1.46213,0.171783,
2,1,0,1,0,46288.9,0.179582,0.17926,0.303213,24,0.0148074,10,5.43538e-05,-3.51825,-0.806402,-0.0731645,-0.869443,0.17926,
2,1,0,1,0,46290.4,0.187074,0.18674,0.299256,24,0.0152774,10,5.58831e-05,-3.52396,-1.10614,-0.0533384,-0.618221,0.18674,
2,1,0,1,0,46291.9,0.194564,0.194201,0.294196,24,0.0157405,10,5.71332e-05,-3.53136,-1.5858,-0.0372053,-0.426679,0.194201,
2,1,0,1,0,46293.4,0.202056,0.201736,0.29156,24,0.0161984,10,5.88183e-05,-3.53527,-1.72644,-0.0341743,-0.387821,0.201736,
2,1,0,1,0,46294.9,0.209547,0.209192,0.28852,24,0.0166522,10,6.03562e-05,-3.53982,-0.953444,-0.0618809,-0.696426,0.209192,
2,1,0,1,0,46296.4,0.217038,0.216688,0.285609,24,0.0171018,10,6.1888e-05,-3.54423,-6.03619,-0.00977438,-0.10897,0.216688,
2,1,0,1,0,46297.9,0.224529,0.224199,0.283798,24,0.0175484,10,6.36272e-05,-3.54699,-2.29651,-0.0256911,-0.284324,0.224199,
2,1,0,1,0,46299.4,0.232019,0.231694,0.282397,24,0.0179923,10,6.54297e-05,-3.54914,6.28513,0.00938724,0.10329,0.231694,
2,1,0,0,0,46300.9,0.23951,0.239204,0.280962,24,0.0184337,10,6.72071e-05,-3.55135,-5.23583,-0.0112685,-0.123546,0.239204,
2,1,0,1,0,46302.4,0.247001,0.246698,0.278406,24,0.0188725,10,6.86823e-05,-3.55532,-2.09005,-0.0282289,-0.307488,0.246698,
2,1,0,0,0,46303.9,0.254492,0.254168,0.277601,24,0.0193088,10,7.05572e-05,-3.55658,-1.03065,-0.0572455,-0.620245,0.254168,
2,1,0,1,0,46305.4,0.261983,0.261669,0.275238,24,0.0197425,10,7.20212e-05,-3.56029,-2.81184,-0.0209827,-0.225977,0.261669,
2,1,0,0,0,46306.9,0.269474,0.269203,0.274253,24,0.0201735,10,7.38297e-05,-3.56185,6.33739,0.00930983,0.0994014,0.269203,
2,1,0,1,0,46308.4,0.276965,0.276644,0.271569,24,0.0206018,10,7.51279e-05,-3.56612,-1.6137,-0.036562,-0.388382,0.276644,
2,1,0,0,0,46309.9,0.284456,0.284148,0.270096,24,0.0210271,10,7.67473e-05,-3.56848,-2.80605,-0.021026,-0.221736,0.2841478,
2,1,0,1,0,46311.4,0.291947,0.291633,0.268168,24,0.0214497,10,7.82066e-05,-3.57159,-1.01368,-0.0582038,-0.609928,0.291633,
2,1,0,1,0,46312.9,0.299437,0.299172,0.266103,24,0.0218693,10,7.96107e-05,-3.57495,-0.00266642,-22.1271,-118.549,0.299172,
2,0,0,1,0,46314.3,0.293744,0.293384,-0.0145873,24,0.0219119,10,-4.27967e-06,-4.83603,-0.00324477,-18.1831,5.90813,0.293384,
2,0,0,1,0,46315.8,0.286253,0.285975,-0.0459935,24,0.0218455,10,-1.3153e-05,-4.3373,-0.0320801,-1.83915,3.26467,0.285975,
2,0,0,0,0,46317.3,0.278763,0.278442,-0.0670572,24,0.0217413,10,-1.86715e-05,-4.17355,-0.0623574,-0.946159,2.44903,0.278442,
2,0,0,1,0,46318.8,0.271272,0.270969,-0.0836464,24,0.0216092,10,-2.26656e-05,-4.07755,-0.0882424,-0.668613,2.17882,0.270969,
2,0,0,0,0,46320.3,0.263781,0.263449,-0.0980881,24,0.0214542,10,-2.58412e-05,-4.00838,-0.140787,-0.419074,1.59658,0.263449,
2,0,0,1,0,46321.8,0.25629,0.255991,-0.10898,24,0.0212796,10,-2.78979e-05,-3.96265,-0.234489,-0.251611,1.06934,0.2559908,
2,0,0,0,0,46323.3,0.248799,0.248456,-0.119017,24,0.0210882,10,-2.95704e-05,-3.92439,-0.218468,-0.270063,1.2656,0.248456,
2,0,0,1,0,46324.8,0.241308,0.241001,-0.129734,24,0.0208815,10,-3.12659e-05,-3.88695,-0.263558,-0.22386,1.13101,0.241001,
2,0,0,0,0,46326.3,0.233817,0.233485,-0.140021,24,0.0206607,10,-3.26927e-05,-3.85381,-0.20414,-0.289017,1.56793,0.233485,
2,0,0,1,0,46327.7,0.226326,0.225999,-0.147201,24,0.0204259,10,-3.32673e-05,-3.83209,-0.371885,-0.158651,0.918355,0.225999,
2,0,0,0,0,46329.2,0.218835,0.218514,-0.157152,24,0.0201781,10,-3.43399e-05,-3.80368,-0.291084,-0.202691,1.23989,0.218514,
2,0,0,1,0,46330.7,0.211344,0.211071,-0.164967,24,0.019917,10,-3.48198e-05,-3.7826,-0.398071,-0.148215,0.957484,0.211071,
2,0,0,1,0,46332.2,0.203854,0.203515,-0.17318,24,0.0196426,10,-3.52448e-05,-3.7615,-0.307426,-0.191916,1.30638,0.203515,
2,0,0,1,0,46333.7,0.196363,0.196025,-0.183866,24,0.0193546,10,-3.60424e-05,-3.7355,-0.352224,-0.167507,1.19854,0.196025,
2,0,0,1,0,46335.2,0.188871,0.188517,-0.192734,24,0.0190518,10,-3.63337e-05,-3.71504,-0.239763,-0.246076,1.85334,0.188517,
2,0,0,1,0,46336.7,0.181381,0.181049,-0.205635,24,0.0187326,10,-3.723e-05,-3.6869,-0.246978,-0.238888,1.91286,0.181049,
2,0,0,1,0,46338.2,0.173889,0.173546,-0.219161,24,0.0183946,10,-3.80346e-05,-3.65924,-0.265881,-0.221904,1.89367,0.1735464,
2,0,0,1,0,46339.7,0.166398,0.166061,-0.235232,24,0.0180343,10,-3.90629e-05,-3.6285,-0.257491,-0.229134,2.10781,0.166061,
2,0,0,1,0,46341.2,0.158907,0.158577,-0.256159,24,0.0176452,10,-4.06208e-05,-3.59149,-0.168607,-0.349927,3.51454,0.1585765,
2,0,0,1,0,46342.7,0.151416,0.151102,-0.290204,24,0.0172158,10,-4.38504e-05,-3.5373,-0.120699,-0.488819,5.55187,0.151102,
2,0,0,1,0,46344.2,0.143925,0.143612,-0.345127,24,0.0167219,10,-4.95642e-05,-3.46202,-0.0782102,-0.754378,10.1776,0.143612,
2,0,0,1,0,46345.7,0.136434,0.136103,-0.428271,24,0.0161232,10,-5.82889e-05,-3.36828,-0.0826306,-0.714021,11.9122,0.1361029,
2,0,0,1,0,46347.2,0.128943,0.128638,-0.520036,24,0.0153899,10,-6.68963e-05,-3.28397,-0.122377,-0.482117,9.73268,0.128638,
2,0,0,0,0,46348.7,0.121453,0.121133,-0.582961,24,0.0145369,10,-7.06155e-05,-3.23436,-0.242353,-0.243447,5.50842,0.121133,
2,0,0,1,0,46350.2,0.113962,0.11362,-0.601531,24,0.0136193,10,-6.83457e-05,-3.22074,-2.32419,-0.0253852,0.598765,0.11362,
2,0,0,0,0,46351.7,0.106471,0.106115,-0.601388,24,0.0126912,10,-6.38164e-05,-3.22085,1.18746,0.0496859,-1.168,0.1061151,
2,0,0,1,0,46353.2,0.0989798,0.0986583,-0.591603,24,0.0117739,10,-5.83666e-05,-3.22797,1.18272,0.049885,-1.14856,0.0986583,
2,0,0,0,0,46354.7,0.0914889,0.0911676,-0.578158,24,0.010876,10,-5.27093e-05,-3.23795,0.53637,0.109999,-2.47584,0.0911676,
2,0,0,1,0,46356.2,0.083998,0.0836514,-0.557606,24,0.0100026,10,-4.66446e-05,-3.25367,0.363146,0.162469,-3.53546,0.0836514,
2,0,0,0,0,46357.7,0.076507,0.0761491,-0.540765,24,0.00915721,10,-4.11787e-05,-3.26699,0.503697,0.117134,-2.46525,0.0761491,
2,0,0,1,0,46359.2,0.069016,0.0686838,-0.520995,24,0.00833964,10,-3.57839e-05,-3.28317,0.618406,0.0954065,-1.9469,0.0686838,
2,0,0,0,0,46360.7,0.0615251,0.0612175,-0.50629,24,0.00754724,10,-3.09938e-05,-3.2956,0.522843,0.112845,-2.23099,0.0612175,
2,0,0,1,0,46362.2,0.0540342,0.0536759,-0.490916,24,0.00677962,10,-2.63503e-05,-3.30899,0.573203,0.10293,-1.96475,0.0536759,
2,0,0,1,0,46363.7,0.0465436,0.0461845,-0.471974,24,0.00603716,10,-2.17979e-05,-3.32608,0.566306,0.104184,-1.92164,0.0461845,
2,0,0,1,0,46365.2,0.0390526,0.0387277,-0.454282,24,0.00532062,10,-1.75933e-05,-3.34267,0.37229,0.158479,-2.81265,0.0387277,
2,0,0,1,0,46366.7,0.0315615,0.0312326,-0.438241,24,0.00463025,10,-1.36874e-05,-3.35829,0.595128,0.0991384,-1.6953,0.0312326,
2,0,0,1,0,46368.2,0.0240706,0.0237027,-0.423907,24,0.00396337,10,-1.00477e-05,-3.37273,0.614145,0.0960685,-1.59119,0.0237027,
2,0,0,1,0,46369.7,0.0165795,0.0162563,-0.415149,24,0.00331516,10,-6.74877e-06,-3.3818,1.18797,0.0496647,-0.803242,0.0162563,
2,0,0,1,0,46371.2,0.00908846,0.0087613,-0.410016,24,0.00267727,10,-3.59228e-06,-3.3872,3.31524,0.0177966,-0.284402,0.0087613,
2,0,0,1,0,46372.7,0.00159739,0.00125452,-0.416288,24,0.00203977,10,-5.22243e-07,-3.38061, , , ,0.001254524,
2,0,0,0,0,46373,0.000199195,-0.000126815,-0.413525,24,0.00192004,10,5.24413e-08,-3.3835, , , ,-0.000126815,

File: 20221101_1-115_003_TrumpetPlot_ParaChange_from10_every3_03_CV_C01_24.csv
mode,ox/red,error,control changes,counter inc.,time/s,control/V,Ewe/V,<I>/mA,cycle number,(Q-Qo)/C,I Range,P/W,log(|I|),Tafel slope mV/dec,alpha_eff,dI/d(E-IR),E-IR/V,
2,0,0,1,0,48223.1,2.44065e-05,-0.00042076,-0.101938,25,0.0000000E+000,10,4.28915e-08,-3.99166, , , ,-0.00042076,
2,1,0,1,0,48224.6,0.00729041,0.00695632,0.199564,25,0.000248009,10,1.38823e-06,-3.69992,0.0816238,0.722828,5.5926,0.00695632,
2,1,0,1,0,48226.1,0.0147815,0.0144748,0.230829,25,0.000591912,10,3.3412e-06,-3.63671,0.147272,0.400619,3.61247,0.0144748,
2,1,0,1,0,48227.6,0.0222725,0.0219388,0.257153,25,0.000977454,10,5.64163e-06,-3.58981,0.177129,0.333091,3.32695,0.02193884,
2,1,0,1,0,48229.1,0.0297635,0.0294605,0.282175,25,0.0014012,10,8.313e-06,-3.54948,0.185767,0.317603,3.50015,0.0294605,
2,1,0,1,0,48230.6,0.0372545,0.0369235,0.308947,25,0.00186417,10,1.14074e-05,-3.51012,0.194357,0.303566,3.66306,0.0369235,
2,1,0,1,0,48232.1,0.0447456,0.0443871,0.334422,25,0.00236626,10,1.4844e-05,-3.4757,0.233604,0.252564,3.28726,0.0443871,
2,1,0,1,0,48233.6,0.0522367,0.0519001,0.357764,25,0.00290523,10,1.8568e-05,-3.4464,0.220589,0.267466,3.73548,0.0519001,
2,1,0,1,0,48235.1,0.0597277,0.05941,0.38022,25,0.00347911,10,2.25888e-05,-3.41997,0.312178,0.188995,2.80168,0.05941,
2,1,0,1,0,48236.6,0.0672187,0.0669313,0.400346,25,0.00408382,10,2.67957e-05,-3.39756,0.420823,0.140202,2.18063,0.0669313,
2,1,0,1,0,48238.1,0.0747092,0.0743899,0.415623,25,0.00471482,10,3.09181e-05,-3.3813,0.580071,0.101712,1.64747,0.0743899,
2,1,0,0,0,48239.6,0.0822001,0.081871,0.428769,25,0.00536828,10,3.51037e-05,-3.36778,0.498949,0.118249,1.98719,0.081871,
2,1,0,1,0,48241.1,0.0896911,0.0893935,0.449144,25,0.00604607,10,4.01505e-05,-3.34761,0.313389,0.188264,3.31332,0.0893935,
2,1,0,0,0,48242.6,0.097182,0.0968068,0.479862,25,0.00676135,10,4.64539e-05,-3.31888,0.204691,0.288239,5.3918,0.0968068,
2,1,0,1,0,48244.1,0.104673,0.104371,0.521329,25,0.00752993,10,5.44115e-05,-3.28289,0.217545,0.271208,5.49125,0.104371,
2,1,0,0,0,48245.6,0.112164,0.111815,0.556642,25,0.00835696,10,6.22408e-05,-3.25442,0.33712,0.175012,3.7892,0.111815,
2,1,0,1,0,48247.1,0.119655,0.119326,0.581329,25,0.00923005,10,6.93675e-05,-3.23558,0.634394,0.0930021,2.11241,0.119326,
2,1,0,0,0,48248.6,0.127146,0.126816,0.595957,25,0.0101345,10,7.5577e-05,-3.22479,0.831509,0.0709553,1.65459,0.126816,
2,1,0,1,0,48250.1,0.134637,0.134281,0.593555,25,0.0110525,10,7.97029e-05,-3.22654,-0.348025,-0.169528,-3.91814,0.134281,
2,1,0,1,0,48251.6,0.142127,0.141801,0.531738,25,0.011923,10,7.54007e-05,-3.2743,-0.10159,-0.580766,-11.9808,0.1418006,
2,1,0,1,0,48253.1,0.149618,0.149297,0.428471,25,0.0126616,10,6.39693e-05,-3.36808,-0.0805726,-0.732259,-12.2846,0.149297,
2,1,0,1,0,48254.6,0.157109,0.156832,0.360922,25,0.013266,10,5.6604e-05,-3.44259,-0.126847,-0.465129,-6.55617,0.1568318,
2,1,0,1,0,48256.1,0.1646,0.164293,0.330246,25,0.0137996,10,5.4257e-05,-3.48116,-0.285891,-0.206373,-2.66347,0.164293,
2,1,0,1,0,48257.6,0.172091,0.171753,0.315016,25,0.0143009,10,5.41049e-05,-3.50167,-0.480872,-0.122694,-1.50807,0.171753,
2,1,0,1,0,48259.1,0.179582,0.179239,0.306768,25,0.0147844,10,5.49847e-05,-3.51319,-0.739114,-0.0798253,-0.953248,0.179239,
2,1,0,1,0,48260.6,0.187074,0.186773,0.300513,25,0.0152575,10,5.61276e-05,-3.52214,-0.999664,-0.0590198,-0.691464,0.1867729,
2,1,0,1,0,48262.1,0.194564,0.194257,0.296703,25,0.0157241,10,5.76367e-05,-3.52768,-3.12046,-0.0189075,-0.219537,0.194257,
2,1,0,1,0,48263.6,0.202056,0.201737,0.293884,25,0.0161852,10,5.92872e-05,-3.53182,-1.37698,-0.0428474,-0.489947,0.201737,
2,1,0,1,0,48265,0.209547,0.209262,0.2929,25,0.0166424,10,6.12928e-05,-3.53328,-0.933655,-0.0631925,-0.718482,0.209262,
2,1,0,1,0,48266.5,0.217038,0.216686,0.288454,25,0.0170953,10,6.25039e-05,-3.53992,-1.65046,-0.0357477,-0.404484,0.216686,
2,1,0,1,0,48268,0.224529,0.224214,0.287311,25,0.0175452,10,6.44192e-05,-3.54165,-1.83862,-0.0320893,-0.359235,0.224214,
2,1,0,1,0,48269.5,0.232019,0.231734,0.28467,25,0.0179918,10,6.59677e-05,-3.54566,-3.19907,-0.0184428,-0.205314,0.231734,
2,1,0,0,0,48271,0.23951,0.239179,0.283022,25,0.0184351,10,6.76929e-05,-3.54818,-1.73078,-0.0340887,-0.3765,0.239179,
2,1,0,1,0,48272.5,0.247001,0.246678,0.280745,25,0.0188755,10,6.92538e-05,-3.55169,-1.74762,-0.0337602,-0.370266,0.246678,
2,1,0,0,0,48274,0.254492,0.254214,0.279372,25,0.019313,10,7.10201e-05,-3.55382,-1.93737,-0.0304537,-0.332237,0.254214,
2,1,0,1,0,48275.5,0.261983,0.261715,0.277481,25,0.0197478,10,7.2621e-05,-3.55677,-5.78737,-0.0101946,-0.110504,0.261715,
2,1,0,0,0,48277,0.269474,0.269179,0.275881,25,0.0201803,10,7.42614e-05,-3.55928,-16.1918,-0.00364382,-0.0392484,0.269179,
2,1,0,1,0,48278.5,0.276965,0.276706,0.274275,25,0.0206106,10,7.58934e-05,-3.56181,-4.41569,-0.0133614,-0.143153,0.276706,
2,1,0,0,0,48280,0.284456,0.284114,0.272738,25,0.021038,10,7.74885e-05,-3.56426,-1.85255,-0.031848,-0.338524,0.284114,
2,1,0,1,0,48281.5,0.291947,0.29164,0.270927,25,0.0214625,10,7.90129e-05,-3.56715,-4.51906,-0.0130558,-0.137954,0.2916396,
2,1,0,1,0,48283,0.299437,0.299185,0.268623,25,0.021884,10,8.03681e-05,-3.57086,-0.0028086,-21.0069,-115.986,0.299185,
2,0,0,1,0,48284.4,0.293744,0.293419,-0.0156246,25,0.0219291,10,-4.58455e-06,-4.80619,-0.00358191,-16.4716,5.76872,0.293419,
2,0,0,1,0,48285.9,0.286253,0.285962,-0.0456041,25,0.0218645,10,-1.3041e-05,-4.341,-0.0317436,-1.85864,3.28688,0.285962,
2,0,0,0,0,48287.4,0.278763,0.278461,-0.0668297,25,0.0217614,10,-1.86094e-05,-4.17503,-0.0631797,-0.933844,2.42243,0.278461,
2,0,0,1,0,48288.9,0.271272,0.270989,-0.0834079,25,0.0216303,10,-2.26026e-05,-4.07879,-0.0844748,-0.698433,2.26507,0.270989,
2,0,0,0,0,48290.4,0.263781,0.263468,-0.0970148,25,0.0214762,10,-2.55603e-05,-4.01316,-0.136533,-0.43213,1.64365,0.263468,
2,0,0,1,0,48291.9,0.25629,0.255985,-0.109416,25,0.0213026,10,-2.80089e-05,-3.96092,-0.189103,-0.311999,1.325,0.2559855,
2,0,0,0,0,48293.4,0.248799,0.248512,-0.120711,25,0.0211124,10,-2.99982e-05,-3.91825,-0.274817,-0.214688,1.00986,0.248512,
2,0,0,1,0,48294.9,0.241308,0.241023,-0.129611,25,0.0209067,10,-3.12394e-05,-3.88736,-0.218505,-0.270017,1.37077,0.241023,
2,0,0,0,0,48296.4,0.233817,0.233538,-0.139786,25,0.0206869,10,-3.26454e-05,-3.85453,-0.291836,-0.202168,1.10252,0.233538,
2,0,0,1,0,48297.9,0.226326,0.226049,-0.148613,25,0.0204529,10,-3.35938e-05,-3.82794,-0.286682,-0.205803,1.19535,0.226049,
2,0,0,0,0,48299.4,0.218835,0.21851,-0.157709,25,0.0202059,10,-3.44609e-05,-3.80214,-0.212384,-0.277799,1.71009,0.2185097,
2,0,0,1,0,48300.9,0.211344,0.211068,-0.165368,25,0.0199451,10,-3.49038e-05,-3.78155,-0.336345,-0.175415,1.13359,0.211068,
2,0,0,1,0,48302.4,0.203854,0.203497,-0.174283,25,0.019671,10,-3.5466e-05,-3.75875,-0.352334,-0.167455,1.14556,0.2034969,
2,0,0,1,0,48303.9,0.196363,0.196066,-0.184084,25,0.0193835,10,-3.60927e-05,-3.73498,-0.288393,-0.204582,1.46975,0.196066,
2,0,0,1,0,48305.4,0.188871,0.188547,-0.193936,25,0.0190807,10,-3.6566e-05,-3.71234,-0.255494,-0.230925,1.75273,0.188547,
2,0,0,1,0,48306.9,0.181381,0.181105,-0.205468,25,0.0187618,10,-3.72113e-05,-3.68726,-0.333168,-0.177088,1.42449,0.181105,
2,0,0,1,0,48308.4,0.173889,0.173533,-0.218319,25,0.0184245,10,-3.78855e-05,-3.66091,-0.284569,-0.207331,1.76463,0.173533,
2,0,0,1,0,48309.9,0.166398,0.16609,-0.235825,25,0.0180651,10,-3.91681e-05,-3.62741,-0.256818,-0.229735,2.11719,0.16609,
2,0,0,1,0,48311.4,0.158907,0.158559,-0.255675,25,0.0176772,10,-4.05398e-05,-3.59231,-0.193786,-0.30446,3.05826,0.158559,
2,0,0,1,0,48312.9,0.151416,0.151101,-0.29036,25,0.0172491,10,-4.38735e-05,-3.53706,-0.124164,-0.475177,5.38506,0.151101,
2,0,0,1,0,48314.4,0.143925,0.143619,-0.343417,25,0.0167571,10,-4.93212e-05,-3.46418,-0.078886,-0.747915,10.0587,0.143619,
2,0,0,1,0,48315.9,0.136434,0.136082,-0.425875,25,0.0161617,10,-5.79539e-05,-3.37072,-0.0815255,-0.7237,12.0123,0.136082,
2,0,0,1,0,48317.4,0.128943,0.12867,-0.516346,25,0.0154338,10,-6.64385e-05,-3.28706,-0.111219,-0.530484,10.6165,0.12867,
2,0,0,0,0,48318.9,0.121453,0.12115,-0.580046,25,0.0145866,10,-7.02723e-05,-3.23654,-0.239433,-0.246416,5.54989,0.12115,
2,0,0,1,0,48320.4,0.113962,0.113636,-0.599752,25,0.0136745,10,-6.81532e-05,-3.22203,-1.55621,-0.0379126,0.890527,0.1136355,
2,0,0,0,0,48321.9,0.106471,0.106148,-0.597205,25,0.0127515,10,-6.33921e-05,-3.22388,2.61909,0.0225269,-0.52665,0.106148,
2,0,0,1,0,48323.3,0.0989798,0.0986816,-0.589159,25,0.0118397,10,-5.81392e-05,-3.22977,1.75498,0.0336186,-0.770026,0.0986816,
2,0,0,0,0,48324.8,0.0914889,0.0911432,-0.577749,25,0.0109453,10,-5.26579e-05,-3.23826,0.682567,0.0864383,-1.93917,0.0911432,
2,0,0,1,0,48326.3,0.083998,0.0836992,-0.556844,25,0.010075,10,-4.66074e-05,-3.25427,0.431879,0.136612,-2.96879,0.0836992,
2,0,0,0,0,48327.8,0.076507,0.0761925,-0.53967,25,0.00923192,10,-4.11188e-05,-3.26787,0.553113,0.106669,-2.24879,0.07619255,
2,0,0,1,0,48329.3,0.069016,0.0686838,-0.520309,25,0.0084161,10,-3.57368e-05,-3.28374,0.506655,0.11645,-2.37686,0.0686838,
2,0,0,0,0,48330.8,0.0615251,0.0612292,-0.505612,25,0.00762488,10,-3.09582e-05,-3.29618,0.486236,0.12134,-2.39734,0.0612292,
2,0,0,1,0,48332.3,0.0540342,0.0537268,-0.48966,25,0.00685879,10,-2.63078e-05,-3.31011,0.618224,0.0954347,-1.82085,0.0537268,
2,0,0,1,0,48333.8,0.0465436,0.0462313,-0.471073,25,0.00611767,10,-2.17783e-05,-3.32691,0.576623,0.10232,-1.88482,0.0462313,
2,0,0,1,0,48335.3,0.0390526,0.0387659,-0.454456,25,0.0054027,10,-1.76174e-05,-3.34251,0.429073,0.137506,-2.43718,0.0387659,
2,0,0,1,0,48336.8,0.0315615,0.0312558,-0.438442,25,0.00471363,10,-1.37039e-05,-3.35809,0.499693,0.118072,-2.0187,0.0312558,
2,0,0,1,0,48338.3,0.0240706,0.0237131,-0.422569,25,0.00404842,10,-1.00204e-05,-3.3741,0.672909,0.087679,-1.44986,0.0237131,
2,0,0,1,0,48339.8,0.0165795,0.0162786,-0.414582,25,0.00340135,10,-6.74882e-06,-3.38239,2.68717,0.0219562,-0.354838,0.0162786,
2,0,0,1,0,48341.3,0.00908846,0.00876222,-0.410868,25,0.00276468,10,-3.60011e-06,-3.3863,-8.02626,-0.00735087,0.117688,0.00876222,
2,0,0,1,0,48342.8,0.00159739,0.00122509,-0.41601,25,0.0021281,10,-5.09647e-07,-3.3809, , , ,0.00122509,
2,0,0,0,0,48343.1,0.000199195,-0.000168808,-0.414285,25,0.00200845,10,6.99345e-08,-3.3827, , , ,-0.000168808,