Folder: Figs_alphaMnO2_OER_Tafel_sleope/Figure_codes/Fig_3-5/rawdata_trumpetplot_data/after 10th (part 24)

File: 20221101_1-115_003_TrumpetPlot_ParaChange_from10_every3_03_CV_C01_11.csv
mode,ox/red,error,control changes,counter inc.,time/s,control/V,Ewe/V,<I>/mA,cycle number,(Q-Qo)/C,I Range,P/W,log(|I|),Tafel slope mV/dec,alpha_eff,dI/d(E-IR),E-IR/V,
2,0,0,1,0,22611.4,2.44065e-05,-0.000268062,-0.0898536,12,0.0000000E+000,10,2.40863e-08,-4.04646, , , ,-0.000268062,
2,1,0,1,0,22612.9,0.00729041,0.00699876,0.20944,12,0.000273724,10,1.46582e-06,-3.67894,0.0857856,0.687761,5.55871,0.00699876,
2,1,0,1,0,22614.4,0.0147815,0.0144864,0.240682,12,0.000639045,10,3.4866e-06,-3.61856,0.134896,0.437374,4.11603,0.0144864,
2,1,0,1,0,22615.9,0.0222725,0.0219826,0.269822,12,0.00104862,10,5.9314e-06,-3.56892,0.155535,0.379335,3.96551,0.0219826,
2,1,0,1,0,22617.4,0.0297635,0.0294764,0.295323,12,0.00149844,10,8.70505e-06,-3.5297,0.214071,0.275609,3.17228,0.0294764,
2,1,0,1,0,22618.9,0.0372545,0.0369289,0.322941,12,0.00198857,10,1.19258e-05,-3.49088,0.201204,0.293234,3.70346,0.0369289,
2,1,0,1,0,22620.4,0.0447456,0.0444368,0.349312,12,0.00251832,10,1.55223e-05,-3.45679,0.26005,0.226879,3.08327,0.0444368,
2,1,0,1,0,22621.9,0.0522367,0.051882,0.372401,12,0.00308649,10,1.93209e-05,-3.42899,0.256218,0.230273,3.35271,0.051882,
2,1,0,1,0,22623.4,0.0597277,0.05941,0.396372,12,0.00369067,10,2.35484e-05,-3.4019,0.329122,0.179265,2.77225,0.05941001,
2,1,0,1,0,22624.9,0.0672187,0.0669208,0.418482,12,0.00432703,10,2.80051e-05,-3.37832,0.392191,0.150437,2.44133,0.0669208,
2,1,0,1,0,22626.4,0.0747092,0.0744111,0.433328,12,0.00499096,10,3.22444e-05,-3.36318,0.595029,0.0991549,1.68035,0.0744111,
2,1,0,0,0,22627.9,0.0822001,0.0819028,0.447309,12,0.00567951,10,3.66359e-05,-3.34939,0.549815,0.107309,1.88704,0.0819028,
2,1,0,1,0,22629.4,0.0896911,0.0893564,0.469983,12,0.00639501,10,4.1996e-05,-3.32792,0.278737,0.211669,3.90534,0.0893564,
2,1,0,0,0,22630.9,0.097182,0.0968652,0.505019,12,0.00715319,10,4.89187e-05,-3.29669,0.185262,0.318467,6.2825,0.0968652,
2,1,0,1,0,22632.4,0.104673,0.104353,0.551748,12,0.00797164,10,5.75764e-05,-3.25826,0.215753,0.273461,5.87146,0.1043527,
2,1,0,0,0,22633.9,0.112164,0.111852,0.590964,12,0.00885534,10,6.61004e-05,-3.22844,0.365395,0.161469,3.70987,0.111852,
2,1,0,1,0,22635.4,0.119655,0.119345,0.617944,12,0.00979051,10,7.37483e-05,-3.20905,0.495807,0.118998,2.87818,0.119345,
2,1,0,0,0,22636.9,0.127146,0.126793,0.641836,12,0.010766,10,8.13804e-05,-3.19258,0.531007,0.11111,2.79338,0.126793,
2,1,0,1,0,22638.4,0.134637,0.1343,0.64885,12,0.0117699,10,8.71404e-05,-3.18786,-0.408012,-0.144604,-3.65637,0.1343,
2,1,0,1,0,22639.9,0.142127,0.141822,0.583504,12,0.0127312,10,8.27536e-05,-3.23396,-0.103157,-0.571943,-12.9596,0.141822,
2,1,0,1,0,22641.4,0.149618,0.14935,0.466693,12,0.0135455,10,6.97004e-05,-3.33097,-0.0737144,-0.800386,-14.5989,0.14935,
2,1,0,1,0,22642.9,0.157109,0.156765,0.383009,12,0.0142016,10,6.00424e-05,-3.41679,-0.103323,-0.571026,-8.53917,0.156765,
2,1,0,1,0,22644.4,0.1646,0.164275,0.342773,12,0.0147671,10,5.6309e-05,-3.46499,-0.210165,-0.280732,-3.7517,0.164275,
2,1,0,1,0,22645.9,0.172091,0.171773,0.319667,12,0.0152883,10,5.49101e-05,-3.4953,-0.394414,-0.149589,-1.87991,0.171773,
2,1,0,1,0,22647.4,0.179582,0.179289,0.309423,12,0.0157855,10,5.54761e-05,-3.50945,-0.529306,-0.111467,-1.34635,0.179289,
2,1,0,1,0,22648.9,0.187074,0.186746,0.301989,12,0.0162683,10,5.63953e-05,-3.52001,-0.932818,-0.0632492,-0.744617,0.186746,
2,1,0,1,0,22650.4,0.194564,0.194231,0.296847,12,0.016741,10,5.76569e-05,-3.52747,-0.990427,-0.0595702,-0.689287,0.194231,
2,1,0,1,0,22651.9,0.202056,0.201781,0.292113,12,0.0172066,10,5.89429e-05,-3.53445,-0.666451,-0.0885287,-1.00426,0.201781,
2,1,0,1,0,22653.4,0.209547,0.209269,0.287076,12,0.0176664,10,6.00761e-05,-3.542,-1.50096,-0.0393081,-0.441855,0.209269,
2,1,0,1,0,22654.9,0.217038,0.21675,0.284161,12,0.0181204,10,6.15917e-05,-3.54644,-3.01718,-0.0195547,-0.217805,0.21675,
2,1,0,1,0,22656.4,0.224529,0.22424,0.282293,12,0.0185702,10,6.33016e-05,-3.5493,-1.15321,-0.0511615,-0.561927,0.22424,
2,1,0,1,0,22657.8,0.232019,0.231701,0.279866,12,0.019016,10,6.48454e-05,-3.55305,2.37534,0.0248385,0.271713,0.231701,
2,1,0,0,0,22659.3,0.23951,0.239217,0.278175,12,0.0194585,10,6.65442e-05,-3.55568,-1.6115,-0.0366117,-0.396944,0.239217,
2,1,0,1,0,22660.8,0.247001,0.2467,0.276296,12,0.0198978,10,6.81621e-05,-3.55863,-1.87067,-0.0315396,-0.339286,0.2467,
2,1,0,0,0,22662.3,0.254492,0.254186,0.272698,12,0.0203341,10,6.9316e-05,-3.56432,-1.94174,-0.0303852,-0.32545,0.254186,
2,1,0,1,0,22663.8,0.261983,0.26167,0.271432,12,0.020767,10,7.10256e-05,-3.56634,-2.87763,-0.020503,-0.216945,0.26167,
2,1,0,0,0,22665.3,0.269474,0.269194,0.269774,12,0.0211972,10,7.26215e-05,-3.569,-28.3443,-0.00208154,-0.0218666,0.269194,
2,1,0,1,0,22666.8,0.276965,0.276653,0.268176,12,0.0216249,10,7.41918e-05,-3.57158,-1.59962,-0.0368837,-0.386507,0.276653,
2,1,0,0,0,22668.3,0.284456,0.284161,0.26578,12,0.0220497,10,7.55241e-05,-3.57548,-1.19242,-0.049479,-0.513525,0.284161,
2,1,0,1,0,22669.8,0.291947,0.291639,0.26425,12,0.0224716,10,7.70654e-05,-3.57799,-2.31881,-0.0254441,-0.263107,0.291639,
2,1,0,1,0,22671.3,0.299437,0.299129,0.260353,12,0.0228904,10,7.78791e-05,-3.58444,-0.00228917,-25.7735,-123.453,0.299129,
2,0,0,1,0,22672.7,0.293744,0.293418,-0.0194279,12,0.0229182,10,-5.70048e-06,-4.71157,-0.00685083,-8.61209,5.3705,0.293418,
2,0,0,1,0,22674.2,0.286253,0.285951,-0.0479297,12,0.0228409,10,-1.37055e-05,-4.3194,-0.034161,-1.72712,3.25444,0.285951,
2,0,0,0,0,22675.7,0.278763,0.278463,-0.0693198,12,0.0227276,10,-1.9303e-05,-4.15914,-0.0715472,-0.824631,2.20674,0.278463,
2,0,0,1,0,22677.2,0.271272,0.271,-0.0831973,12,0.022588,10,-2.25465e-05,-4.07989,-0.0995276,-0.592801,1.9394,0.271,
2,0,0,0,0,22678.7,0.263781,0.263463,-0.0976302,12,0.0224264,10,-2.5722e-05,-4.01042,-0.128121,-0.460503,1.75162,0.263463,
2,0,0,1,0,22680.2,0.25629,0.255961,-0.10873,12,0.0222464,10,-2.78306e-05,-3.96365,-0.140512,-0.419893,1.76673,0.255961,
2,0,0,0,0,22681.7,0.248799,0.248484,-0.119635,12,0.0220497,10,-2.97275e-05,-3.92214,-0.204077,-0.289106,1.35588,0.248484,
2,0,0,1,0,22683.2,0.241308,0.241012,-0.130651,12,0.0218379,10,-3.14884e-05,-3.88389,-0.23069,-0.255755,1.29546,0.241012,
2,0,0,0,0,22684.7,0.233817,0.233494,-0.138055,12,0.021612,10,-3.22351e-05,-3.85995,-0.233884,-0.252261,1.35981,0.233494,
2,0,0,1,0,22686.2,0.226326,0.226033,-0.147806,12,0.0213725,10,-3.34091e-05,-3.83031,-0.300842,-0.196116,1.13075,0.2260333,
2,0,0,0,0,22687.7,0.218835,0.218535,-0.155087,12,0.0211198,10,-3.38919e-05,-3.80943,-0.253711,-0.232548,1.41449,0.218535,
2,0,0,1,0,22689.2,0.211344,0.211048,-0.165178,12,0.0208537,10,-3.48604e-05,-3.78205,-0.30056,-0.1963,1.26609,0.211048,
2,0,0,1,0,22690.7,0.203854,0.203534,-0.173199,12,0.0205733,10,-3.52519e-05,-3.76145,-0.619049,-0.0953074,0.651107,0.203534,
2,0,0,1,0,22692.2,0.196363,0.196055,-0.184798,12,0.020279,10,-3.62305e-05,-3.7333,-0.300838,-0.196119,1.40622,0.196055,
2,0,0,1,0,22693.7,0.188871,0.188522,-0.194878,12,0.0199686,10,-3.67387e-05,-3.71024,-0.224682,-0.262594,1.99242,0.188522,
2,0,0,1,0,22695.2,0.181381,0.181093,-0.209026,12,0.0196405,10,-3.78533e-05,-3.6798,-0.231442,-0.254924,2.06571,0.181093,
2,0,0,1,0,22696.7,0.173889,0.173623,-0.224761,12,0.0192911,10,-3.90237e-05,-3.64828,-0.222718,-0.264909,2.32224,0.173623,
2,0,0,1,0,22698.2,0.166398,0.166084,-0.244132,12,0.0189145,10,-4.05465e-05,-3.61237,-0.186739,-0.315948,3.03815,0.166084,
2,0,0,1,0,22699.7,0.158907,0.158616,-0.27203,12,0.0185019,10,-4.31482e-05,-3.56538,-0.137216,-0.429978,4.58891,0.158616,
2,0,0,1,0,22701.2,0.151416,0.15104,-0.317451,12,0.0180347,10,-4.79478e-05,-3.49832,-0.0952974,-0.619115,7.7052,0.15104,
2,0,0,1,0,22702.7,0.143925,0.143595,-0.394163,12,0.0174777,10,-5.65997e-05,-3.40432,-0.0680573,-0.866917,13.3195,0.143595,
2,0,0,1,0,22704.2,0.136434,0.136049,-0.502048,12,0.0167815,10,-6.83031e-05,-3.29925,-0.0779955,-0.756454,14.7486,0.136049,
2,0,0,1,0,22705.7,0.128943,0.128647,-0.602637,12,0.0159235,10,-7.75277e-05,-3.21994,-0.13481,-0.437654,10.2151,0.128647,
2,0,0,0,0,22707.2,0.121453,0.121168,-0.652837,12,0.0149487,10,-7.91027e-05,-3.1852,-0.497691,-0.118547,3.01454,0.121168,
2,0,0,1,0,22708.7,0.113962,0.113621,-0.653862,12,0.0139345,10,-7.42923e-05,-3.18451,1.2417,0.0475154,-1.21827,0.113621,
2,0,0,0,0,22710.2,0.106471,0.106135,-0.641259,12,0.0129324,10,-6.80602e-05,-3.19297,0.659777,0.0894241,-2.24397,0.106135,
2,0,0,1,0,22711.7,0.0989799,0.0986604,-0.620351,12,0.01196,10,-6.12041e-05,-3.20736,0.519881,0.113487,-2.7348,0.0986604,
2,0,0,0,0,22713.2,0.0914889,0.091157,-0.595456,12,0.0110236,10,-5.428e-05,-3.22515,0.354979,0.166207,-3.848,0.091157,
2,0,0,1,0,22714.7,0.083998,0.0836642,-0.567446,12,0.010125,10,-4.74749e-05,-3.24608,0.349253,0.168932,-3.73734,0.0836642,
2,0,0,0,0,22716.1,0.076507,0.076131,-0.546885,12,0.00926187,10,-4.16349e-05,-3.2621,0.449304,0.131314,-2.79867,0.076131,
2,0,0,1,0,22717.6,0.0690161,0.0686933,-0.527753,12,0.00842959,10,-3.62531e-05,-3.27757,0.640786,0.0920744,-1.89957,0.0686933,
2,0,0,0,0,22719.1,0.0615251,0.0612048,-0.511585,12,0.00762305,10,-3.13115e-05,-3.29108,0.552287,0.106829,-2.13803,0.0612048,
2,0,0,1,0,22720.6,0.0540342,0.0536844,-0.496173,12,0.00684172,10,-2.66368e-05,-3.30437,0.624724,0.0944418,-1.82223,0.0536844,
2,0,0,1,0,22722.1,0.0465436,0.0462078,-0.4774,12,0.00608589,10,-2.20596e-05,-3.32112,0.5285,0.111637,-2.08107,0.0462078,
2,0,0,1,0,22723.6,0.0390526,0.038735,-0.459857,12,0.00535666,10,-1.78126e-05,-3.33738,0.36809,0.160287,-2.86975,0.03873504,
2,0,0,1,0,22725.1,0.0315615,0.0311977,-0.443595,12,0.00465391,10,-1.38391e-05,-3.35301,0.395089,0.149333,-2.58355,0.0311977,
2,0,0,1,0,22726.6,0.0240706,0.0237791,-0.426091,12,0.00397548,10,-1.01321e-05,-3.3705,0.599388,0.0984337,-1.64775,0.0237791,
2,0,0,1,0,22728.1,0.0165795,0.0162786,-0.416967,12,0.00331642,10,-6.78766e-06,-3.3799,1.06831,0.0552275,-0.89892,0.0162786,
2,0,0,1,0,22729.6,0.00908846,0.0087284,-0.413083,12,0.00266887,10,-3.60556e-06,-3.38396,5.90198,0.00999664,-0.161197,0.0087284,
2,0,0,1,0,22731.1,0.00159739,0.00124711,-0.417421,12,0.00202276,10,-5.20569e-07,-3.37943, , , ,0.00124711,
2,0,0,0,0,22731.4,0.000199195,-0.000168808,-0.414402,12,0.00190162,10,6.99542e-08,-3.38258, , , ,-0.000168808,

File: 20221101_1-115_003_TrumpetPlot_ParaChange_from10_every3_03_CV_C01_12.csv
mode,ox/red,error,control changes,counter inc.,time/s,control/V,Ewe/V,<I>/mA,cycle number,(Q-Qo)/C,I Range,P/W,log(|I|),Tafel slope mV/dec,alpha_eff,dI/d(E-IR),E-IR/V,
2,0,0,1,0,24581.6,2.44065e-05,-0.000344411,-0.121655,13,0.0000000E+000,10,4.18994e-08,-3.91487, , , ,-0.000344411,
2,1,0,1,0,24583,0.00729041,0.00699237,0.204906,13,0.000265472,10,1.43278e-06,-3.68845,0.0777911,0.758441,6.0231,0.00699237,
2,1,0,1,0,24584.5,0.0147815,0.0144355,0.237777,13,0.000623927,10,3.43243e-06,-3.62383,0.131403,0.448999,4.16929,0.0144355,
2,1,0,1,0,24586,0.0222725,0.0219824,0.266425,13,0.00102744,10,5.85667e-06,-3.57443,0.176094,0.335047,3.48399,0.0219824,
2,1,0,1,0,24587.5,0.0297635,0.0294181,0.293935,13,0.00147113,10,8.647e-06,-3.53175,0.188853,0.312412,3.5664,0.0294181,
2,1,0,1,0,24589,0.0372545,0.0368992,0.320221,13,0.00195592,10,1.18159e-05,-3.49455,0.212273,0.277944,3.4804,0.0368992,
2,1,0,1,0,24590.5,0.0447456,0.0443785,0.34617,13,0.00248061,10,1.53625e-05,-3.46071,0.220001,0.26818,3.61331,0.0443785,
2,1,0,1,0,24592,0.0522367,0.0518767,0.370351,13,0.00304329,10,1.92126e-05,-3.43139,0.241977,0.243825,3.52182,0.0518767,
2,1,0,1,0,24593.5,0.0597277,0.0594355,0.393095,13,0.00364148,10,2.33638e-05,-3.4055,0.283315,0.208248,3.18918,0.0594355,
2,1,0,1,0,24595,0.0672187,0.0669176,0.414771,13,0.0042717,10,2.77555e-05,-3.38219,0.433648,0.136055,2.19342,0.0669176,
2,1,0,1,0,24596.5,0.0747092,0.0744153,0.43012,13,0.00492912,10,3.20075e-05,-3.36641,0.552747,0.10674,1.79194,0.0744153,
2,1,0,0,0,24598,0.0822001,0.0818774,0.445619,13,0.00561093,10,3.64861e-05,-3.35104,0.50166,0.11761,2.04766,0.0818774,
2,1,0,1,0,24599.5,0.0896911,0.0893575,0.467789,13,0.00631923,10,4.18004e-05,-3.32995,0.276925,0.213054,3.89753,0.0893575,
2,1,0,0,0,24601,0.097182,0.0968503,0.501504,13,0.00706988,10,4.85709e-05,-3.29973,0.183996,0.32066,6.27093,0.0968503,
2,1,0,1,0,24602.5,0.104673,0.104397,0.547734,13,0.00787978,10,5.7182e-05,-3.26143,0.210662,0.28007,5.9551,0.104397,
2,1,0,0,0,24604,0.112164,0.111839,0.584813,13,0.00875325,10,6.5405e-05,-3.23298,0.333532,0.176894,4.02393,0.111839,
2,1,0,1,0,24605.5,0.119655,0.11935,0.612028,13,0.00967649,10,7.30456e-05,-3.21323,0.536755,0.10992,2.62657,0.11935,
2,1,0,0,0,24607,0.127146,0.126825,0.632795,13,0.0106382,10,8.02541e-05,-3.19874,0.524713,0.112442,2.78617,0.126825,
2,1,0,1,0,24608.5,0.134637,0.134275,0.636333,13,0.0116255,10,8.54438e-05,-3.19632,-0.411975,-0.143212,-3.55587,0.134275,
2,1,0,1,0,24610,0.142127,0.141843,0.572901,13,0.0125688,10,8.1262e-05,-3.24192,-0.103894,-0.567886,-12.6373,0.141843,
2,1,0,1,0,24611.5,0.149618,0.149284,0.458602,13,0.0133684,10,6.84618e-05,-3.33856,-0.0757988,-0.778377,-13.9621,0.1492839,
2,1,0,1,0,24613,0.157109,0.156796,0.378998,13,0.0140151,10,5.94254e-05,-3.42136,-0.108563,-0.543463,-8.03529,0.156796,
2,1,0,1,0,24614.5,0.1646,0.164308,0.341921,13,0.0145763,10,5.61803e-05,-3.46607,-0.239455,-0.246393,-3.28293,0.164308,
2,1,0,1,0,24616,0.172091,0.171774,0.322164,13,0.0150965,10,5.53395e-05,-3.49192,-0.361358,-0.163273,-2.05725,0.171774,
2,1,0,1,0,24617.5,0.179582,0.179256,0.31031,13,0.0155939,10,5.56247e-05,-3.5082,-0.566889,-0.104077,-1.26181,0.179256,
2,1,0,1,0,24619,0.187074,0.186744,0.303005,13,0.0160774,10,5.65844e-05,-3.51855,-1.56843,-0.0376171,-0.444121,0.1867443,
2,1,0,1,0,24620.5,0.194564,0.19421,0.297779,13,0.0165513,10,5.78318e-05,-3.52611,-1.94211,-0.0303793,-0.353105,0.19421,
2,1,0,1,0,24622,0.202056,0.201693,0.293077,13,0.0170175,10,5.91115e-05,-3.53302,-1.04927,-0.0562295,-0.642682,0.201693,
2,1,0,1,0,24623.5,0.209547,0.209216,0.290001,13,0.0174781,10,6.06726e-05,-3.5376,-1.2287,-0.0480183,-0.54264,0.209216,
2,1,0,1,0,24625,0.217038,0.216716,0.285759,13,0.017933,10,6.19286e-05,-3.544,-1.95109,-0.0302395,-0.338297,0.216716,
2,1,0,1,0,24626.5,0.224529,0.224207,0.283845,13,0.0183835,10,6.36399e-05,-3.54692,-3.1499,-0.0187307,-0.207285,0.224207,
2,1,0,1,0,24628,0.232019,0.231715,0.28013,13,0.0188298,10,6.49104e-05,-3.55264,-2.63645,-0.0223786,-0.246265,0.231715,
2,1,0,0,0,24629.5,0.23951,0.239223,0.279002,13,0.0192731,10,6.67436e-05,-3.55439,32.1462,0.00183537,0.0200102,0.239223,
2,1,0,1,0,24631,0.247001,0.246673,0.277135,13,0.0197135,10,6.83618e-05,-3.55731,-2.10975,-0.0279654,-0.302823,0.246673,
2,1,0,0,0,24632.5,0.254492,0.254217,0.274925,13,0.0201505,10,6.98907e-05,-3.56079,-1.24615,-0.0473458,-0.508777,0.254217,
2,1,0,1,0,24634,0.261983,0.261634,0.273212,13,0.0205846,10,7.14815e-05,-3.5635,-4.67296,-0.0126258,-0.134861,0.261634,
2,1,0,0,0,24635.5,0.269474,0.26914,0.271602,13,0.0210163,10,7.30991e-05,-3.56607,-6.70137,-0.00880417,-0.0932204,0.26914,
2,1,0,1,0,24637,0.276965,0.276668,0.268982,13,0.0214449,10,7.44186e-05,-3.57028,-4.76837,-0.0123732,-0.130186,0.276668,
2,1,0,0,0,24638.5,0.284456,0.284127,0.267598,13,0.0218702,10,7.60317e-05,-3.57252,-3.68563,-0.0160081,-0.167012,0.284127,
2,1,0,1,0,24640,0.291947,0.291591,0.266021,13,0.0222925,10,7.75693e-05,-3.57508,-4.11465,-0.014339,-0.149093,0.291591,
2,1,0,1,0,24641.5,0.299437,0.29912,0.263519,13,0.0227124,10,7.8824e-05,-3.57919,-0.00249202,-23.6756,-118.707,0.29912,
2,0,0,1,0,24642.8,0.293744,0.293442,-0.0166616,13,0.0227462,10,-4.88922e-06,-4.77828,-0.00455991,-12.9388,5.72895,0.293442,
2,0,0,1,0,24644.3,0.286253,0.285928,-0.045772,13,0.0226746,10,-1.30875e-05,-4.3394,-0.0361747,-1.63097,2.92446,0.285928,
2,0,0,0,0,24645.8,0.278763,0.278479,-0.0662739,13,0.0225662,10,-1.84559e-05,-4.17866,-0.0706091,-0.835586,2.16232,0.278479,
2,0,0,1,0,24647.3,0.271272,0.270949,-0.0823566,13,0.022431,10,-2.23144e-05,-4.0843,-0.0981187,-0.601312,1.92669,0.270949,
2,0,0,0,0,24648.8,0.263781,0.263509,-0.0965584,13,0.0222735,10,-2.5444e-05,-4.01521,-0.131987,-0.447014,1.67867,0.263509,
2,0,0,1,0,24650.3,0.25629,0.25597,-0.108536,13,0.0220969,10,-2.77818e-05,-3.96443,-0.189105,-0.311995,1.30799,0.25597,
2,0,0,0,0,24651.8,0.248799,0.248515,-0.118927,13,0.0219036,10,-2.95551e-05,-3.92472,-0.19255,-0.306414,1.41417,0.248515,
2,0,0,1,0,24653.3,0.241308,0.241,-0.128351,13,0.0216949,10,-3.09326e-05,-3.8916,-0.202839,-0.290871,1.45817,0.241,
2,0,0,0,0,24654.8,0.233817,0.233503,-0.137543,13,0.0214719,10,-3.21166e-05,-3.86156,-0.363912,-0.162127,0.864596,0.233503,
2,0,0,1,0,24656.3,0.226326,0.226048,-0.14581,13,0.0212353,10,-3.296e-05,-3.83621,-0.293879,-0.200763,1.15159,0.226048,
2,0,0,0,0,24657.8,0.218835,0.21857,-0.155082,13,0.0209857,10,-3.38963e-05,-3.80944,-0.319951,-0.184403,1.11222,0.21857,
2,0,0,1,0,24659.3,0.211344,0.211049,-0.164221,13,0.0207228,10,-3.46586e-05,-3.78457,-0.320223,-0.184247,1.17808,0.211049,
2,0,0,1,0,24660.8,0.203854,0.203516,-0.172661,13,0.020446,10,-3.51393e-05,-3.76281,-0.298234,-0.197831,1.3366,0.203516,
2,0,0,1,0,24662.3,0.196363,0.196031,-0.182986,13,0.0201549,10,-3.58709e-05,-3.73758,-0.302212,-0.195227,1.38607,0.196031,
2,0,0,1,0,24663.8,0.188871,0.188543,-0.192099,13,0.0198479,10,-3.62188e-05,-3.71648,-0.271294,-0.217476,1.63782,0.188543,
2,0,0,1,0,24665.3,0.181381,0.181067,-0.207354,13,0.0195238,10,-3.7545e-05,-3.68329,-0.244282,-0.241524,1.94129,0.181067,
2,0,0,1,0,24666.8,0.173889,0.173546,-0.220894,13,0.0191791,10,-3.83354e-05,-3.65582,-0.225622,-0.261499,2.25518,0.173546,
2,0,0,1,0,24668.3,0.166398,0.16605,-0.241294,13,0.0188083,10,-4.0067e-05,-3.61745,-0.215735,-0.273484,2.58055,0.16605,
2,0,0,1,0,24669.8,0.158907,0.158557,-0.265999,13,0.018403,10,-4.2176e-05,-3.57512,-0.140484,-0.419976,4.40458,0.158557,
2,0,0,1,0,24671.3,0.151416,0.151107,-0.311536,13,0.0179464,10,-4.70752e-05,-3.50649,-0.0980329,-0.601839,7.32591,0.151107,
2,0,0,1,0,24672.8,0.143925,0.143626,-0.382068,13,0.0174053,10,-5.48748e-05,-3.41786,-0.0693951,-0.850204,12.6946,0.143626,
2,0,0,1,0,24674.3,0.136434,0.136109,-0.4863,13,0.0167323,10,-6.61901e-05,-3.3131,-0.0782166,-0.754316,14.2063,0.136109,
2,0,0,1,0,24675.8,0.128943,0.128633,-0.584137,13,0.0159011,10,-7.51395e-05,-3.23349,-0.129654,-0.455056,10.3239,0.128633,
2,0,0,0,0,24677.3,0.121453,0.12117,-0.639214,13,0.0149508,10,-7.74533e-05,-3.19435,-0.359427,-0.16415,4.08737,0.12117,
2,0,0,1,0,24678.8,0.113962,0.113616,-0.645996,13,0.013955,10,-7.33957e-05,-3.18977,1.3019,0.0453185,-1.14431,0.113616,
2,0,0,0,0,24680.3,0.106471,0.106186,-0.633715,13,0.012967,10,-6.72918e-05,-3.19811,0.775178,0.0761116,-1.88596,0.106186,
2,0,0,1,0,24681.8,0.0989799,0.0986562,-0.614144,13,0.0120048,10,-6.05891e-05,-3.21173,0.688883,0.0856459,-2.04722,0.0986562,
2,0,0,0,0,24683.3,0.0914889,0.0911867,-0.592189,13,0.0110747,10,-5.39998e-05,-3.22754,0.425402,0.138692,-3.1979,0.0911867,
2,0,0,1,0,24684.8,0.083998,0.0836631,-0.567988,13,0.0101802,10,-4.75196e-05,-3.24566,0.359958,0.163908,-3.62966,0.0836631,
2,0,0,0,0,24686.3,0.076507,0.0761989,-0.548134,13,0.00931921,10,-4.17672e-05,-3.26111,0.430714,0.136982,-2.92509,0.0761989,
2,0,0,1,0,24687.8,0.0690161,0.0686849,-0.527305,13,0.00848842,10,-3.62179e-05,-3.27794,0.591077,0.0998177,-2.06336,0.0686849,
2,0,0,0,0,24689.3,0.0615251,0.0612111,-0.513061,13,0.0076832,10,-3.1405e-05,-3.28983,0.626157,0.0942255,-1.88662,0.0612111,
2,0,0,1,0,24690.8,0.0540342,0.0537088,-0.49601,13,0.00690316,10,-2.66401e-05,-3.30451,0.541447,0.108967,-2.10493,0.0537088,
2,0,0,1,0,24692.3,0.0465436,0.0462492,-0.47701,13,0.00614852,10,-2.20613e-05,-3.32147,0.510301,0.115618,-2.16138,0.0462492,
2,0,0,1,0,24693.8,0.0390526,0.0387296,-0.461065,13,0.00541936,10,-1.78569e-05,-3.33624,0.3844,0.153486,-2.7567,0.0387296,
2,0,0,1,0,24695.3,0.0315615,0.0312461,-0.444082,13,0.00471708,10,-1.38758e-05,-3.35254,0.45565,0.129485,-2.24048,0.03124612,
2,0,0,1,0,24696.8,0.0240706,0.0237547,-0.426523,13,0.00403928,10,-1.01319e-05,-3.37006,0.710285,0.0830652,-1.39179,0.0237547,
2,0,0,1,0,24698.3,0.0165795,0.0163062,-0.417015,13,0.00338138,10,-6.79992e-06,-3.37985,1.09902,0.0536841,-0.876498,0.0163062,
2,0,0,1,0,24699.8,0.00908846,0.00878568,-0.412387,13,0.00273581,10,-3.6231e-06,-3.3847,1.73592,0.0339878,-0.548046,0.00878568,
2,0,0,1,0,24701.3,0.00159739,0.0012334,-0.417334,13,0.00209168,10,-5.14738e-07,-3.37952, , , ,0.0012334,
2,0,0,0,0,24701.5,0.000199195,-0.000142085,-0.414524,13,0.00197093,10,5.88978e-08,-3.38245, , , ,-0.000142085,