Folder: Figs_alphaMnO2_OER_Tafel_sleope/Figure_codes/Fig_3-5/rawdata_trumpetplot_data/after 10th (part 129)

File: 20221101_1-115_003_TrumpetPlot_ParaChange_from10_every3_09_CV_C01_14.csv
mode,ox/red,error,control changes,counter inc.,time/s,control/V,Ewe/V,<I>/mA,cycle number,(Q-Qo)/C,I Range,P/W,log(|I|),Tafel slope mV/dec,alpha_eff,dI/d(E-IR),E-IR/V,
2,0,0,0,0,28764.3,2.44065e-05,-0.000306236,-5.32058,15,0.0000000E+000,10,1.62935e-06,-2.27404, , , ,-0.000306236,
2,1,0,1,0,28764.4,0.00978761,0.00947601,1.19734,15,-0.000106632,10,1.13461e-05,-2.92178,0.00844974,6.98247,279.19,0.00947601,
2,1,0,1,0,28764.5,0.0197755,0.0194454,2.94174,15,0.00011448,10,5.72032e-05,-2.5314,0.0613565,0.961593,109.623,0.0194454,
2,1,0,1,0,28764.6,0.0297635,0.0294591,3.80023,15,0.00045555,10,0.000111951,-2.42019,0.127367,0.46323,68.6096,0.0294591,
2,1,0,1,0,28764.7,0.0397514,0.0394605,4.4287,15,0.000868561,10,0.000174759,-2.35372,0.166107,0.355192,61.4362,0.0394605,
2,1,0,1,0,28764.8,0.0497484,0.0494431,4.9955,15,0.00134041,10,0.000246993,-2.30142,0.211376,0.279123,54.3262,0.0494431,
2,1,0,1,0,28764.9,0.0597273,0.0594457,5.50561,15,0.00186527,10,0.000327285,-2.25919,0.256367,0.230139,49.4218,0.0594457,
2,1,0,1,0,28765,0.0697152,0.0693828,5.97011,15,0.0024399,10,0.000414223,-2.22402,0.324832,0.181632,42.3663,0.0693828,
2,1,0,1,0,28765.1,0.0797031,0.0794072,6.39576,15,0.00305898,10,0.00050787,-2.19411,0.382337,0.154314,38.4882,0.0794072,
2,1,0,1,0,28765.2,0.0896911,0.089368,6.74599,15,0.00371663,10,0.000602876,-2.17095,0.448218,0.131632,34.6885,0.089368,
2,1,0,1,0,28765.3,0.099679,0.0994009,7.13822,15,0.00440929,10,0.000709546,-2.14641,0.358442,0.164601,45.8198,0.09940093,
2,1,0,1,0,28765.4,0.109667,0.109362,7.70749,15,0.00514918,10,0.000842908,-2.11309,0.268276,0.219923,66.1415,0.109362,
2,1,0,1,0,28765.5,0.119655,0.119309,8.44168,15,0.00595562,10,0.00100717,-2.07357,0.272035,0.216883,71.4076,0.119309,
2,1,0,1,0,28765.6,0.129643,0.129316,9.08628,15,0.00683338,10,0.001175,-2.04161,0.374104,0.15771,55.897,0.129316,
2,1,0,1,0,28765.7,0.139631,0.139323,9.52728,15,0.00776586,10,0.00132737,-2.02103,0.598871,0.0985187,36.647,0.139323,
2,1,0,1,0,28765.8,0.149619,0.149284,9.67127,15,0.00872913,10,0.00144376,-2.01452,-1.07049,-0.0551152,-20.7387,0.149284,
2,1,0,1,0,28765.9,0.159607,0.15933,8.83345,15,0.00966437,10,0.00140743,-2.05387,-0.135543,-0.435285,-149.662,0.15933,
2,1,0,1,0,28766,0.169595,0.169274,7.07879,15,0.0104617,10,0.00119825,-2.15004,-0.0945596,-0.623945,-172.455,0.169274,
2,1,0,1,0,28766.1,0.179582,0.179305,5.68565,15,0.0110937,10,0.00101946,-2.24522,-0.124723,-0.473047,-105.235,0.179305,
2,1,0,1,0,28766.2,0.18957,0.18926,4.92113,15,0.0116203,10,0.000931374,-2.30794,-0.204342,-0.288731,-55.5183,0.18926,
2,1,0,1,0,28766.3,0.199558,0.199278,4.49809,15,0.0120889,10,0.000896371,-2.34697,-0.349836,-0.16865,-29.5917,0.199278,
2,1,0,1,0,28766.4,0.209546,0.209214,4.24931,15,0.0125253,10,0.000889016,-2.37168,-0.443936,-0.132902,-22.0584,0.209214,
2,1,0,1,0,28766.5,0.219534,0.219263,4.08434,15,0.0129413,10,0.000895547,-2.38888,-0.713562,-0.0826838,-13.1881,0.219263,
2,1,0,1,0,28766.6,0.229522,0.229199,3.97207,15,0.0133443,10,0.000910395,-2.40098,-0.894586,-0.0659523,-10.2315,0.229199,
2,1,0,1,0,28766.7,0.23951,0.239168,3.89502,15,0.0137379,10,0.000931566,-2.40949,-1.89848,-0.0310774,-4.7277,0.2391682,
2,1,0,1,0,28766.8,0.249498,0.249207,3.83697,15,0.0141243,10,0.000956202,-2.41601,-1.62698,-0.0362635,-5.43375,0.2492073,
2,1,0,1,0,28766.9,0.259486,0.259209,3.78599,15,0.0145057,10,0.000981361,-2.42182,-1.25511,-0.0470078,-6.94268,0.259209,
2,1,0,1,0,28767,0.269474,0.26918,3.7405,15,0.0148823,10,0.00100687,-2.42707,-2.10098,-0.0280822,-4.10076,0.26918,
2,1,0,1,0,28767.1,0.279462,0.279169,3.70078,15,0.0152548,10,0.00103314,-2.43171,-2.1129,-0.0279237,-4.03314,0.279169,
2,1,0,1,0,28767.2,0.28945,0.289152,3.65417,15,0.0156228,10,0.00105661,-2.43721,-4.46774,-0.0132058,-1.88331,0.2891525,
2,1,0,1,0,28767.3,0.299438,0.299155,3.6116,15,0.0159861,10,0.00108043,-2.4423,-0.0337651,-1.74737,-228.917,0.299155,
2,0,0,1,0,28767.4,0.291747,0.291445,-0.664246,15,0.0160598,10,-0.000193591,-3.17767,-0.00808971,-7.29321,157.819,0.291445,
2,0,0,1,0,28767.5,0.281759,0.281418,-1.49875,15,0.0159437,10,-0.000421775,-2.82427,-0.0695187,-0.848692,49.3115,0.281418,
2,0,0,1,0,28767.6,0.271771,0.271433,-1.8607,15,0.0157746,10,-0.000505054,-2.73032,-0.135623,-0.435029,31.5231,0.271433,
2,0,0,1,0,28767.7,0.261783,0.261473,-2.10836,15,0.015576,10,-0.000551279,-2.67605,-0.263351,-0.224035,18.3961,0.261473,
2,0,0,1,0,28767.8,0.251795,0.251468,-2.29626,15,0.015356,10,-0.000577436,-2.63898,-0.282801,-0.208627,18.691,0.251468,
2,0,0,1,0,28767.9,0.241807,0.241481,-2.45432,15,0.0151186,10,-0.000592673,-2.61007,-0.371415,-0.158852,15.2447,0.2414811,
2,0,0,1,0,28768,0.231815,0.231534,-2.60442,15,0.0148661,10,-0.000603011,-2.58429,-0.397433,-0.148453,15.0622,0.231534,
2,0,0,1,0,28768.1,0.221831,0.221506,-2.73558,15,0.0146,10,-0.000605947,-2.56295,-0.494205,-0.119384,12.7393,0.221506,
2,0,0,1,0,28768.2,0.211843,0.211529,-2.86219,15,0.0143205,10,-0.000605436,-2.5433,-0.622629,-0.0947595,10.5833,0.211529,
2,0,0,1,0,28768.3,0.201856,0.201507,-2.99273,15,0.0140281,10,-0.000603058,-2.52393,-0.593688,-0.0993788,11.6183,0.201507,
2,0,0,1,0,28768.4,0.191868,0.191545,-3.13152,15,0.0137223,10,-0.000599828,-2.50424,-0.507528,-0.11625,14.2257,0.191545,
2,0,0,1,0,28768.5,0.18188,0.181568,-3.29879,15,0.0134024,10,-0.000598956,-2.48164,-0.388401,-0.151905,19.4916,0.181568,
2,0,0,1,0,28768.6,0.171892,0.17152,-3.4838,15,0.0130647,10,-0.000597541,-2.45795,-0.380103,-0.155221,21.1061,0.17152,
2,0,0,1,0,28768.7,0.161904,0.161583,-3.75134,15,0.0127046,10,-0.000606154,-2.42581,-0.266067,-0.221749,32.479,0.161583,
2,0,0,1,0,28768.8,0.151916,0.151592,-4.17285,15,0.0123108,10,-0.000632568,-2.37957,-0.177855,-0.331731,54.1632,0.151592,
2,0,0,1,0,28768.9,0.141928,0.14161,-4.94022,15,0.0118597,10,-0.000699582,-2.30625,-0.111874,-0.527381,101.776,0.14161,
2,0,0,1,0,28769,0.13194,0.131624,-6.16544,15,0.0113092,10,-0.000811521,-2.21004,-0.0986575,-0.598029,144.142,0.131624,
2,0,0,1,0,28769.1,0.121952,0.121661,-7.5949,15,0.0106212,10,-0.000924005,-2.11948,-0.131023,-0.450302,133.21,0.121661,
2,0,0,1,0,28769.2,0.111964,0.111671,-8.75167,15,0.00980188,10,-0.000977306,-2.05791,-0.206165,-0.286178,97.6224,0.111671,
2,0,0,1,0,28769.3,0.101976,0.101666,-9.49998,15,0.00888672,10,-0.000965829,-2.02228,-0.448789,-0.131465,48.6779,0.101666,
2,0,0,1,0,28769.4,0.0919883,0.0916735,-9.72412,15,0.00792215,10,-0.000891444,-2.01215,22.1155,0.00266781,-1.01194,0.0916735,
2,0,0,1,0,28769.5,0.0820004,0.0816696,-9.46666,15,0.00696133,10,-0.000773138,-2.0238,0.531617,0.110982,-41.0004,0.0816696,
2,0,0,1,0,28769.6,0.0720124,0.0717059,-9.05183,15,0.00603702,10,-0.000649069,-2.04326,0.522507,0.112917,-39.9126,0.0717059,
2,0,0,1,0,28769.7,0.0620245,0.0616989,-8.73584,15,0.00514981,10,-0.000538992,-2.0587,0.707731,0.083365,-28.4385,0.06169891,
2,0,0,1,0,28769.8,0.0520366,0.0517171,-8.48251,15,0.00429037,10,-0.000438691,-2.07148,0.721778,0.0817426,-27.0307,0.0517171,
2,0,0,1,0,28769.9,0.0420486,0.0417112,-8.2076,15,0.00345698,10,-0.000342349,-2.08578,0.722425,0.0816694,-26.1732,0.0417112,
2,0,0,1,0,28770,0.0320607,0.0317293,-7.9098,15,0.00265258,10,-0.000250973,-2.10183,0.529126,0.111505,-34.3868,0.0317293,
2,0,0,1,0,28770.1,0.0220728,0.0217748,-7.52787,15,0.00188163,10,-0.000163918,-2.12333,0.428009,0.137848,-40.4909,0.0217748,
2,0,0,1,0,28770.2,0.0120848,0.0117262,-7.12919,15,0.00114998,10,-8.35986e-05,-2.14696,0.413957,0.142527,-39.675,0.0117262,
2,0,0,1,0,28770.3,0.0020969,0.00171832,-6.84557,15,0.000455447,10,-1.17629e-05,-2.16459,0.710473,0.0830432,-22.078,0.001718321,
2,0,0,1,0,28770.4,-0.00789103,-0.00826358,-6.59756,15,-0.000213753,10,5.45194e-05,-2.18062,1.14547,0.0515071,-13.2825,-0.00826358,
2,0,0,1,0,28770.5,-0.017879,-0.0182583,-6.54296,15,-0.000868138,10,0.000119463,-2.18423,-10.9368,-0.00539463,1.37678,-0.0182583,
2,0,0,1,0,28770.6,-0.0278669,-0.0282258,-6.58508,15,-0.0015227,10,0.000185869,-2.18144,-1.78692,-0.0330177,8.49773,-0.0282258,
2,0,0,1,0,28770.7,-0.0378548,-0.038246,-6.73185,15,-0.0021872,10,0.000257467,-2.17187,-0.960376,-0.0614342,16.1368,-0.038246,
2,0,0,1,0,28770.8,-0.0478428,-0.048228,-6.94037,15,-0.00286941,10,0.00033472,-2.15862,-0.560506,-0.105262,28.5355,-0.048228,
2,0,0,1,0,28770.9,-0.0578217,-0.058186,-7.21702,15,-0.00357519,10,0.000419929,-2.14164,-0.564557,-0.104507,29.437,-0.05818595,
2,0,0,1,0,28771,-0.0678187,-0.068209,-7.555,15,-0.00431208,10,0.000515319,-2.12177,-0.440442,-0.133956,39.5005,-0.068209,
2,0,0,1,0,28771.1,-0.0778066,-0.0781999,-7.96717,15,-0.00508658,10,0.000623032,-2.0987,-0.416427,-0.141682,44.0702,-0.0781999,
2,0,0,1,0,28771.2,-0.0877945,-0.0881548,-8.45585,15,-0.00590628,10,0.000745424,-2.07284,-0.369932,-0.159489,52.6499,-0.0881548,
2,0,0,1,0,28771.3,-0.0977825,-0.0981995,-8.96753,15,-0.00677673,10,0.000880607,-2.04733,-0.392194,-0.150436,52.6747,-0.0981995,
2,0,0,1,1,28771.4,-0.0927386,-0.093085,-2.61654,15,-0.00735061,10,0.000243561,-2.58227,-0.0113829,-5.18322,520.381,-0.093085,
2,1,0,1,1,28771.5,-0.0827529,-0.0830914,0.935415,15,-0.00741162,10,-7.7725e-05,-3.029,0.00760935,7.75362,244.762,-0.0830914,
2,1,0,1,1,28771.6,-0.0727627,-0.0731397,2.76112,15,-0.0072181,10,-0.000201948,-2.55891,0.0465305,1.26799,135.063,-0.0731397,
2,1,0,1,1,28771.7,-0.0627748,-0.0631369,3.80782,15,-0.00688535,10,-0.000240414,-2.41932,0.109268,0.539957,79.9971,-0.06313695,
2,1,0,1,1,28771.8,-0.0527868,-0.0531084,4.42691,15,-0.00647091,10,-0.000235106,-2.3539,0.224817,0.262435,45.2751,-0.0531084,
2,1,0,1,1,28771.9,-0.0427989,-0.0431594,4.7885,15,-0.0060085,10,-0.000206669,-2.3198,0.372282,0.158482,29.619,-0.0431594,
2,1,0,1,1,28772,-0.0328109,-0.0331659,4.99268,15,-0.00551919,10,-0.000165587,-2.30167,0.978813,0.0602771,11.717,-0.0331659,
2,1,0,1,1,28772.1,-0.022823,-0.0232077,5.07696,15,-0.00501577,10,-0.000117825,-2.2944,2.85399,0.0206728,4.09412,-0.0232077,
2,1,0,1,1,28772.2,-0.0128351,-0.013178,5.09919,15,-0.00450694,10,-6.71973e-05,-2.2925,14.7451,0.00400134,0.796876,-0.013178,
2,1,0,1,1,28772.3,-0.00284713,-0.00322286,5.11031,15,-0.00399666,10,-1.64698e-05,-2.29155,-9.10547,-0.00647962,-1.29154,-0.00322286,
2,1,0,1,1,28772.3,-2.55332e-05,-0.000439847,5.11861,15,-0.00385307,10,-2.25141e-06,-2.29085, , , ,-0.000439847,

File: 20221101_1-115_003_TrumpetPlot_ParaChange_from10_every3_09_CV_C01_15.csv
mode,ox/red,error,control changes,counter inc.,time/s,control/V,Ewe/V,<I>/mA,cycle number,(Q-Qo)/C,I Range,P/W,log(|I|),Tafel slope mV/dec,alpha_eff,dI/d(E-IR),E-IR/V,
2,0,0,0,0,30734.5,2.44065e-05,-0.000325324,-5.33584,16,0.0000000E+000,10,1.73588e-06,-2.2728, , , ,-0.000325324,
2,1,0,1,0,30734.6,0.00978761,0.00946777,1.25253,16,-0.00010367,10,1.18586e-05,-2.90221,0.00861717,6.8468,289.594,0.00946777,
2,1,0,1,0,30734.7,0.0197755,0.0194657,3.02548,16,0.000124402,10,5.88932e-05,-2.51921,0.0615184,0.959063,112.703,0.0194657,
2,1,0,1,0,30734.8,0.0297635,0.0294565,3.90228,16,0.000474609,10,0.000114948,-2.40868,0.128597,0.458798,69.7575,0.02945653,
2,1,0,1,0,30734.9,0.0397514,0.0394497,4.53169,16,0.000897674,10,0.000178774,-2.34374,0.168406,0.350344,62.0725,0.0394497,
2,1,0,1,0,30735,0.0497484,0.0494353,5.10607,16,0.00138009,10,0.00025242,-2.29191,0.216474,0.27255,54.2003,0.0494353,
2,1,0,1,0,30735.1,0.0597273,0.0594141,5.61894,16,0.00191574,10,0.000333844,-2.25035,0.250309,0.235709,51.6453,0.0594141,
2,1,0,1,0,30735.2,0.0697152,0.0694085,6.08745,16,0.00250151,10,0.000422521,-2.21556,0.322207,0.183112,43.5075,0.0694085,
2,1,0,1,0,30735.3,0.0797031,0.0793798,6.50492,16,0.00313197,10,0.000516359,-2.18676,0.387495,0.15226,38.6682,0.0793798,
2,1,0,1,0,30735.4,0.0896911,0.0893357,6.86497,16,0.00380113,10,0.000613287,-2.16336,0.444487,0.132737,35.5889,0.0893357,
2,1,0,1,0,30735.5,0.099679,0.0993727,7.25807,16,0.00450536,10,0.000721254,-2.13918,0.376045,0.156896,44.3697,0.0993727,
2,1,0,1,0,30735.6,0.109667,0.109339,7.81643,16,0.00525676,10,0.000854642,-2.10699,0.275795,0.213927,65.27,0.109339,
2,1,0,1,0,30735.7,0.119655,0.119354,8.55095,16,0.00607433,10,0.00102059,-2.06799,0.27484,0.21467,71.6379,0.119354,
2,1,0,1,0,30735.8,0.129643,0.129283,9.20471,16,0.00696367,10,0.00119001,-2.03599,0.377853,0.156145,56.0535,0.129283,
2,1,0,1,0,30735.9,0.139631,0.139359,9.65101,16,0.00790834,10,0.00134496,-2.01543,0.640497,0.092116,34.7,0.139359,
2,1,0,1,0,30736,0.149619,0.149319,9.7915,16,0.00888402,10,0.00146206,-2.00915,-1.14254,-0.0516394,-19.68,0.149319,
2,1,0,1,0,30736.1,0.159607,0.159278,8.95565,16,0.00983137,10,0.00142644,-2.0479,-0.140808,-0.419009,-146.122,0.159278,
2,1,0,1,0,30736.2,0.169595,0.169279,7.21539,16,0.0106421,10,0.00122141,-2.14174,-0.0961517,-0.613614,-172.884,0.169279,
2,1,0,1,0,30736.3,0.179582,0.179264,5.80003,16,0.0112871,10,0.00103974,-2.23657,-0.12339,-0.47816,-108.482,0.1792642,
2,1,0,1,0,30736.4,0.18957,0.189215,4.99904,16,0.0118234,10,0.000945892,-2.30111,-0.193887,-0.304302,-59.4578,0.189215,
2,1,0,1,0,30736.5,0.199558,0.199228,4.55736,16,0.0122989,10,0.000907956,-2.34129,-0.326279,-0.180827,-32.1371,0.199228,
2,1,0,1,0,30736.6,0.209546,0.209266,4.29436,16,0.0127404,10,0.000898667,-2.3671,-0.435385,-0.135512,-22.7215,0.209266,
2,1,0,1,0,30736.7,0.219534,0.219258,4.1171,16,0.0131606,10,0.00090271,-2.38541,-0.661212,-0.0892301,-14.3384,0.219258,
2,1,0,1,0,30736.8,0.229522,0.229198,3.99607,16,0.0135669,10,0.000915892,-2.39837,-0.861847,-0.0684576,-10.6956,0.229198,
2,1,0,1,0,30736.9,0.23951,0.239203,3.91932,16,0.0139632,10,0.000937516,-2.40679,-1.67933,-0.0351331,-5.37562,0.239203,
2,1,0,1,0,30737,0.249498,0.249197,3.85925,16,0.0143519,10,0.000961714,-2.4135,-1.85383,-0.0318259,-4.78887,0.249197,
2,1,0,1,0,30737.1,0.259486,0.25921,3.80388,16,0.0147351,10,0.000986003,-2.41977,-1.07699,-0.0547821,-8.11893,0.25921,
2,1,0,1,0,30737.2,0.269474,0.26912,3.75332,16,0.0151132,10,0.00101009,-2.42558,-2.3991,-0.0245925,-3.60096,0.2691195,
2,1,0,1,0,30737.3,0.279462,0.279141,3.70285,16,0.0154867,10,0.00103362,-2.43146,-1.65847,-0.0355749,-5.14761,0.279141,
2,1,0,1,0,30737.4,0.28945,0.289123,3.65928,16,0.0158555,10,0.00105798,-2.4366,-3.10421,-0.0190064,-2.7131,0.289123,
2,1,0,1,0,30737.5,0.299438,0.299123,3.61608,16,0.0162194,10,0.00108165,-2.44176,-0.0349705,-1.68714,-221.221,0.299123,
2,0,0,1,0,30737.6,0.291747,0.291406,-0.702905,16,0.0162911,10,-0.000204831,-3.1531,-0.00834327,-7.07157,163.086,0.291406,
2,0,0,1,0,30737.7,0.281759,0.281465,-1.56686,16,0.0161689,10,-0.000441016,-2.80497,-0.0741459,-0.795728,48.2656,0.281465,
2,0,0,1,0,30737.8,0.271771,0.271463,-1.93216,16,0.0159922,10,-0.00052451,-2.71396,-0.149419,-0.394863,29.7448,0.271463,
2,0,0,1,0,30737.9,0.261783,0.261469,-2.18077,16,0.0157858,10,-0.000570205,-2.66139,-0.267677,-0.220415,18.7131,0.261469,
2,0,0,1,0,30738,0.251795,0.25149,-2.36655,16,0.0155582,10,-0.000595164,-2.62588,-0.344596,-0.171215,15.792,0.25149,
2,0,0,1,0,30738.1,0.241807,0.241483,-2.51589,16,0.0153134,10,-0.000607546,-2.59931,-0.365621,-0.16137,15.903,0.2414832,
2,0,0,1,0,30738.2,0.231815,0.231506,-2.66905,16,0.0150537,10,-0.000617901,-2.57364,-0.395046,-0.14935,15.5302,0.231506,
2,0,0,1,0,30738.3,0.221831,0.221525,-2.79649,16,0.0147807,10,-0.000619491,-2.55339,-0.478084,-0.123409,13.4627,0.2215248,
2,0,0,1,0,30738.4,0.211843,0.211561,-2.92483,16,0.0144945,10,-0.000618781,-2.5339,-0.575977,-0.102435,11.6803,0.2115609,
2,0,0,1,0,30738.5,0.201856,0.2015,-3.05401,16,0.0141956,10,-0.000615381,-2.51513,-0.611512,-0.0964821,11.4982,0.2015,
2,0,0,1,0,30738.6,0.191868,0.191538,-3.19097,16,0.0138835,10,-0.000611192,-2.49608,-0.481237,-0.122601,15.2679,0.191538,
2,0,0,1,0,30738.7,0.18188,0.181538,-3.35053,16,0.0135573,10,-0.00060825,-2.47489,-0.39454,-0.149541,19.527,0.181538,
2,0,0,1,0,30738.8,0.171892,0.17157,-3.53949,16,0.0132134,10,-0.000607271,-2.45106,-0.386476,-0.152662,21.0981,0.17157,
2,0,0,1,0,30738.9,0.161904,0.161591,-3.81457,16,0.012847,10,-0.000616401,-2.41855,-0.26447,-0.223087,33.1811,0.161591,
2,0,0,1,0,30739,0.151916,0.151578,-4.23694,16,0.0124464,10,-0.000642229,-2.37295,-0.17819,-0.331107,54.8897,0.151578,
2,0,0,1,0,30739.1,0.141928,0.141581,-5.00293,16,0.011988,10,-0.000708318,-2.30078,-0.112565,-0.524141,102.56,0.141581,
2,0,0,1,0,30739.2,0.13194,0.131647,-6.24432,16,0.0114294,10,-0.000822048,-2.20451,-0.10166,-0.580367,141.617,0.131647,
2,0,0,1,0,30739.3,0.121952,0.121616,-7.67616,16,0.0107329,10,-0.000933542,-2.11486,-0.132909,-0.443914,132.797,0.121616,
2,0,0,1,0,30739.4,0.111964,0.111621,-8.8325,16,0.00990477,10,-0.000985896,-2.05392,-0.210913,-0.279737,96.3641,0.111621,
2,0,0,1,0,30739.5,0.101976,0.101644,-9.5956,16,0.00898013,10,-0.000975334,-2.01793,-0.463767,-0.127219,47.558,0.101644,
2,0,0,1,0,30739.6,0.0919883,0.0916482,-9.82394,16,0.0080055,10,-0.000900346,-2.00771,67.1449,0.000878697,-0.336691,0.0916482,
2,0,0,1,0,30739.7,0.0820004,0.0816933,-9.57748,16,0.00703399,10,-0.000782416,-2.01875,0.532079,0.110886,-41.4219,0.0816933,
2,0,0,1,0,30739.8,0.0720124,0.0716894,-9.173,16,0.00609794,10,-0.000657607,-2.03749,0.543724,0.108511,-38.8499,0.0716894,
2,0,0,1,0,30739.9,0.0620245,0.0616806,-8.85061,16,0.00519846,10,-0.000545911,-2.05303,0.702961,0.0839307,-29.0077,0.0616806,
2,0,0,1,0,30740,0.0520366,0.0516854,-8.58978,16,0.00432742,10,-0.000443966,-2.06602,0.755562,0.0780876,-26.1652,0.0516854,
2,0,0,1,0,30740.1,0.0420486,0.0417381,-8.30323,16,0.00348355,10,-0.000346561,-2.08075,0.693554,0.0850691,-27.5803,0.0417381,
2,0,0,1,0,30740.2,0.0320607,0.0317223,-7.98993,16,0.00267022,10,-0.000253459,-2.09746,0.51896,0.113689,-35.423,0.0317223,
2,0,0,1,0,30740.3,0.0220728,0.0217383,-7.59572,16,0.00189171,10,-0.000165118,-2.11943,0.411538,0.143365,-42.4911,0.0217383,
2,0,0,1,0,30740.4,0.0120848,0.0117325,-7.18758,16,0.00115382,10,-8.4328e-05,-2.14342,0.391119,0.150849,-42.3084,0.0117325,
2,0,0,1,0,30740.5,0.0020969,0.00174261,-6.88275,16,0.000454366,10,-1.1994e-05,-2.16224,0.737699,0.0799784,-21.3952,0.001742614,
2,0,0,1,0,30740.6,-0.00789103,-0.00826316,-6.63224,16,-0.000218855,10,5.48032e-05,-2.17834,1.11558,0.0528871,-13.7198,-0.00826316,
2,0,0,1,0,30740.7,-0.017879,-0.0182558,-6.57784,16,-0.000876798,10,0.000120084,-2.18192,-18.0329,-0.00327179,0.839194,-0.0182558,
2,0,0,1,0,30740.8,-0.0278669,-0.0282336,-6.62436,16,-0.00153481,10,0.000187029,-2.17886,-1.68075,-0.0351034,9.08246,-0.0282336,
2,0,0,1,0,30740.9,-0.0378548,-0.0381933,-6.77079,16,-0.00220298,10,0.000258599,-2.16936,-0.938667,-0.0628551,16.594,-0.03819333,
2,0,0,1,0,30741,-0.0478428,-0.0482328,-6.98294,16,-0.00288907,10,0.000336806,-2.15596,-0.568184,-0.10384,28.307,-0.0482328,
2,0,0,1,0,30741.1,-0.0578216,-0.0581647,-7.26324,16,-0.00359929,10,0.000422464,-2.13887,-0.563753,-0.104656,29.6658,-0.05816469,
2,0,0,1,0,30741.2,-0.0678187,-0.0681837,-7.61295,16,-0.00434133,10,0.000519079,-2.11845,-0.44338,-0.133069,39.5223,-0.0681837,
2,0,0,1,0,30741.3,-0.0778066,-0.0782185,-8.03185,16,-0.00512182,10,0.00062824,-2.09518,-0.409201,-0.144183,45.2202,-0.0782185,
2,0,0,1,0,30741.4,-0.0877945,-0.0881801,-8.53896,16,-0.00594858,10,0.000752967,-2.06859,-0.370978,-0.159039,52.9639,-0.0881801,
2,0,0,1,0,30741.5,-0.0977825,-0.0981665,-9.0585,16,-0.00682715,10,0.000889241,-2.04294,-0.383351,-0.153906,54.4208,-0.0981665,
2,0,0,1,1,30741.5,-0.0927386,-0.0930915,-2.64088,16,-0.00740602,10,0.000245844,-2.57825,-0.0113905,-5.17975,525.285,-0.0930915,
2,1,0,1,1,30741.6,-0.0827529,-0.0831058,0.944927,16,-0.00746735,10,-7.85289e-05,-3.0246,0.00774751,7.61535,243.9,-0.0831058,
2,1,0,1,1,30741.7,-0.0727627,-0.0731182,2.81161,16,-0.00727032,10,-0.00020558,-2.55104,0.0473708,1.24549,135.008,-0.0731182,
2,1,0,1,1,30741.8,-0.0627748,-0.0631517,3.88602,16,-0.0069304,10,-0.000245409,-2.4105,0.108131,0.545636,82.6056,-0.0631517,
2,1,0,1,1,30741.9,-0.0527868,-0.0531229,4.53392,16,-0.00650612,10,-0.000240855,-2.34353,0.214381,0.275211,48.603,-0.0531229,
2,1,0,1,1,30742,-0.0427989,-0.0431464,4.90777,16,-0.00603192,10,-0.000211753,-2.30912,0.388605,0.151825,29.0778,-0.0431464,
2,1,0,1,1,30742.1,-0.0328109,-0.0331534,5.11567,16,-0.00552999,10,-0.000169602,-2.2911,0.879377,0.0670929,13.3824,-0.0331534,
2,1,0,1,1,30742.2,-0.022823,-0.0231807,5.20896,16,-0.0050133,10,-0.000120748,-2.28325,2.36842,0.0249112,5.05972,-0.0231807,
2,1,0,1,1,30742.3,-0.0128351,-0.0131876,5.22407,16,-0.00449114,10,-6.88928e-05,-2.28199,-47.533,-0.00124124,-0.253277,-0.0131876,
2,1,0,1,1,30742.4,-0.00284713,-0.00322079,5.23484,16,-0.00396792,10,-1.68603e-05,-2.2811,-17.9448,-0.00328787,-0.671074,-0.00322079,
2,1,0,1,1,30742.5,-2.55332e-05,-0.000401673,5.24582,16,-0.00382076,10,-2.1071e-06,-2.28019, , , ,-0.000401673,