Folder: Figs_alphaMnO2_OER_Tafel_sleope/Figure_codes/Fig_3-5/rawdata_trumpetplot_data/after 10th (part 119)

File: 20221101_1-115_003_TrumpetPlot_ParaChange_from10_every3_08_CV_C01_29.csv
mode,ox/red,error,control changes,counter inc.,time/s,control/V,Ewe/V,<I>/mA,cycle number,(Q-Qo)/C,I Range,P/W,log(|I|),Tafel slope mV/dec,alpha_eff,dI/d(E-IR),E-IR/V,
2,0,0,0,0,58308.8,2.44065e-05,-0.000401673,-3.97855,30,0.0000000E+000,10,1.59808e-06,-2.40027, , , ,-0.000401673,
2,1,0,1,0,58308.9,0.0072942,0.00694285,0.395774,30,-0.000110361,10,2.7478e-06,-3.40255,0.0078247,7.54023,295.383,0.00694285,
2,1,0,1,0,58309,0.0147816,0.0143542,1.84732,30,4.92775e-06,10,2.65168e-05,-2.73346,0.0313632,1.88119,132.991,0.0143542,
2,1,0,1,0,58309.1,0.0222707,0.0219124,2.56875,30,0.000216373,10,5.62876e-05,-2.59028,0.0810171,0.728241,72.8955,0.0219124,
2,1,0,1,0,58309.2,0.0297581,0.0293653,3.05027,30,0.000481752,10,8.95722e-05,-2.51566,0.136947,0.430825,51.0817,0.02936534,
2,1,0,1,0,58309.3,0.0372544,0.0368693,3.41645,30,0.000785851,10,0.000125962,-2.46643,0.167912,0.351375,46.8034,0.0368693,
2,1,0,1,0,58309.4,0.0447507,0.0443823,3.73842,30,0.0011224,10,0.00016592,-2.42731,0.202905,0.290777,42.4453,0.0443823,
2,1,0,1,0,58309.5,0.0522381,0.0518669,4.04913,30,0.00148819,10,0.000210016,-2.39264,0.229195,0.257422,40.6441,0.0518669,
2,1,0,1,0,58309.5,0.0597273,0.0593566,4.33687,30,0.00188175,10,0.000257422,-2.36282,0.256259,0.230236,38.9542,0.0593566,
2,1,0,1,0,58309.6,0.0672147,0.0668303,4.60048,30,0.00230125,10,0.000307451,-2.3372,0.29914,0.197232,35.435,0.06683033,
2,1,0,1,0,58309.7,0.0747038,0.0743395,4.85109,30,0.0027449,10,0.000360627,-2.31416,0.392524,0.150309,28.4343,0.0743395,
2,1,0,1,0,58309.8,0.0822055,0.0818442,5.06651,30,0.00321109,10,0.000414665,-2.29529,0.426406,0.138366,27.3308,0.0818442,
2,1,0,1,0,58309.9,0.0896946,0.0893316,5.25124,30,0.00369529,10,0.000469101,-2.27974,0.471549,0.125119,25.6742,0.0893316,
2,1,0,1,0,58310,0.097182,0.0968162,5.46177,30,0.00419791,10,0.000528788,-2.26267,0.424187,0.13909,29.6723,0.0968162,
2,1,0,1,0,58310.1,0.104671,0.104322,5.75289,30,0.00472269,10,0.000600154,-2.24011,0.278058,0.212186,47.602,0.104322,
2,1,0,1,0,58310.2,0.112159,0.111815,6.12981,30,0.00527906,10,0.000685403,-2.21255,0.247954,0.237947,56.8984,0.1118147,
2,1,0,1,0,58310.3,0.119655,0.119317,6.55482,30,0.00587433,10,0.000782101,-2.18344,0.281953,0.209255,53.5015,0.119317,
2,1,0,1,0,58310.4,0.127149,0.126776,6.91209,30,0.0065073,10,0.000876287,-2.16039,0.397627,0.14838,40.0086,0.1267761,
2,1,0,1,0,58310.5,0.134639,0.134265,7.16016,30,0.00716809,10,0.00096136,-2.14508,0.612501,0.0963264,26.92,0.134265,
2,1,0,1,0,58310.6,0.142126,0.141796,7.29875,30,0.0078473,10,0.00103494,-2.13675,2.56448,0.0230066,6.55054,0.141796,
2,1,0,1,0,58310.7,0.149615,0.14922,7.21391,30,0.00853028,10,0.00107646,-2.14183,-0.442715,-0.133269,-37.4242,0.14922,
2,1,0,1,0,58310.8,0.157103,0.156733,6.69402,30,0.00918542,10,0.00104917,-2.17431,-0.155712,-0.378906,-98.7014,0.156733,
2,1,0,1,0,58310.9,0.164606,0.164215,5.83574,30,0.00977521,10,0.000958318,-2.2339,-0.111708,-0.528163,-120.275,0.164215,
2,1,0,1,0,58311,0.172095,0.171735,5.02665,30,0.0102831,10,0.000863254,-2.29872,-0.122281,-0.482495,-94.769,0.171735,
2,1,0,1,0,58311,0.179582,0.179238,4.43282,30,0.0107251,10,0.000794528,-2.35332,-0.162414,-0.36327,-62.9786,0.179238,
2,1,0,1,0,58311.1,0.18707,0.186716,4.02802,30,0.0111211,10,0.000752095,-2.39491,-0.211029,-0.279582,-43.986,0.186716,
2,1,0,1,0,58311.2,0.194559,0.194172,3.75318,30,0.0114852,10,0.000728764,-2.4256,-0.277063,-0.212948,-31.1559,0.1941724,
2,1,0,1,0,58311.3,0.202062,0.201689,3.54633,30,0.0118276,10,0.000715255,-2.45022,-0.387496,-0.15226,-21.0734,0.201689,
2,1,0,1,0,58311.4,0.20955,0.209197,3.40783,30,0.0121538,10,0.000712908,-2.46752,-0.411054,-0.143533,-19.0993,0.209197,
2,1,0,1,0,58311.5,0.217039,0.216655,3.30116,30,0.0124686,10,0.000715213,-2.48133,-0.551509,-0.106979,-13.784,0.216655,
2,1,0,1,0,58311.6,0.224526,0.224179,3.22892,30,0.012775,10,0.000723855,-2.49094,-0.978319,-0.0603076,-7.5927,0.224179,
2,1,0,1,0,58311.7,0.232016,0.231683,3.16357,30,0.0130751,10,0.000732945,-2.49982,-1.23754,-0.0476754,-5.89173,0.231683,
2,1,0,1,0,58311.8,0.23951,0.239156,3.12185,30,0.0133706,10,0.000746609,-2.50559,-1.16385,-0.0506939,-6.1698,0.239156,
2,1,0,1,0,58311.9,0.247006,0.246645,3.08364,30,0.0136622,10,0.000760565,-2.51094,-1.66623,-0.0354093,-4.25648,0.246645,
2,1,0,1,0,58312,0.254494,0.254126,3.04641,30,0.0139502,10,0.000774173,-2.51621,-1.7202,-0.0342983,-4.07995,0.254126,
2,1,0,1,0,58312.1,0.261983,0.261638,3.02276,30,0.0142353,10,0.000790869,-2.5196,-1.37523,-0.0429018,-5.05817,0.2616379,
2,1,0,1,0,58312.2,0.26947,0.269119,2.9995,30,0.0145179,10,0.000807223,-2.52295,-6.59309,-0.00894877,-1.04628,0.269119,
2,1,0,1,0,58312.3,0.276959,0.276629,2.96748,30,0.0147983,10,0.000820891,-2.52761,-3.98879,-0.0147915,-1.71448,0.276629,
2,1,0,1,0,58312.4,0.284461,0.284129,2.94611,30,0.0150769,10,0.000837076,-2.53075,-1.79178,-0.0329281,-3.78615,0.284129,
2,1,0,1,0,58312.4,0.29195,0.291619,2.92447,30,0.0153525,10,0.000852831,-2.53395,-2.09288,-0.0281908,-3.21393,0.291619,
2,1,0,1,0,58312.5,0.299438,0.299066,2.89396,30,0.0156258,10,0.000865487,-2.53851,-0.0369497,-1.59677,-168.526,0.299066,
2,1,0,1,0,58312.6,0.29424,0.293846,-0.0393345,30,0.0157158,10,-1.15583e-05,-4.40523,0.0381874,1.54501,214.784,0.293846,
2,0,0,1,0,58312.7,0.286753,0.286353,-0.92443,30,0.015662,10,-0.000264713,-3.03413,-0.0302022,-1.9535,68.8042,0.2863532,
2,0,0,1,0,58312.8,0.279264,0.278889,-1.29002,30,0.0155553,10,-0.000359771,-2.8894,-0.0824633,-0.715469,35.9806,0.2788887,
2,0,0,1,0,58312.9,0.271776,0.271402,-1.52155,30,0.015422,10,-0.000412952,-2.81771,-0.138715,-0.425334,25.114,0.271402,
2,0,0,1,0,58313,0.26428,0.263898,-1.68362,30,0.0152709,10,-0.000444304,-2.77376,-0.174662,-0.337795,22.1066,0.2638981,
2,0,0,1,0,58313.1,0.256786,0.25644,-1.8064,30,0.0151064,10,-0.000463231,-2.74319,-0.275921,-0.213829,15.0693,0.25644,
2,0,0,1,0,58313.2,0.249296,0.248885,-1.91787,30,0.014931,10,-0.000477328,-2.71718,-0.400306,-0.147387,11.0047,0.248885,
2,0,0,1,0,58313.3,0.241809,0.24145,-2.00767,30,0.0147462,10,-0.000484752,-2.69731,-0.366767,-0.160865,12.6203,0.24145,
2,0,0,1,0,58313.4,0.23432,0.233953,-2.09416,30,0.014553,10,-0.000489935,-2.67899,-0.43332,-0.136158,11.1438,0.233953,
2,0,0,1,0,58313.5,0.226833,0.226498,-2.17778,30,0.014352,10,-0.000493261,-2.66199,-0.464372,-0.127053,10.7846,0.226498,
2,0,0,1,0,58313.6,0.219329,0.21893,-2.25834,30,0.0141431,10,-0.000494419,-2.64621,-0.460564,-0.128104,11.2708,0.21893,
2,0,0,1,0,58313.7,0.21184,0.211462,-2.32729,30,0.0139276,10,-0.000492134,-2.63315,-0.484879,-0.12168,11.0609,0.211462,
2,0,0,1,0,58313.7,0.204353,0.203959,-2.40986,30,0.013705,10,-0.000491514,-2.61801,-0.883661,-0.0667677,6.26888,0.203959,
2,0,0,1,0,58313.8,0.196863,0.196487,-2.48204,30,0.0134754,10,-0.000487689,-2.60519,-0.522662,-0.112884,10.9321,0.196487,
2,0,0,1,0,58313.9,0.189376,0.189007,-2.55771,30,0.0132386,10,-0.000483424,-2.59215,-0.534475,-0.110389,11.0424,0.189007,
2,0,0,1,0,58314,0.18188,0.181491,-2.64659,30,0.0129938,10,-0.000480331,-2.57731,-0.52709,-0.111935,11.5613,0.181491,
2,0,0,1,0,58314.1,0.174385,0.174021,-2.74831,30,0.0127401,10,-0.000478263,-2.56093,-0.43549,-0.13548,14.5294,0.174021,
2,0,0,1,0,58314.2,0.166896,0.166495,-2.86321,30,0.0124766,10,-0.000476711,-2.54315,-0.337608,-0.174759,19.5575,0.166495,
2,0,0,1,0,58314.3,0.159409,0.159004,-3.01858,30,0.0122005,10,-0.000479967,-2.5202,-0.323314,-0.182485,21.5098,0.159004,
2,0,0,1,0,58314.4,0.151919,0.151532,-3.23568,30,0.0119074,10,-0.000490308,-2.49003,-0.206577,-0.285608,36.1407,0.151532,
2,0,0,1,0,58314.5,0.144425,0.144054,-3.56655,30,0.0115888,10,-0.000513778,-2.44775,-0.140496,-0.419942,58.6199,0.144054,
2,0,0,1,0,58314.6,0.136929,0.136556,-4.09365,30,0.0112305,10,-0.000559012,-2.38789,-0.110042,-0.536158,85.7842,0.136556,
2,0,0,1,0,58314.7,0.129441,0.129086,-4.81725,30,0.0108135,10,-0.000621841,-2.3172,-0.106413,-0.554442,104.134,0.129086,
2,0,0,1,0,58314.8,0.121952,0.121619,-5.5776,30,0.010326,10,-0.000678345,-2.25355,-0.128882,-0.457781,99.4867,0.121619,
2,0,0,1,0,58314.9,0.114465,0.114074,-6.26585,30,0.00976969,10,-0.00071477,-2.20302,-0.171811,-0.3434,83.94,0.114074,
2,0,0,1,0,58315,0.106976,0.106606,-6.8296,30,0.00915483,10,-0.000728073,-2.1656,-0.252258,-0.233887,62.2489,0.106606,
2,0,0,1,0,58315.1,0.0994721,0.0991452,-7.19479,30,0.00849454,10,-0.000713329,-2.14298,-0.457605,-0.128932,36.1639,0.0991452,
2,0,0,1,0,58315.1,0.0919847,0.0916104,-7.32518,30,0.00781207,10,-0.000671063,-2.13518,-7.95097,-0.00742048,2.1198,0.0916104,
2,0,0,1,0,58315.2,0.0844974,0.0841054,-7.26137,30,0.00712711,10,-0.00061072,-2.13898,0.827353,0.0713118,-20.1866,0.08410538,
2,0,0,1,0,58315.3,0.0770082,0.0766126,-7.09178,30,0.00645465,10,-0.000543319,-2.14925,0.716928,0.0822955,-22.7657,0.0766126,
2,0,0,1,0,58315.4,0.0695208,0.0691634,-6.92124,30,0.00579812,10,-0.000478697,-2.15982,0.7674,0.0768829,-20.79,0.0691634,
2,0,0,1,0,58315.5,0.0620245,0.0616769,-6.79793,30,0.00515443,10,-0.000419275,-2.16762,0.868724,0.0679157,-18.0169,0.06167686,
2,0,0,1,0,58315.6,0.0545282,0.0541458,-6.67307,30,0.00452242,10,-0.000361319,-2.17567,1.1588,0.0509148,-13.2554,0.0541458,
2,0,0,1,0,58315.7,0.0470408,0.0467045,-6.52488,30,0.00390312,10,-0.000304741,-2.18543,0.743216,0.0793847,-20.2453,0.0467045,
2,0,0,1,0,58315.8,0.0395516,0.0391476,-6.38484,30,0.00329759,10,-0.000249951,-2.19485,0.643884,0.0916315,-22.8019,0.0391476,
2,0,0,1,0,58315.9,0.0320643,0.0316667,-6.20215,30,0.00270768,10,-0.000196402,-2.20746,0.561404,0.105094,-25.426,0.0316667,
2,0,0,1,0,58316,0.0245751,0.0242244,-5.98796,30,0.00213587,10,-0.000145055,-2.22272,0.482685,0.122233,-28.6004,0.0242244,
2,0,0,1,0,58316.1,0.0170735,0.0167282,-5.77564,30,0.00158303,10,-9.66159e-05,-2.2384,0.463514,0.127288,-28.7149,0.0167282,
2,0,0,1,0,58316.2,0.00958429,0.009203,-5.58148,30,0.00105079,10,-5.13663e-05,-2.25325,0.557794,0.105774,-23.0349,0.009203,
2,0,0,1,0,58316.3,0.0020969,0.00163897,-5.44843,30,0.000535548,10,-8.9298e-06,-2.26373,1.05154,0.0561081,-11.8814,0.00163897,
2,0,0,1,0,58316.3,0.000199195,-0.000233704,-5.40269,30,0.000406751,10,1.26263e-06,-2.26739, , , ,-0.000233704,

File: 20221101_1-115_003_TrumpetPlot_ParaChange_from10_every3_08_CV_C01_30.csv
mode,ox/red,error,control changes,counter inc.,time/s,control/V,Ewe/V,<I>/mA,cycle number,(Q-Qo)/C,I Range,P/W,log(|I|),Tafel slope mV/dec,alpha_eff,dI/d(E-IR),E-IR/V,
2,0,0,0,0,60278.9,2.44065e-05,-0.000478022,-3.99891,31,0.0000000E+000,10,1.91157e-06,-2.39806, , , ,-0.000478022,
2,1,0,1,0,60279,0.00729419,0.00693263,0.277137,31,-0.000118824,10,1.92129e-06,-3.55731,0.0131811,4.47611,300.112,0.00693263,
2,1,0,1,0,60279.1,0.0147816,0.0144602,1.75042,31,-1.38434e-05,10,2.53114e-05,-2.75686,0.0291857,2.02154,135.304,0.0144602,
2,1,0,1,0,60279.2,0.0222707,0.0218937,2.50526,31,0.000189748,10,5.48493e-05,-2.60115,0.0759976,0.77634,75.5577,0.0218937,
2,1,0,1,0,60279.3,0.0297581,0.0294557,2.99672,31,0.000449186,10,8.82703e-05,-2.52335,0.125623,0.46966,54.68,0.0294557,
2,1,0,1,0,60279.4,0.0372544,0.0369022,3.36627,31,0.000748488,10,0.000124223,-2.47285,0.164546,0.358563,47.0784,0.0369022,
2,1,0,1,0,60279.5,0.0447507,0.0444177,3.69033,31,0.00108073,10,0.000163916,-2.43294,0.207679,0.284092,40.9793,0.0444177,
2,1,0,1,0,60279.6,0.0522381,0.0519218,4.00011,31,0.00144236,10,0.000207693,-2.39793,0.240658,0.245161,38.294,0.05192177,
2,1,0,1,0,60279.7,0.0597273,0.0593648,4.2866,31,0.00183162,10,0.000254473,-2.36789,0.250237,0.235776,39.4491,0.0593648,
2,1,0,1,0,60279.8,0.0672147,0.0668576,4.55593,31,0.00224678,10,0.000304598,-2.34142,0.303856,0.194171,34.5012,0.0668576,
2,1,0,1,0,60279.9,0.0747038,0.0743535,4.80512,31,0.00268593,10,0.000357277,-2.3183,0.375614,0.157076,29.417,0.0743535,
2,1,0,1,0,60280,0.0822055,0.0818718,5.01133,31,0.00314752,10,0.000410287,-2.30005,0.409894,0.14394,28.155,0.0818718,
2,1,0,1,0,60280.1,0.0896946,0.0893551,5.20111,31,0.00362702,10,0.000464746,-2.2839,0.463752,0.127223,25.8454,0.0893551,
2,1,0,1,0,60280.1,0.097182,0.0968121,5.4056,31,0.00412473,10,0.000523328,-2.26716,0.428915,0.137556,29.0529,0.0968121,
2,1,0,1,0,60280.2,0.104671,0.104296,5.68809,31,0.004644,10,0.000593247,-2.24503,0.29969,0.19687,43.6743,0.104296,
2,1,0,1,0,60280.3,0.112159,0.111783,6.0471,31,0.00519341,10,0.000675965,-2.21845,0.256289,0.230209,54.3646,0.111783,
2,1,0,1,0,60280.4,0.119655,0.119282,6.45584,31,0.00578048,10,0.000770066,-2.19005,0.297958,0.198014,49.8938,0.119282,
2,1,0,1,0,60280.5,0.127149,0.126785,6.81552,31,0.00640424,10,0.000864105,-2.1665,0.375488,0.157129,41.7759,0.126785,
2,1,0,1,0,60280.6,0.134639,0.134296,7.06995,31,0.00705614,10,0.00094947,-2.15058,0.584248,0.100985,27.8665,0.134296,
2,1,0,1,0,60280.7,0.142126,0.141804,7.21642,31,0.00772715,10,0.00102331,-2.14168,1.83112,0.0322207,9.0704,0.141804,
2,1,0,1,0,60280.8,0.149615,0.14925,7.15699,31,0.00840362,10,0.00106818,-2.14527,-0.51358,-0.11488,-32.0079,0.1492497,
2,1,0,1,0,60280.9,0.157102,0.156759,6.68483,31,0.00905584,10,0.0010479,-2.17491,-0.172238,-0.342549,-89.1467,0.156759,
2,1,0,1,0,60281,0.164606,0.164267,5.86848,31,0.00964705,10,0.000963998,-2.23147,-0.11396,-0.517725,-118.505,0.164267,
2,1,0,1,0,60281.1,0.172095,0.171741,5.05784,31,0.0101581,10,0.000868641,-2.29603,-0.11925,-0.49476,-97.7872,0.171741,
2,1,0,1,0,60281.2,0.179582,0.179229,4.4487,31,0.0106023,10,0.000797335,-2.35177,-0.156079,-0.378013,-65.7771,0.179229,
2,1,0,1,0,60281.3,0.18707,0.186731,4.02906,31,0.0109989,10,0.000752349,-2.3948,-0.192587,-0.306355,-48.1942,0.186731,
2,1,0,1,0,60281.4,0.194559,0.19422,3.75006,31,0.0113629,10,0.000728337,-2.42596,-0.269034,-0.219303,-32.0748,0.19422,
2,1,0,1,0,60281.5,0.202062,0.201741,3.54667,31,0.0117049,10,0.00071551,-2.45018,-0.419481,-0.14065,-19.4491,0.201741,
2,1,0,1,0,60281.5,0.20955,0.209219,3.39964,31,0.0120305,10,0.000711268,-2.46857,-0.424393,-0.139022,-18.4448,0.209219,
2,1,0,1,0,60281.6,0.217039,0.216688,3.29335,31,0.0123444,10,0.000713631,-2.48236,-0.559248,-0.105499,-13.5663,0.216688,
2,1,0,1,0,60281.7,0.224526,0.224189,3.21999,31,0.0126499,10,0.000721887,-2.49215,-0.927631,-0.0636028,-7.98197,0.224189,
2,1,0,1,0,60281.8,0.232016,0.231662,3.15309,31,0.012949,10,0.00073045,-2.50126,-1.22342,-0.0482254,-5.93845,0.231662,
2,1,0,1,0,60281.9,0.23951,0.239149,3.1117,31,0.0132434,10,0.000744159,-2.507,-1.33389,-0.0442317,-5.36848,0.239149,
2,1,0,1,0,60282,0.247006,0.246669,3.07364,31,0.0135339,10,0.00075817,-2.51235,-1.40525,-0.0419854,-5.02323,0.246669,
2,1,0,1,0,60282.1,0.254494,0.254152,3.03577,31,0.0138207,10,0.000771545,-2.51773,-1.78979,-0.0329648,-3.90919,0.254152,
2,1,0,1,0,60282.2,0.261983,0.261625,3.00981,31,0.0141047,10,0.000787442,-2.52146,-1.42039,-0.0415379,-4.88265,0.261625,
2,1,0,1,0,60282.3,0.26947,0.269111,2.98324,31,0.0143862,10,0.000802823,-2.52531,-2.49318,-0.0236645,-2.75674,0.269111,
2,1,0,1,0,60282.4,0.276959,0.276642,2.9568,31,0.0146654,10,0.000817975,-2.52918,-4.43147,-0.0133139,-1.53779,0.2766422,
2,1,0,1,0,60282.5,0.284461,0.284141,2.93564,31,0.0149429,10,0.000834136,-2.5323,-2.17073,-0.0271798,-3.11406,0.284141,
2,1,0,1,0,60282.6,0.29195,0.291637,2.9154,31,0.0152176,10,0.000850239,-2.5353,-1.81147,-0.0325703,-3.70037,0.291637,
2,1,0,1,0,60282.7,0.299438,0.299177,2.88339,31,0.01549,10,0.000862646,-2.5401,-0.0390346,-1.51148,-159.579,0.2991775,
2,1,0,1,0,60282.8,0.29424,0.293898,0.0310095,31,0.0155842,10,9.11364e-06,-4.5085,0.0169305,3.48484,218.284,0.293898,
2,0,0,1,0,60282.8,0.286753,0.286378,-0.880521,31,0.0155356,10,-0.000252162,-3.05526,-0.0265211,-2.22464,74.512,0.286378,
2,0,0,1,0,60282.9,0.279264,0.278958,-1.2666,31,0.015432,10,-0.000353329,-2.89736,-0.0776156,-0.760157,37.4549,0.278958,
2,0,0,1,0,60283,0.271776,0.271437,-1.49772,31,0.015301,10,-0.000406537,-2.82457,-0.131295,-0.44937,26.1747,0.271437,
2,0,0,1,0,60283.1,0.26428,0.263881,-1.65846,31,0.0151518,10,-0.000437635,-2.7803,-0.17882,-0.329941,21.3273,0.263881,
2,0,0,1,0,60283.2,0.256786,0.256437,-1.79014,31,0.0149889,10,-0.000459058,-2.74711,-0.263498,-0.223911,15.6538,0.256437,
2,0,0,1,0,60283.3,0.249296,0.248904,-1.898,31,0.0148151,10,-0.000472419,-2.7217,-0.380666,-0.154991,11.4828,0.248904,
2,0,0,1,0,60283.4,0.241809,0.241431,-1.99326,31,0.0146317,10,-0.000481235,-2.70044,-0.347708,-0.169683,13.2209,0.241431,
2,0,0,1,0,60283.5,0.23432,0.233942,-2.07576,31,0.0144399,10,-0.000485608,-2.68282,-0.417507,-0.141315,11.4824,0.2339422,
2,0,0,1,0,60283.6,0.226832,0.226474,-2.16527,31,0.0142404,10,-0.000490377,-2.66449,-0.501529,-0.11764,9.91103,0.226474,
2,0,0,1,0,60283.7,0.219329,0.218998,-2.24203,31,0.014033,10,-0.000491001,-2.64936,-0.422829,-0.139536,12.1885,0.218998,
2,0,0,1,0,60283.8,0.21184,0.211477,-2.30847,31,0.013819,10,-0.00048819,-2.63667,-0.543841,-0.108488,9.77288,0.211477,
2,0,0,1,0,60283.9,0.204353,0.203982,-2.39099,31,0.013598,10,-0.000487719,-2.62142,-0.722783,-0.0816289,7.60903,0.203982,
2,0,0,1,0,60284,0.196863,0.196527,-2.46502,31,0.0133701,10,-0.000484442,-2.60818,-0.53529,-0.110221,10.5897,0.196527,
2,0,0,1,0,60284.1,0.189376,0.189046,-2.53749,31,0.013135,10,-0.000479701,-2.5956,-0.513841,-0.114822,11.3992,0.189046,
2,0,0,1,0,60284.2,0.18188,0.181525,-2.62399,31,0.0128919,10,-0.00047632,-2.58104,-0.61809,-0.0954553,9.78459,0.181525,
2,0,0,1,0,60284.3,0.174385,0.174052,-2.72514,31,0.0126404,10,-0.000474317,-2.56461,-0.437834,-0.134754,14.3297,0.174052,
2,0,0,1,0,60284.3,0.166896,0.166539,-2.84046,31,0.0123791,10,-0.000473047,-2.54661,-0.372134,-0.158545,17.5717,0.166539,
2,0,0,1,0,60284.4,0.159409,0.159057,-2.99066,31,0.0121057,10,-0.000475686,-2.52423,-0.350364,-0.168396,19.65,0.159057,
2,0,0,1,0,60284.5,0.151919,0.151554,-3.19862,31,0.0118158,10,-0.000484766,-2.49504,-0.215047,-0.274358,34.2604,0.151554,
2,0,0,1,0,60284.6,0.144425,0.144069,-3.50705,31,0.0115018,10,-0.000505258,-2.45506,-0.154347,-0.382256,52.4274,0.144069,
2,0,0,1,0,60284.7,0.136929,0.136568,-4.0083,31,0.0111501,10,-0.000547405,-2.39704,-0.114595,-0.514855,80.6653,0.136568,
2,0,0,1,0,60284.8,0.129441,0.129062,-4.69844,31,0.0107426,10,-0.000606392,-2.32805,-0.109348,-0.539564,98.9346,0.129062,
2,0,0,1,0,60284.9,0.121952,0.121625,-5.44432,31,0.0102668,10,-0.000662166,-2.26406,-0.126707,-0.465642,98.8051,0.121625,
2,0,0,1,0,60285,0.114465,0.114126,-6.12397,31,0.00972346,10,-0.000698906,-2.21297,-0.175878,-0.33546,80.1543,0.114126,
2,0,0,1,0,60285.1,0.106976,0.106587,-6.68838,31,0.00912164,10,-0.000712894,-2.17468,-0.240685,-0.245133,63.9125,0.106587,
2,0,0,1,0,60285.2,0.0994721,0.0990732,-7.07579,31,0.00847357,10,-0.000701021,-2.15023,-0.398823,-0.147935,40.8043,0.0990732,
2,0,0,1,0,60285.3,0.0919847,0.0916162,-7.23589,31,0.00780072,10,-0.000662925,-2.14051,-2.24142,-0.0263226,7.43181,0.0916162,
2,0,0,1,0,60285.4,0.0844973,0.0841425,-7.20751,31,0.00712228,10,-0.000606458,-2.14221,1.07301,0.0549857,-15.4491,0.0841425,
2,0,0,1,0,60285.5,0.0770082,0.0766446,-7.05622,31,0.00645363,10,-0.000540821,-2.15143,0.743254,0.0793807,-21.8597,0.0766446,
2,0,0,1,0,60285.6,0.0695208,0.0691423,-6.89668,31,0.00579968,10,-0.000476853,-2.16136,0.846158,0.0697269,-18.7921,0.0691423,
2,0,0,1,0,60285.7,0.0620245,0.0616811,-6.78227,31,0.00515793,10,-0.000418338,-2.16862,0.948635,0.0621946,-16.4494,0.06168114,
2,0,0,1,0,60285.7,0.0545282,0.0541618,-6.6541,31,0.00452753,10,-0.000360398,-2.17691,1.21738,0.0484646,-12.5908,0.0541618,
2,0,0,1,0,60285.8,0.0470408,0.0466803,-6.52196,31,0.00390953,10,-0.000304447,-2.18562,0.860089,0.0685975,-17.4614,0.0466803,
2,0,0,1,0,60285.9,0.0395516,0.0391582,-6.37957,31,0.00330497,10,-0.000249812,-2.19521,0.651498,0.0905606,-22.5172,0.0391582,
2,0,0,1,0,60286,0.0320643,0.0316855,-6.1986,31,0.00271556,10,-0.000196406,-2.20771,0.573798,0.102824,-24.8773,0.0316855,
2,0,0,1,0,60286.1,0.0245751,0.0241835,-5.99343,31,0.00214387,10,-0.000144942,-2.22232,0.479682,0.122998,-28.7732,0.0241835,
2,0,0,1,0,60286.2,0.0170735,0.0166944,-5.77334,31,0.00159087,10,-9.63827e-05,-2.23857,0.449412,0.131283,-29.6064,0.0166944,
2,0,0,1,0,60286.3,0.00958429,0.00925003,-5.57853,31,0.00105877,10,-5.16016e-05,-2.25348,0.557048,0.105915,-23.0473,0.00925003,
2,0,0,1,0,60286.4,0.0020969,0.00169384,-5.437,31,0.00054407,10,-9.20942e-06,-2.26464,0.944663,0.0624561,-13.2044,0.001693842,
2,0,0,1,0,60286.4,0.000199195,-0.000227978,-5.39105,31,0.000415544,10,1.22904e-06,-2.26833, , , ,-0.000227978,