Folder: Figs_alphaMnO2_OER_Tafel_sleope/Figure_codes/Fig_3-5/rawdata_trumpetplot_data/after 10th (part 153)

File: 20221101_1-115_003_TrumpetPlot_ParaChange_from10_every3_10_CV_C01_27.csv
mode,ox/red,error,control changes,counter inc.,time/s,control/V,Ewe/V,<I>/mA,cycle number,(Q-Qo)/C,I Range,P/W,log(|I|),Tafel slope mV/dec,alpha_eff,dI/d(E-IR),E-IR/V,
2,1,0,0,0,54384,-2.44065e-05,-0.000439847,5.10462,28,0.0000000E+000,10,-2.24525e-06,-2.29204, , , ,-0.000439847,
2,1,0,1,0,54384.1,0.00977853,0.00941181,7.45571,28,0.000318756,10,7.01718e-05,-2.12751,0.121081,0.487276,141.231,0.00941181,
2,1,0,1,0,54384.1,0.0197755,0.0193901,8.52492,28,0.000720722,10,0.000165299,-2.06931,0.236561,0.249407,82.9906,0.01939014,
2,1,0,1,0,54384.2,0.0297726,0.0294318,9.24748,28,0.00116609,10,0.00027217,-2.03398,0.339674,0.173696,62.6285,0.0294318,
2,1,0,1,0,54384.2,0.0397514,0.039393,9.83378,28,0.00164255,10,0.000387382,-2.00728,0.37647,0.156719,60.1945,0.039393,
2,1,0,1,0,54384.3,0.0497393,0.0493885,10.4206,28,0.00214794,10,0.000514657,-1.98211,0.409401,0.144113,58.5535,0.0493885,
2,1,0,1,0,54384.3,0.0597364,0.059372,11.0005,28,0.00268339,10,0.000653124,-1.95859,0.411164,0.143495,61.627,0.059372,
2,1,0,1,0,54384.4,0.0697152,0.0693712,11.6203,28,0.00324786,10,0.000806113,-1.93478,0.454397,0.129842,58.8809,0.0693712,
2,1,0,1,0,54384.4,0.0796941,0.0793287,12.2298,28,0.00384314,10,0.00097017,-1.91258,0.473451,0.124617,59.4769,0.0793287,
2,1,0,1,0,54384.5,0.0896911,0.0892783,12.8177,28,0.00446948,10,0.00114435,-1.89219,0.513686,0.114856,57.4696,0.0892783,
2,1,0,1,0,54384.5,0.099679,0.09932,13.3841,28,0.00512339,10,0.00132931,-1.87341,0.549654,0.10734,56.048,0.09932,
2,1,0,1,0,54384.6,0.109658,0.109286,13.9906,28,0.00580573,10,0.00152898,-1.85416,0.465505,0.126744,69.2254,0.1092862,
2,1,0,1,0,54384.6,0.119655,0.119324,14.778,28,0.00652427,10,0.00176337,-1.83038,0.400097,0.147464,85.0823,0.119324,
2,1,0,1,0,54384.7,0.129652,0.129312,15.6859,28,0.0072858,10,0.00202838,-1.80449,0.391249,0.150799,92.2877,0.129312,
2,1,0,1,0,54384.7,0.139631,0.139217,16.5339,28,0.00809069,10,0.0023018,-1.78163,0.494902,0.119215,76.9406,0.139217,
2,1,0,1,0,54384.8,0.149619,0.149282,17.1938,28,0.00893324,10,0.00256672,-1.76463,0.790719,0.0746156,49.9973,0.149282,
2,1,0,1,0,54384.8,0.159616,0.159298,17.3749,28,0.00980008,10,0.00276778,-1.76008,-2.10208,-0.0280675,-19.0235,0.159298,
2,1,0,1,0,54384.9,0.169595,0.169165,16.7344,28,0.010655,10,0.00283087,-1.77639,-0.338357,-0.174372,-113.696,0.169165,
2,1,0,1,0,54384.9,0.179573,0.179203,15.1776,28,0.0114537,10,0.00271987,-1.8188,-0.191966,-0.307345,-181.984,0.179203,
2,1,0,1,0,54385,0.18957,0.189192,13.3057,28,0.0121654,10,0.00251732,-1.87596,-0.168901,-0.349317,-181.35,0.189192,
2,1,0,1,0,54385,0.199558,0.19921,11.7106,28,0.0127875,10,0.00233287,-1.93142,-0.200747,-0.293903,-134.356,0.19921,
2,1,0,1,0,54385.1,0.209537,0.209204,10.5485,28,0.0133408,10,0.00220679,-1.97681,-0.239986,-0.245848,-101.193,0.209204,
2,1,0,1,0,54385.1,0.219534,0.21922,9.69855,28,0.0138456,10,0.00212612,-2.01329,-0.325907,-0.181033,-68.5846,0.21922,
2,1,0,1,0,54385.2,0.229531,0.229178,9.08908,28,0.0143147,10,0.00208302,-2.04148,-0.39566,-0.149118,-52.9301,0.229178,
2,1,0,1,0,54385.2,0.23951,0.23917,8.64126,28,0.0147567,10,0.00206673,-2.06342,-0.511061,-0.115446,-38.9697,0.23917,
2,1,0,1,0,54385.3,0.249498,0.249155,8.30024,28,0.0151789,10,0.00206805,-2.08091,-0.638588,-0.0923914,-29.9133,0.249155,
2,1,0,1,0,54385.3,0.259495,0.259175,8.01896,28,0.0155866,10,0.00207831,-2.09588,-0.672197,-0.0877719,-27.4838,0.259175,
2,1,0,1,0,54385.4,0.269474,0.26913,7.80296,28,0.0159812,10,0.00210001,-2.10774,-0.898179,-0.0656885,-20.0047,0.26913,
2,1,0,1,0,54385.4,0.279453,0.279079,7.61358,28,0.0163658,10,0.00212479,-2.11841,-1.03256,-0.0571393,-16.994,0.279079,
2,1,0,1,0,54385.5,0.28945,0.289131,7.45146,28,0.0167424,10,0.00215445,-2.12776,-1.43886,-0.0410047,-11.9249,0.289131,
2,1,0,1,0,54385.5,0.299438,0.299136,7.31052,28,0.0171108,10,0.00218684,-2.13605,-0.0659146,-0.895097,-246.434,0.2991364,
2,1,0,1,0,54385.6,0.291747,0.291419,1.15274,28,0.0172748,10,0.000335929,-2.93827,0.00610211,9.66879,395.059,0.291419,
2,0,0,1,0,54385.6,0.28175,0.28138,-1.37409,28,0.01726,10,-0.000386641,-2.86199,-0.0181294,-3.25438,168.706,0.28138,
2,0,0,1,0,54385.7,0.27178,0.271433,-2.61304,28,0.0171576,10,-0.000709264,-2.58285,-0.0630276,-0.936098,94.7713,0.271433,
2,0,0,1,0,54385.7,0.261783,0.261429,-3.36196,28,0.0170068,10,-0.000878916,-2.47341,-0.127777,-0.461743,60.4648,0.261429,
2,0,0,1,0,54385.8,0.251786,0.251435,-3.88789,28,0.0168248,10,-0.000977553,-2.41029,-0.198226,-0.29764,45.0804,0.251435,
2,0,0,1,0,54385.8,0.241807,0.241454,-4.29331,28,0.0166201,10,-0.00103664,-2.36721,-0.263718,-0.223724,37.5595,0.241454,
2,0,0,1,0,54385.9,0.231824,0.231431,-4.63883,28,0.0163971,10,-0.00107357,-2.33359,-0.330074,-0.178748,32.2595,0.231431,
2,0,0,1,0,54385.9,0.221822,0.221474,-4.91682,28,0.0161579,10,-0.00108895,-2.30832,-0.395834,-0.149052,28.6416,0.2214745,
2,0,0,1,0,54386,0.211843,0.211448,-5.19528,28,0.0159054,10,-0.00109853,-2.28439,-0.52188,-0.113053,22.91,0.211448,
2,0,0,1,0,54386,0.201865,0.201473,-5.4441,28,0.0156398,10,-0.00109684,-2.26407,-0.497375,-0.118623,25.2438,0.201473,
2,0,0,1,0,54386.1,0.191868,0.191503,-5.70151,28,0.0153612,10,-0.00109186,-2.24401,-0.49978,-0.118052,26.2548,0.191503,
2,0,0,1,0,54386.1,0.18188,0.18151,-5.97082,28,0.0150702,10,-0.00108376,-2.22397,-0.423984,-0.139156,32.3978,0.18151,
2,0,0,1,0,54386.2,0.171901,0.171561,-6.26458,28,0.0147653,10,-0.00107476,-2.20311,-0.458956,-0.128553,31.3916,0.171561,
2,0,0,1,0,54386.2,0.161904,0.161539,-6.62552,28,0.0144434,10,-0.00107028,-2.17878,-0.354894,-0.166247,43.0477,0.161539,
2,0,0,1,0,54386.3,0.151907,0.151514,-7.14294,28,0.0141,10,-0.00108226,-2.14612,-0.269429,-0.218982,61.0038,0.151514,
2,0,0,1,0,54386.3,0.141928,0.141562,-7.94718,28,0.0137252,10,-0.00112502,-2.09979,-0.171952,-0.343119,106.564,0.141562,
2,0,0,1,0,54386.4,0.13194,0.1316,-9.25627,28,0.0132983,10,-0.00121813,-2.03356,-0.135592,-0.43513,157.159,0.1316,
2,0,0,1,0,54386.4,0.121943,0.121634,-10.9918,28,0.0127929,10,-0.00133698,-1.95893,-0.142562,-0.413854,177.445,0.121634,
2,0,0,1,0,54386.5,0.111964,0.111587,-12.7654,28,0.0121995,10,-0.00142445,-1.89397,-0.173238,-0.340571,169.531,0.111587,
2,0,0,1,0,54386.5,0.101985,0.101633,-14.2977,28,0.0115228,10,-0.00145312,-1.84473,-0.246768,-0.239091,133.289,0.101633,
2,0,0,1,0,54386.6,0.0919883,0.091679,-15.4301,28,0.0107777,10,-0.00141461,-1.81163,-0.374896,-0.157377,94.7059,0.091679,
2,0,0,1,0,54386.6,0.0820004,0.0816579,-16.0607,28,0.00998927,10,-0.00131149,-1.79423,-1.07561,-0.0548525,34.3609,0.0816579,
2,0,0,1,0,54386.7,0.0720215,0.0716373,-16.1712,28,0.00918328,10,-0.00115846,-1.79126,3.95997,0.0148991,-9.39853,0.0716373,
2,0,0,1,0,54386.7,0.0620245,0.0616798,-15.9706,28,0.00837902,10,-0.000985063,-1.79668,1.38991,0.0424487,-26.463,0.0616798,
2,0,0,1,0,54386.8,0.0520275,0.0516277,-15.7091,28,0.00758696,10,-0.000811023,-1.80385,1.27091,0.0464235,-28.4436,0.0516277,
2,0,0,1,0,54386.8,0.0420486,0.041689,-15.4254,28,0.00680994,10,-0.00064307,-1.81176,1.27362,0.0463247,-27.9162,0.041689,
2,0,0,1,0,54386.9,0.0320607,0.0316937,-15.1284,28,0.00604732,10,-0.000479473,-1.82021,0.980703,0.0601609,-35.488,0.0316937,
2,0,0,1,0,54386.9,0.0220637,0.0217006,-14.7273,28,0.00530066,10,-0.000319592,-1.83188,0.773234,0.0763029,-43.8656,0.0217006,
2,0,0,1,0,54387,0.0120848,0.0117212,-14.2388,28,0.00457772,10,-0.000166896,-1.84653,0.578664,0.101959,-56.6157,0.01172116,
2,0,0,1,0,54387,0.00210598,0.00169012,-13.7053,28,0.00388155,10,-2.31636e-05,-1.86311,0.660624,0.0893095,-47.6869,0.00169012,
2,0,0,1,0,54387.1,-0.00789103,-0.0082483,-13.1517,28,0.00321067,10,0.000108479,-1.88102,0.62905,0.0937922,-48.1591,-0.0082483,
2,0,0,1,0,54387.1,-0.017879,-0.0183151,-12.7544,28,0.00256484,10,0.000233599,-1.89434,0.949963,0.0621077,-30.9235,-0.0183151,
2,0,0,1,0,54387.2,-0.0278578,-0.0282232,-12.5129,28,0.00193518,10,0.000353154,-1.90264,1.49521,0.0394593,-19.2697,-0.0282232,
2,0,0,1,0,54387.2,-0.0378548,-0.0382701,-12.419,28,0.00131246,10,0.000475277,-1.90591,6.26643,0.00941525,-4.56443,-0.0382701,
2,0,0,1,0,54387.3,-0.0478519,-0.0482736,-12.4602,28,0.000691003,10,0.000601496,-1.90448,-1.99641,-0.0295531,14.3648,-0.0482736,
2,0,0,1,0,54387.3,-0.0578126,-0.0581946,-12.5959,28,6.74104e-05,10,0.000733016,-1.89977,-1.63393,-0.0361093,17.7593,-0.0581946,
2,0,0,1,0,54387.4,-0.0678187,-0.0682519,-12.8373,28,-0.000567988,10,0.000876172,-1.89153,-1.04216,-0.0566133,28.3398,-0.0682519,
2,0,0,1,0,54387.4,-0.0778157,-0.078225,-13.136,28,-0.00121709,10,0.00102756,-1.88154,-0.896887,-0.0657831,33.7577,-0.078225,
2,0,0,1,0,54387.5,-0.0877945,-0.0882097,-13.5573,28,-0.00188279,10,0.00119589,-1.86783,-0.695365,-0.0848475,44.8637,-0.0882097,
2,0,0,1,0,54387.5,-0.0977734,-0.0981678,-14.0302,28,-0.00257092,10,0.00137732,-1.85293,-0.581532,-0.101456,55.6226,-0.0981678,
2,0,0,1,1,54387.6,-0.0936874,-0.0941117,-7.10197,28,-0.00304272,10,0.000668379,-2.14862,-0.0220466,-2.67615,743.237,-0.0941117,
2,0,0,1,1,54387.6,-0.0837086,-0.0841291,-1.56733,28,-0.00324592,10,0.000131858,-2.80484,-0.00757661,-7.78712,430.633,-0.0841291,
2,1,0,1,1,54387.7,-0.0737025,-0.0741621,1.98475,28,-0.00322922,10,-0.000147193,-2.70229,0.0148998,3.95978,292.105,-0.0741621,
2,1,0,1,1,54387.7,-0.0637236,-0.0641669,4.43425,28,-0.00306547,10,-0.000284532,-2.35318,0.0492501,1.19797,206.585,-0.0641669,
2,1,0,1,1,54387.8,-0.0537448,-0.0541316,6.21342,28,-0.00279726,10,-0.000336343,-2.20667,0.0973621,0.605985,146.19,-0.0541316,
2,1,0,1,1,54387.8,-0.0437477,-0.0441472,7.46116,28,-0.0024535,10,-0.000329389,-2.12719,0.162331,0.363455,105.811,-0.0441472,
2,1,0,1,1,54387.9,-0.0337507,-0.0341706,8.36096,28,-0.00205642,10,-0.000285699,-2.07774,0.259084,0.227725,74.1542,-0.0341706,
2,1,0,1,1,54387.9,-0.0237809,-0.0241715,8.95834,28,-0.00162425,10,-0.000216536,-2.04777,0.406936,0.144986,50.6883,-0.02417147,
2,1,0,1,1,54388,-0.0137839,-0.0141402,9.35224,28,-0.00116574,10,-0.000132243,-2.02908,0.772514,0.076374,27.8349,-0.0141402,
2,1,0,1,1,54388,-0.0037869,-0.00418183,9.57358,28,-0.000692053,10,-4.00351e-05,-2.01893,1.18229,0.0499033,18.6645,-0.00418183,
2,1,0,1,1,54388,-2.55332e-05,-0.000382585,9.61727,28,-0.000512341,10,-3.67943e-06,-2.01695, , , ,-0.000382585,

File: 20221101_1-115_003_TrumpetPlot_ParaChange_from10_every3_10_CV_C01_28.csv
mode,ox/red,error,control changes,counter inc.,time/s,control/V,Ewe/V,<I>/mA,cycle number,(Q-Qo)/C,I Range,P/W,log(|I|),Tafel slope mV/dec,alpha_eff,dI/d(E-IR),E-IR/V,
2,1,0,0,0,56354.2,-2.44065e-05,-0.000497109,5.00285,29,0.0000000E+000,10,-2.48697e-06,-2.30078, , , ,-0.000497109,
2,1,0,1,0,56354.2,0.00977853,0.00943784,7.12534,29,0.000305898,10,6.72478e-05,-2.14719,0.121377,0.486091,134.917,0.00943784,
2,1,0,1,0,56354.3,0.0197755,0.0193962,8.1793,29,0.00069072,10,0.000158647,-2.08728,0.231051,0.255354,81.4109,0.0193962,
2,1,0,1,0,56354.3,0.0297726,0.0294283,8.89376,29,0.00111841,10,0.000261729,-2.05091,0.336786,0.175185,60.7815,0.0294283,
2,1,0,1,0,56354.4,0.0397514,0.0393699,9.48322,29,0.00157715,10,0.000373354,-2.02304,0.362045,0.162963,60.2855,0.0393699,
2,1,0,1,0,56354.4,0.0497394,0.0493546,10.0427,29,0.00206431,10,0.000495653,-1.99815,0.403608,0.146182,57.2919,0.0493546,
2,1,0,1,0,56354.5,0.0597364,0.0593538,10.6163,29,0.00258066,10,0.000630115,-1.97403,0.421442,0.139996,57.938,0.0593538,
2,1,0,1,0,56354.5,0.0697152,0.0693307,11.1894,29,0.00312468,10,0.00077577,-1.95119,0.44582,0.13234,57.8394,0.0693307,
2,1,0,1,0,56354.6,0.0796941,0.0793408,11.7908,29,0.00369814,10,0.000935489,-1.92846,0.461287,0.127903,58.7864,0.0793408,
2,1,0,1,0,56354.6,0.0896911,0.0893183,12.3334,29,0.00430155,10,0.0011016,-1.90892,0.499132,0.118205,56.9804,0.0893183,
2,1,0,1,0,56354.7,0.099679,0.0993025,12.8994,29,0.00493142,10,0.00128095,-1.88943,0.554954,0.106315,53.451,0.0993025,
2,1,0,1,0,56354.7,0.109658,0.109306,13.452,29,0.0055884,10,0.00147038,-1.87121,0.486068,0.121382,63.7873,0.109306,
2,1,0,1,0,56354.8,0.119655,0.1193,14.168,29,0.0062782,10,0.00169024,-1.84869,0.428395,0.137723,76.0846,0.1193001,
2,1,0,1,0,56354.8,0.129652,0.129303,14.9839,29,0.00700664,10,0.00193746,-1.82437,0.402243,0.146678,85.8105,0.129303,
2,1,0,1,0,56354.9,0.139631,0.139271,15.8013,29,0.0077754,10,0.00220067,-1.80131,0.476265,0.123881,76.3613,0.139271,
2,1,0,1,0,56354.9,0.149619,0.149222,16.4684,29,0.00858138,10,0.00245744,-1.78335,0.679529,0.0868249,55.7777,0.149222,
2,1,0,1,0,56355,0.159616,0.159235,16.8035,29,0.0094152,10,0.00267571,-1.7746,14.1843,0.00415952,2.72431,0.1592351,
2,1,0,1,0,56355,0.169595,0.169247,16.4509,29,0.0102482,10,0.00278427,-1.78381,-0.486053,-0.121386,-77.8606,0.169247,
2,1,0,1,0,56355.1,0.179573,0.179214,15.2626,29,0.0110423,10,0.00273528,-1.81637,-0.2282,-0.258545,-153.868,0.179214,
2,1,0,1,0,56355.1,0.18957,0.1892,13.6003,29,0.0117644,10,0.00257318,-1.86645,-0.191589,-0.307952,-163.526,0.1892,
2,1,0,1,0,56355.2,0.199558,0.199207,12.0496,29,0.012403,10,0.00240036,-1.91903,-0.202791,-0.29094,-136.75,0.199207,
2,1,0,1,0,56355.2,0.209537,0.209165,10.8262,29,0.012972,10,0.00226447,-1.96552,-0.230362,-0.256118,-108.365,0.209165,
2,1,0,1,0,56355.3,0.219534,0.219253,9.93265,29,0.0134896,10,0.00217777,-2.00293,-0.299612,-0.196921,-76.3054,0.219253,
2,1,0,1,0,56355.3,0.229531,0.229166,9.26661,29,0.0139688,10,0.00212359,-2.03308,-0.38252,-0.15424,-55.8455,0.229166,
2,1,0,1,0,56355.4,0.23951,0.239183,8.78441,29,0.0144187,10,0.00210108,-2.05629,-0.485695,-0.121475,-41.6451,0.239183,
2,1,0,1,0,56355.4,0.249498,0.249177,8.40507,29,0.0148471,10,0.00209435,-2.07546,-0.591234,-0.0997912,-32.7582,0.249177,
2,1,0,1,0,56355.5,0.259495,0.259183,8.11727,29,0.0152598,10,0.00210386,-2.09059,-0.680067,-0.0867562,-27.4509,0.259183,
2,1,0,1,0,56355.5,0.269474,0.269134,7.87097,29,0.0156583,10,0.00211835,-2.10397,-0.864425,-0.0682534,-20.9933,0.269134,
2,1,0,1,0,56355.6,0.279453,0.279075,7.67909,29,0.0160462,10,0.00214304,-2.11469,-0.894234,-0.0659783,-19.7571,0.279075,
2,1,0,1,0,56355.6,0.28945,0.289086,7.49668,29,0.0164255,10,0.00216719,-2.12513,-1.25883,-0.046869,-13.7369,0.289086,
2,1,0,1,0,56355.7,0.299438,0.299074,7.3596,29,0.0167962,10,0.00220106,-2.13315,-0.0797667,-0.739657,-205.897,0.299074,
2,1,0,1,0,56355.7,0.291747,0.291348,1.65192,29,0.0169764,10,0.000481283,-2.78201,0.00967136,6.10049,382.277,0.291348,
2,0,0,1,0,56355.8,0.28175,0.281402,-0.908759,29,0.0169863,10,-0.000255726,-3.04155,-0.0110138,-5.35692,176.227,0.281402,
2,0,0,1,0,56355.8,0.27178,0.271433,-2.21589,29,0.0169052,10,-0.000601466,-2.65445,-0.0494487,-1.19316,102.425,0.271433,
2,0,0,1,0,56355.9,0.261783,0.261411,-3.0244,29,0.0167727,10,-0.000790613,-2.51936,-0.106044,-0.556371,65.5615,0.261411,
2,0,0,1,0,56355.9,0.251786,0.25146,-3.59375,29,0.0166065,10,-0.000903684,-2.44445,-0.166374,-0.354623,49.5836,0.25146,
2,0,0,1,0,56356,0.241807,0.241474,-4.01976,29,0.0164159,10,-0.00097067,-2.3958,-0.237656,-0.248258,39.0231,0.241474,
2,0,0,1,0,56356,0.231824,0.231438,-4.38742,29,0.0162058,10,-0.00101542,-2.35779,-0.289541,-0.203771,34.8462,0.231438,
2,0,0,1,0,56356.1,0.221822,0.221464,-4.68939,29,0.0159786,10,-0.00103853,-2.32888,-0.367288,-0.160637,29.4022,0.221464,
2,0,0,1,0,56356.1,0.211844,0.211534,-4.97227,29,0.0157374,10,-0.0010518,-2.30344,-0.450307,-0.131022,25.3922,0.211534,
2,0,0,1,0,56356.2,0.201865,0.201504,-5.22956,29,0.0154828,10,-0.00105378,-2.28154,-0.476073,-0.123931,25.3183,0.201504,
2,0,0,1,0,56356.2,0.191868,0.191519,-5.48754,29,0.0152148,10,-0.00105097,-2.26062,-0.491302,-0.120089,25.7146,0.191519,
2,0,0,1,0,56356.3,0.18188,0.181499,-5.75657,29,0.0149345,10,-0.00104481,-2.23984,-0.441227,-0.133718,30.0048,0.181499,
2,0,0,1,0,56356.3,0.171901,0.171522,-6.04294,29,0.0146406,10,-0.0010365,-2.21875,-0.453857,-0.129997,30.6275,0.171522,
2,0,0,1,0,56356.4,0.161904,0.161552,-6.38086,29,0.0143304,10,-0.00103084,-2.19512,-0.370192,-0.159377,39.7007,0.161552,
2,0,0,1,0,56356.4,0.151907,0.151499,-6.84019,29,0.0140004,10,-0.00103628,-2.16493,-0.296321,-0.199108,53.1957,0.151499,
2,0,0,1,0,56356.5,0.141928,0.141605,-7.54946,29,0.0136426,10,-0.00106904,-2.12208,-0.191892,-0.307464,90.7045,0.141605,
2,0,0,1,0,56356.5,0.13194,0.131572,-8.68817,29,0.0132395,10,-0.00114312,-2.06107,-0.145693,-0.40496,137.337,0.131572,
2,0,0,1,0,56356.6,0.121943,0.121624,-10.2474,29,0.0127671,10,-0.00124633,-1.98939,-0.145482,-0.405547,162.167,0.121624,
2,0,0,1,0,56356.6,0.111964,0.111631,-11.8927,29,0.0122146,10,-0.00132759,-1.92472,-0.17297,-0.3411,158.205,0.111631,
2,0,0,1,0,56356.7,0.101985,0.101665,-13.3686,29,0.0115831,10,-0.00135912,-1.87391,-0.236502,-0.249469,130.038,0.101665,
2,0,0,1,0,56356.7,0.0919883,0.0916556,-14.5285,29,0.010884,10,-0.00133162,-1.83778,-0.330736,-0.17839,101.137,0.0916556,
2,0,0,1,0,56356.8,0.0820004,0.0816229,-15.2936,29,0.0101376,10,-0.00124831,-1.81549,-0.700193,-0.0842625,50.2449,0.0816229,
2,0,0,1,0,56356.8,0.0720215,0.0716625,-15.5756,29,0.00936581,10,-0.00111618,-1.80756,-4.48821,-0.0131455,7.98642,0.0716625,
2,0,0,1,0,56356.9,0.0620245,0.0616764,-15.52,29,0.00858746,10,-0.000957219,-1.80911,2.3074,0.0255699,-15.4887,0.0616764,
2,0,0,1,0,56356.9,0.0520275,0.0516729,-15.3557,29,0.00781538,10,-0.000793471,-1.81373,1.76294,0.0334669,-20.0423,0.0516729,
2,0,0,1,0,56357,0.0420486,0.041701,-15.1395,29,0.00705437,10,-0.000631331,-1.81989,1.70841,0.034535,-20.4173,0.04170097,
2,0,0,1,0,56357,0.0320607,0.0316746,-14.9033,29,0.00630448,10,-0.000472057,-1.82672,1.15201,0.0512151,-29.7781,0.03167456,
2,0,0,1,0,56357.1,0.0220637,0.021691,-14.5795,29,0.00556711,10,-0.000316245,-1.83626,0.922247,0.0639742,-36.4038,0.021691,
2,0,0,1,0,56357.1,0.0120848,0.0117243,-14.1651,29,0.00484959,10,-0.000166076,-1.84878,0.653115,0.0903363,-49.9222,0.01172434,
2,0,0,1,0,56357.2,0.00210598,0.0017309,-13.6859,29,0.00415545,10,-2.3689e-05,-1.86373,0.683938,0.0862651,-46.0073,0.0017309,
2,0,0,1,0,56357.2,-0.00789103,-0.0082804,-13.1477,29,0.00348491,10,0.000108869,-1.88115,0.633704,0.0931034,-47.8083,-0.0082804,
2,0,0,1,0,56357.3,-0.017879,-0.018269,-12.741,29,0.0028394,10,0.000232766,-1.89479,0.884823,0.06668,-33.157,-0.018269,
2,0,0,1,0,56357.3,-0.0278578,-0.02827,-12.4573,29,0.00221137,10,0.00035217,-1.90457,1.2587,0.0468739,-22.8023,-0.02827,
2,0,0,1,0,56357.4,-0.0378549,-0.0382423,-12.3288,29,0.00159226,10,0.000471482,-1.90908,3.51817,0.0167701,-8.0672,-0.0382423,
2,0,0,1,0,56357.4,-0.0478519,-0.0482389,-12.3129,29,0.000976657,10,0.000593959,-1.90964,-3.72778,-0.0158271,7.6107,-0.0482389,
2,0,0,1,0,56357.5,-0.0578126,-0.058218,-12.4164,29,0.000361106,10,0.000722857,-1.90601,-1.79648,-0.0328419,15.9184,-0.058218,
2,0,0,1,0,56357.5,-0.0678187,-0.0682051,-12.6057,29,-0.000264089,10,0.000859771,-1.89943,-1.27942,-0.0461146,22.6817,-0.0682051,
2,0,0,1,0,56357.6,-0.0778157,-0.0782094,-12.869,29,-0.000900766,10,0.00100647,-1.89046,-0.976223,-0.060437,30.3649,-0.0782094,
2,0,0,1,0,56357.6,-0.0877945,-0.0881787,-13.2257,29,-0.00155157,10,0.00116622,-1.87858,-0.767023,-0.0769207,39.7125,-0.0881787,
2,0,0,1,0,56357.7,-0.0977734,-0.0981756,-13.6579,29,-0.00222219,10,0.00134088,-1.86462,-0.658152,-0.0896449,47.8078,-0.0981756,
2,0,0,1,1,56357.7,-0.0936874,-0.0940878,-7.4465,29,-0.0026924,10,0.000700625,-2.12805,-0.0250441,-2.35584,686.038,-0.0940878,
2,0,0,1,1,56357.8,-0.0837086,-0.08411,-2.24392,29,-0.00292262,10,0.000188736,-2.64899,-0.0120887,-4.88059,411.973,-0.08411,
2,1,0,1,1,56357.8,-0.0737025,-0.0740649,1.19525,29,-0.00294324,10,-8.85259e-05,-2.92254,0.00856237,6.89061,285.781,-0.0740649,
2,1,0,1,1,56357.9,-0.0637236,-0.0641565,3.61603,29,-0.00281992,10,-0.000231992,-2.44177,0.0394225,1.49661,209.969,-0.0641565,
2,1,0,1,1,56357.9,-0.0537448,-0.0541429,5.41298,29,-0.0025922,10,-0.000293074,-2.26656,0.0808043,0.730159,153.592,-0.0541429,
2,1,0,1,1,56358,-0.0437477,-0.0441516,6.71855,29,-0.00228689,10,-0.000296634,-2.17272,0.139436,0.423134,110.949,-0.0441516,
2,1,0,1,1,56358,-0.0337507,-0.0341108,7.68379,29,-0.00192527,10,-0.0002621,-2.11442,0.219214,0.269144,80.572,-0.0341108,
2,1,0,1,1,56358.1,-0.0237809,-0.0241333,8.35945,29,-0.00152484,10,-0.000201741,-2.07782,0.330419,0.178561,58.2071,-0.0241333,
2,1,0,1,1,56358.1,-0.0137839,-0.014155,8.82009,29,-0.00109462,10,-0.000124848,-2.05453,0.564893,0.104444,35.9283,-0.014155,
2,1,0,1,1,56358.2,-0.0037869,-0.00417402,9.11664,29,-0.000645506,10,-3.8053e-05,-2.04017,0.893914,0.0660019,23.4998,-0.00417402,
2,1,0,1,1,56358.2,-2.55332e-05,-0.000516197,9.18667,29,-0.000474161,10,-4.74213e-06,-2.03684, , , ,-0.000516197,