Folder: Figs_alphaMnO2_OER_Tafel_sleope/Figure_codes/Fig_3-5/rawdata_trumpetplot_data/after 10th (part 15)

File: 20221101_1-115_003_TrumpetPlot_ParaChange_from10_every3_02_CV_C01_29.csv
mode,ox/red,error,control changes,counter inc.,time/s,control/V,Ewe/V,<I>/mA,cycle number,(Q-Qo)/C,I Range,P/W,log(|I|),Tafel slope mV/dec,alpha_eff,dI/d(E-IR),E-IR/V,
2,0,0,1,0,57473.8,2.44065e-05,-0.000363498,-0.389425,30,0.0000000E+000,10,1.41555e-07,-3.40958, , , ,-0.000363498,
2,0,0,1,0,57481.1,0.00729061,0.0069607,-0.0954747,30,-0.000972551,10,-6.6457e-07,-4.02011,-0.0300252,-1.96502,7.44004,0.0069607,
2,0,0,1,0,57488.6,0.0147815,0.0144588,-0.0594362,30,-0.00146454,10,-8.59377e-07,-4.22595,-0.0394696,-1.49482,3.43901,0.0144588,
2,0,0,1,0,57496.1,0.0222725,0.0219209,-0.0379444,30,-0.00175359,10,-8.31776e-07,-4.42085,-0.0387993,-1.52065,2.277,0.0219209,
2,0,0,1,0,57503.6,0.0297635,0.0293852,-0.0230923,30,-0.00191239,10,-6.7857e-07,-4.63653,-0.02745,-2.14936,1.90434,0.0293852,
2,0,0,1,0,57511,0.0372544,0.0368875,-0.01026,30,-0.00196435,10,-3.78465e-07,-4.98885,-0.0144975,-4.06966,1.53601,0.0368875,
2,1,0,1,0,57518.5,0.0447454,0.0443783,0.00173141,30,-0.00192521,10,7.6837e-08,-5.7616,0.0115463,5.10985,1.61758,0.0443783,
2,1,0,1,0,57526,0.0522363,0.0518763,0.0116097,30,-0.00180284,10,6.02268e-07,-4.93518,0.0178367,3.30779,1.46236,0.0518763,
2,1,0,1,0,57533.5,0.0597273,0.0593735,0.0208422,30,-0.00160847,10,1.23747e-06,-4.68106,0.0498175,1.18432,0.94806,0.0593735,
2,1,0,1,0,57541,0.0672183,0.0668398,0.0289909,30,-0.00135121,10,1.93774e-06,-4.53774,0.0670589,0.879823,0.969489,0.0668398,
2,1,0,1,0,57548.5,0.0747092,0.0743284,0.0357439,30,-0.00103733,10,2.65678e-06,-4.4468,0.0871025,0.677363,0.946209,0.07432837,
2,1,0,1,0,57556,0.0822001,0.0818179,0.0421298,30,-0.000670123,10,3.44697e-06,-4.37541,0.120443,0.489859,0.818598,0.0818179,
2,1,0,1,0,57563.5,0.0896911,0.089365,0.0511712,30,-0.000245904,10,4.57291e-06,-4.29097,0.0872511,0.676209,1.36352,0.089365,
2,1,0,1,0,57571,0.0971821,0.0968249,0.0604558,30,0.00024792,10,5.85363e-06,-4.21856,0.096234,0.613089,1.43748,0.0968249,
2,1,0,1,0,57578.5,0.104673,0.104313,0.0711436,30,0.000813832,10,7.42123e-06,-4.14786,0.120317,0.490371,1.34905,0.104313,
2,1,0,1,0,57586,0.112164,0.111824,0.0793628,30,0.00145359,10,8.87468e-06,-4.10038,0.207059,0.284943,0.879934,0.111824,
2,1,0,1,0,57593.4,0.119655,0.119339,0.0871976,30,0.00215423,10,1.04061e-05,-4.0595,0.247287,0.238589,0.812351,0.119339,
2,1,0,1,0,57600.9,0.127146,0.126808,0.0918345,30,0.00290422,10,1.16453e-05,-4.03699,0.53209,0.110883,0.397548,0.126808,
2,1,0,1,0,57608.4,0.134637,0.1343,0.0894952,30,0.00366787,10,1.20192e-05,-4.0482,-0.183735,-0.321114,-1.12247,0.1343,
2,1,0,1,0,57615.9,0.142128,0.141768,0.0748618,30,0.00436165,10,1.0613e-05,-4.12574,-0.0715688,-0.824382,-2.38382,0.141768,
2,1,0,1,0,57623.4,0.149619,0.149245,0.0591303,30,0.00492888,10,8.82491e-06,-4.22819,-0.0920964,-0.640633,-1.48802,0.149245,
2,1,0,1,0,57630.9,0.15711,0.156813,0.052242,30,0.00541,10,8.19223e-06,-4.28198,-0.214015,-0.275681,-0.560726,0.1568132,
2,1,0,1,0,57638.4,0.164601,0.164257,0.0502591,30,0.00585858,10,8.25542e-06,-4.29879,-0.54111,-0.109035,-0.213538,0.164257,
2,1,0,1,0,57645.9,0.172091,0.171746,0.0492784,30,0.00629679,10,8.46335e-06,-4.30734,-4.358,-0.0135383,-0.0261936,0.171746,
2,1,0,1,0,57653.4,0.179582,0.179247,0.0497405,30,0.00673406,10,8.91584e-06,-4.30329,-13.9375,-0.00423318,-0.00825441,0.179247,
2,1,0,1,0,57660.9,0.187073,0.186724,0.0506765,30,0.00717435,10,9.46252e-06,-4.29519,0.911879,0.0647015,0.126915,0.186724,
2,1,0,1,0,57668.4,0.194564,0.194215,0.0510154,30,0.00761924,10,9.90794e-06,-4.2923,0.428876,0.137569,0.27664,0.194215,
2,1,0,1,0,57675.8,0.202055,0.201711,0.0520387,30,0.00807047,10,1.04968e-05,-4.28367,1.0618,0.0555663,0.112241,0.201711,
2,1,0,1,0,57683.3,0.209546,0.209212,0.0532038,30,0.00852816,10,1.11309e-05,-4.27406,1.39252,0.0423691,0.0882314,0.209212,
2,1,0,1,0,57690.8,0.217037,0.216716,0.054344,30,0.00899331,10,1.17772e-05,-4.26485,0.857323,0.0688188,0.146092,0.216716,
2,1,0,1,0,57698.3,0.224528,0.224181,0.0555897,30,0.00946725,10,1.24621e-05,-4.25501,1.14969,0.0513181,0.111227,0.224181,
2,1,0,1,0,57705.8,0.232019,0.231664,0.0561898,30,0.00994764,10,1.30171e-05,-4.25034,0.902357,0.0653844,0.144289,0.231664,
2,1,0,1,0,57713.3,0.23951,0.23919,0.0580677,30,0.0104367,10,1.38892e-05,-4.23607,-2.21804,-0.0266001,-0.059898,0.2391897,
2,1,0,1,0,57720.8,0.247001,0.246638,0.0581592,30,0.0109317,10,1.43443e-05,-4.23538,-167.896,-0.000351407,-0.000796998,0.246638,
2,1,0,1,0,57728.3,0.254492,0.254185,0.0594443,30,0.0114314,10,1.51099e-05,-4.22589,1.17553,0.0501903,0.116674,0.254185,
2,1,0,1,0,57735.8,0.261983,0.261616,0.0602873,30,0.0119378,10,1.57721e-05,-4.21977,0.817035,0.0722123,0.170152,0.261616,
2,1,0,1,0,57743.3,0.269474,0.269131,0.0614399,30,0.0124519,10,1.65354e-05,-4.21155,0.803929,0.0733896,0.175877,0.269131,
2,1,0,1,0,57750.8,0.276965,0.276626,0.0622548,30,0.0129733,10,1.72213e-05,-4.20583,19.6055,0.00300936,0.0073061,0.276626,
2,1,0,1,0,57758.2,0.284456,0.284161,0.0631581,30,0.0134993,10,1.7947e-05,-4.19957,26.7622,0.0022046,0.00540697,0.284161,
2,1,0,1,0,57765.7,0.291947,0.291584,0.0637847,30,0.0140294,10,1.85986e-05,-4.19528,13.3092,0.00443303,0.0109977,0.291584,
2,1,0,1,0,57773.2,0.299438,0.2991,0.0646749,30,0.014566,10,1.93442e-05,-4.18926,-0.00413117,-14.2817,-22.7565,0.2990995,
2,1,0,1,0,57780.1,0.293745,0.293426,0.00711656,30,0.0146584,10,2.08819e-06,-5.14773,0.0103743,5.68712,1.6292,0.293426,
2,1,0,1,0,57787.6,0.286254,0.285924,-0.000775671,30,0.014624,10,-2.21783e-07,-6.11032,-0.00730664,-8.07485,0.829429,0.285924,
2,1,0,1,0,57795,0.278763,0.278421,-0.00659979,30,0.0145394,10,-1.83752e-06,-5.18047,-0.0185858,-3.17446,0.752038,0.2784206,
2,0,0,1,0,57802.5,0.271272,0.271005,-0.0112973,30,0.0144159,10,-3.06163e-06,-4.94702,-0.0474633,-1.24307,0.544022,0.271005,
2,0,0,1,0,57810,0.263781,0.263422,-0.0151252,30,0.0142593,10,-3.98432e-06,-4.8203,-0.0765095,-0.771146,0.460567,0.2634221,
2,0,0,1,0,57817.5,0.25629,0.255903,-0.0187738,30,0.0140746,10,-4.80427e-06,-4.72645,-0.111982,-0.52687,0.377593,0.255903,
2,0,0,1,0,57825,0.248799,0.24847,-0.0214312,30,0.0138647,10,-5.32502e-06,-4.66895,-0.11758,-0.501787,0.428095,0.24847,
2,0,0,1,0,57832.5,0.241308,0.240946,-0.0243385,30,0.0136327,10,-5.86426e-06,-4.61371,-0.145835,-0.404566,0.387841,0.240946,
2,0,0,1,0,57840,0.233817,0.233483,-0.02731,30,0.0133785,10,-6.37641e-06,-4.56368,-0.175233,-0.336694,0.358561,0.233483,
2,0,0,1,0,57847.5,0.226326,0.22603,-0.0304572,30,0.0131019,10,-6.88424e-06,-4.51631,-0.220219,-0.267915,0.315291,0.2260301,
2,0,0,1,0,57855,0.218835,0.218483,-0.0329834,30,0.0128049,10,-7.20632e-06,-4.4817,-0.232061,-0.254243,0.323822,0.218483,
2,0,0,1,0,57862.5,0.211344,0.211013,-0.0354758,30,0.0124863,10,-7.48583e-06,-4.45007,-0.367041,-0.160745,0.223337,0.211013,
2,0,0,1,0,57870,0.203853,0.203513,-0.0378763,30,0.012148,10,-7.70834e-06,-4.42163,-0.236831,-0.249123,0.370691,0.203513,
2,0,0,1,0,57877.4,0.196362,0.195998,-0.0409895,30,0.0117884,10,-8.03387e-06,-4.38733,-0.189422,-0.311474,0.496929,0.1959983,
2,0,0,1,0,57884.9,0.188871,0.18854,-0.0442734,30,0.0114039,10,-8.34733e-06,-4.35386,-0.205376,-0.287278,0.495394,0.18854,
2,0,0,1,0,57892.4,0.18138,0.181076,-0.0477776,30,0.010994,10,-8.6514e-06,-4.32078,-0.306864,-0.192267,0.358618,0.181076,
2,0,0,1,0,57899.9,0.173889,0.173569,-0.0513828,30,0.010557,10,-8.91845e-06,-4.28918,-0.187907,-0.313985,0.631838,0.173569,
2,0,0,1,0,57907.4,0.166398,0.166048,-0.0560555,30,0.010087,10,-9.30792e-06,-4.25138,-0.179676,-0.32837,0.718776,0.1660482,
2,0,0,1,0,57914.9,0.158907,0.158584,-0.0615658,30,0.00957649,10,-9.76334e-06,-4.21066,-0.161125,-0.366174,0.886696,0.158584,
2,0,0,1,0,57922.4,0.151417,0.151024,-0.0701892,30,0.00901191,10,-1.06003e-05,-4.15373,-0.11473,-0.514252,1.4084,0.151024,
2,0,0,1,0,57929.9,0.143926,0.143593,-0.0821552,30,0.00837173,10,-1.17969e-05,-4.08537,-0.0793943,-0.743126,2.37415,0.143593,
2,0,0,1,0,57937.4,0.136435,0.136117,-0.101346,30,0.00761306,10,-1.37949e-05,-3.9942,-0.0836327,-0.705465,2.78397,0.136117,
2,0,0,1,0,57944.9,0.128944,0.128605,-0.121605,30,0.00669763,10,-1.5639e-05,-3.91505,-0.129114,-0.456959,2.16718,0.128605,
2,0,0,1,0,57952.4,0.121453,0.121194,-0.133935,30,0.00565479,10,-1.62321e-05,-3.87311,-0.378686,-0.155802,0.81167,0.121194,
2,0,0,1,0,57959.8,0.113962,0.11361,-0.136746,30,0.00455898,10,-1.55358e-05,-3.86408,-3.70112,-0.0159411,0.0851513,0.1136101,
2,0,0,1,0,57967.3,0.106471,0.106108,-0.136931,30,0.00345297,10,-1.45294e-05,-3.8635,21.1669,0.00278737,-0.0149519,0.106108,
2,0,0,1,0,57974.8,0.0989798,0.0986169,-0.136026,30,0.00235097,10,-1.34145e-05,-3.86638,1.08285,0.054486,-0.287595,0.09861692,
2,0,0,1,0,57982.3,0.0914889,0.091123,-0.133196,30,0.0012672,10,-1.21372e-05,-3.87551,1.22284,0.0482482,-0.250305,0.09112303,
2,0,0,1,0,57989.8,0.083998,0.0836515,-0.128617,30,0.000211269,10,-1.0759e-05,-3.8907,0.412173,0.143144,-0.718524,0.0836515,
2,0,0,1,0,57997.3,0.076507,0.0761491,-0.124506,30,-0.000814876,10,-9.48103e-06,-3.90481,0.451023,0.130814,-0.635434,0.0761491,
2,0,0,1,0,58004.8,0.069016,0.068689,-0.120645,30,-0.00181043,10,-8.28702e-06,-3.91849,0.504037,0.117055,-0.553184,0.068689,
2,0,0,1,0,58012.3,0.0615251,0.0611984,-0.118083,30,-0.00278011,10,-7.22648e-06,-3.92781,0.578289,0.102025,-0.47033,0.0611984,
2,0,0,1,0,58019.8,0.0540342,0.0536611,-0.115035,30,-0.00372789,10,-6.17293e-06,-3.93917,0.848232,0.0695564,-0.312624,0.0536611,
2,0,0,1,0,58027.3,0.0465432,0.0461841,-0.112209,30,-0.00465393,10,-5.18228e-06,-3.94997,1.00536,0.0586856,-0.257231,0.0461841,
2,0,0,1,0,58034.8,0.0390522,0.038669,-0.109378,30,-0.00555932,10,-4.22952e-06,-3.96107,0.671784,0.0878259,-0.3761,0.038669,
2,0,0,1,0,58042.3,0.0315613,0.0312069,-0.106857,30,-0.00644562,10,-3.33467e-06,-3.9712,0.670104,0.088046,-0.370026,0.0312069,
2,0,0,1,0,58049.7,0.0240703,0.0237395,-0.105437,30,-0.00731497,10,-2.50301e-06,-3.97701,0.991056,0.0595325,-0.245657,0.0237395,
2,0,0,1,0,58057.2,0.0165794,0.0162552,-0.105552,30,-0.00817646,10,-1.71577e-06,-3.97653,2.44631,0.0241179,-0.0992681,0.0162552,
2,0,0,1,0,58064.7,0.00908843,0.00873159,-0.106407,30,-0.0090402,10,-9.29101e-07,-3.97303,-1.0124,-0.0582775,0.24178,0.00873159,
2,0,0,1,0,58072.2,0.00159744,0.00119312,-0.109715,30,-0.00992036,10,-1.30904e-07,-3.95973, , , ,0.00119312,
2,0,0,1,0,58073.6,0.000199235,-0.000212695,-0.109784,30,-0.0100867,10,2.33505e-08,-3.95946, , , ,-0.000212695,

File: 20221101_1-115_003_TrumpetPlot_ParaChange_from10_every3_02_CV_C01_30.csv
mode,ox/red,error,control changes,counter inc.,time/s,control/V,Ewe/V,<I>/mA,cycle number,(Q-Qo)/C,I Range,P/W,log(|I|),Tafel slope mV/dec,alpha_eff,dI/d(E-IR),E-IR/V,
2,0,0,1,0,59443.9,2.44065e-05,-0.00042076,-0.387516,31,0.0000000E+000,10,1.63051e-07,-3.41171, , , ,-0.00042076,
2,0,0,1,0,59451.2,0.00729061,0.0069512,-0.0959503,31,-0.000983411,10,-6.6697e-07,-4.01795,-0.0298179,-1.97867,7.51787,0.0069512,
2,0,0,1,0,59458.7,0.0147815,0.0144492,-0.0594941,31,-0.00148129,10,-8.59643e-07,-4.22553,-0.0405859,-1.45371,3.37337,0.0144492,
2,0,0,1,0,59466.2,0.0222725,0.0219241,-0.0386008,31,-0.00177826,10,-8.46288e-07,-4.4134,-0.0386138,-1.52795,2.30902,0.0219241,
2,0,0,1,0,59473.7,0.0297635,0.0294085,-0.0232247,31,-0.0019433,10,-6.83004e-07,-4.63405,-0.0302891,-1.94789,1.73438,0.02940849,
2,0,0,1,0,59481.2,0.0372544,0.0369129,-0.0106698,31,-0.00200107,10,-3.93852e-07,-4.97185,-0.0137753,-4.28301,1.56431,0.0369129,
2,0,0,1,0,59488.7,0.0447454,0.0443783,0.00149703,31,-0.00196531,10,6.64357e-08,-5.82477,0.0101758,5.79806,1.42513,0.0443783,
2,1,0,1,0,59496.2,0.0522363,0.0518562,0.0114484,31,-0.00184853,10,5.93671e-07,-4.94125,0.0174395,3.38312,1.43322,0.0518562,
2,1,0,1,0,59503.6,0.0597273,0.0593597,0.0204414,31,-0.00165821,10,1.2134e-06,-4.68949,0.0430073,1.37186,1.09268,0.0593597,
2,1,0,1,0,59511.1,0.0672183,0.0668685,0.0287638,31,-0.001404,10,1.92339e-06,-4.54115,0.0795488,0.741683,0.816288,0.0668685,
2,1,0,1,0,59518.6,0.0747092,0.0743634,0.035832,31,-0.00109443,10,2.66459e-06,-4.44573,0.0804742,0.733154,1.02551,0.0743634,
2,1,0,1,0,59526.1,0.0822001,0.0818572,0.0430301,31,-0.000727355,10,3.52233e-06,-4.36623,0.098225,0.600662,1.01165,0.0818572,
2,1,0,1,0,59533.6,0.0896911,0.0893077,0.0513234,31,-0.000301655,10,4.58357e-06,-4.28968,0.102501,0.575603,1.15503,0.0893077,
2,1,0,1,0,59541.1,0.0971821,0.0968218,0.0611403,31,0.000191609,10,5.91971e-06,-4.21367,0.0891494,0.66181,1.5773,0.0968218,
2,1,0,1,0,59548.6,0.104673,0.104322,0.0715977,31,0.000759759,10,7.46921e-06,-4.1451,0.118656,0.497237,1.36744,0.104322,
2,1,0,1,0,59556.1,0.112164,0.111811,0.0800459,31,0.00139837,10,8.94997e-06,-4.09666,0.176219,0.33481,1.0437,0.111811,
2,1,0,1,0,59563.6,0.119655,0.119326,0.0873405,31,0.00210035,10,1.0422e-05,-4.05878,0.237863,0.248042,0.845651,0.119326,
2,1,0,1,0,59571.1,0.127146,0.126792,0.0920202,31,0.00285151,10,1.16674e-05,-4.03612,0.480749,0.122725,0.443725,0.126792,
2,1,0,1,0,59578.6,0.134637,0.134259,0.0897975,31,0.00361734,10,1.20562e-05,-4.04674,-0.155178,-0.380208,-1.32977,0.134259,
2,1,0,1,0,59586,0.142128,0.141787,0.0754227,31,0.00431354,10,1.0694e-05,-4.1225,-0.0808816,-0.729461,-2.14186,0.141787,
2,1,0,1,0,59593.5,0.149619,0.149242,0.0601026,31,0.00488668,10,8.96983e-06,-4.22111,-0.0916047,-0.644072,-1.51319,0.149242,
2,1,0,1,0,59601,0.15711,0.156806,0.0535746,31,0.0053754,10,8.40081e-06,-4.27104,-0.171644,-0.343734,-0.719281,0.156806,
2,1,0,1,0,59608.5,0.164601,0.164235,0.0517254,31,0.00583152,10,8.49512e-06,-4.2863,3.73417,0.0158,0.0317832,0.164235,
2,1,0,1,0,59616,0.172091,0.171794,0.0515553,31,0.00628074,10,8.85691e-06,-4.28773,-1.51766,-0.0388757,-0.0784351,0.171794,
2,1,0,1,0,59623.5,0.179582,0.179265,0.0519559,31,0.00673138,10,9.31388e-06,-4.28437,2.15872,0.027331,0.0553915,0.179265,
2,1,0,1,0,59631,0.187073,0.18675,0.0524494,31,0.0071848,10,9.7949e-06,-4.28026,1.83205,0.0322043,0.0662562,0.18675,
2,1,0,1,0,59638.5,0.194564,0.194242,0.0533853,31,0.00764223,10,1.03697e-05,-4.27258,1.02941,0.0573146,0.118856,0.194242,
2,1,0,1,0,59646,0.202055,0.201685,0.0539311,31,0.00810334,10,1.08771e-05,-4.26816,3.12714,0.0188671,0.0395192,0.201685,
2,1,0,1,0,59653.5,0.209546,0.209173,0.0536355,31,0.00856679,10,1.12191e-05,-4.27055,-25.4644,-0.00231696,-0.00488353,0.209173,
2,1,0,1,0,59661,0.217037,0.216705,0.0551157,31,0.00903541,10,1.19438e-05,-4.25872,-5.68697,-0.0103746,-0.0223769,0.216705,
2,1,0,1,0,59668.4,0.224528,0.224187,0.0559235,31,0.00951008,10,1.25373e-05,-4.25241,0.895559,0.0658806,0.143598,0.224187,
2,1,0,1,0,59675.9,0.232019,0.231717,0.0571954,31,0.00999269,10,1.32532e-05,-4.24264,1.4038,0.0420288,0.0940796,0.231717,
2,1,0,1,0,59683.4,0.23951,0.239172,0.0579468,31,0.0104821,10,1.38592e-05,-4.23697,0.996845,0.0591867,0.133502,0.2391717,
2,1,0,1,0,59690.9,0.247001,0.246649,0.0588337,31,0.0109772,10,1.45113e-05,-4.23037,1.29991,0.0453879,0.104426,0.246649,
2,1,0,1,0,59698.4,0.254492,0.254139,0.0598829,31,0.0114792,10,1.52186e-05,-4.2227,0.703095,0.0839147,0.196997,0.254139,
2,1,0,1,0,59705.9,0.261983,0.261624,0.0609883,31,0.0119881,10,1.5956e-05,-4.21475,1.08345,0.0544558,0.128989,0.261624,
2,1,0,1,0,59713.4,0.269474,0.269122,0.0615815,31,0.0125038,10,1.65729e-05,-4.21055,1.14781,0.0514024,0.123982,0.269122,
2,1,0,1,0,59720.9,0.276965,0.27663,0.0633241,31,0.013027,10,1.75173e-05,-4.19843,1.54845,0.0381026,0.093471,0.27663,
2,1,0,1,0,59728.4,0.284456,0.284113,0.0634147,31,0.0135548,10,1.80169e-05,-4.19781,7.67817,0.00768413,0.0190342,0.284113,
2,1,0,1,0,59735.9,0.291947,0.29158,0.0642394,31,0.0140882,10,1.87309e-05,-4.1922,-16.321,-0.00361498,-0.00909649,0.29158,
2,1,0,1,0,59743.4,0.299438,0.299109,0.0647921,31,0.0146252,10,1.93799e-05,-4.18848,-0.00410107,-14.3865,-22.9432,0.299109,
2,1,0,1,0,59750.2,0.293745,0.293413,0.00716393,31,0.0147192,10,2.10199e-06,-5.14485,0.0105961,5.5681,1.57841,0.293413,
2,0,0,1,0,59757.7,0.286254,0.285943,-0.000771336,31,0.014688,10,-2.20558e-07,-6.11276,-0.00690627,-8.54296,0.759755,0.285943,
2,0,0,1,0,59765.2,0.278763,0.278487,-0.00691386,31,0.0146051,10,-1.92542e-06,-5.16028,-0.0232688,-2.53559,0.662232,0.278487,
2,0,0,1,0,59772.7,0.271272,0.270943,-0.0111775,31,0.0144833,10,-3.02846e-06,-4.95165,-0.0478152,-1.23392,0.534894,0.2709426,
2,0,0,1,0,59780.2,0.263781,0.263474,-0.0152873,31,0.0143298,10,-4.02781e-06,-4.81567,-0.0766419,-0.769814,0.444073,0.263474,
2,0,0,1,0,59787.7,0.25629,0.255941,-0.0183686,31,0.0141498,10,-4.70127e-06,-4.73592,-0.093658,-0.629952,0.452307,0.255941,
2,0,0,1,0,59795.1,0.248799,0.248426,-0.0218855,31,0.0139413,10,-5.43693e-06,-4.65984,-0.128006,-0.460914,0.39548,0.2484259,
2,0,0,1,0,59802.6,0.241308,0.240997,-0.0244645,31,0.0137109,10,-5.89586e-06,-4.61146,-0.146169,-0.403643,0.39004,0.240997,
2,0,0,1,0,59810.1,0.233817,0.23349,-0.0272525,31,0.0134597,10,-6.36318e-06,-4.56459,-0.148087,-0.398415,0.421543,0.23349,
2,0,0,1,0,59817.6,0.226326,0.225999,-0.0299928,31,0.0131875,10,-6.77835e-06,-4.52298,-0.259217,-0.227609,0.266862,0.225999,
2,0,0,1,0,59825.1,0.218835,0.218526,-0.03273,31,0.0128944,10,-7.15234e-06,-4.48505,-0.267967,-0.220176,0.281132,0.218526,
2,0,0,1,0,59832.6,0.211344,0.211023,-0.0351333,31,0.0125807,10,-7.41394e-06,-4.45428,-0.207459,-0.284394,0.390376,0.211023,
2,0,0,1,0,59840.1,0.203853,0.20354,-0.0379943,31,0.0122448,10,-7.73337e-06,-4.42028,-0.329361,-0.179135,0.269196,0.20354,
2,0,0,1,0,59847.6,0.196362,0.19602,-0.0407507,31,0.011887,10,-7.98794e-06,-4.38986,-0.268187,-0.219996,0.350076,0.19602,
2,0,0,1,0,59855.1,0.188871,0.188543,-0.0444484,31,0.0115069,10,-8.38042e-06,-4.35214,-0.213147,-0.276804,0.473722,0.188543,
2,0,0,1,0,59862.6,0.18138,0.18106,-0.0473053,31,0.0111029,10,-8.56511e-06,-4.32509,-0.229109,-0.257519,0.475418,0.18106,
2,0,0,1,0,59870.1,0.173889,0.173559,-0.0512306,31,0.010671,10,-8.89154e-06,-4.29047,-0.216024,-0.273118,0.542657,0.1735591,
2,0,0,1,0,59877.5,0.166398,0.16606,-0.0556522,31,0.0102052,10,-9.2416e-06,-4.25452,-0.223902,-0.263508,0.577451,0.1660599,
2,0,0,1,0,59885,0.158907,0.15856,-0.0615165,31,0.00969978,10,-9.75404e-06,-4.21101,-0.153248,-0.384997,0.926399,0.15856,
2,0,0,1,0,59892.5,0.151417,0.151061,-0.0694624,31,0.00914257,10,-1.04931e-05,-4.15825,-0.126969,-0.464682,1.26259,0.151061,
2,0,0,1,0,59900,0.143926,0.143618,-0.0813028,31,0.00851019,10,-1.16765e-05,-4.08989,-0.0895283,-0.65901,2.098,0.143618,
2,0,0,1,0,59907.5,0.136435,0.136102,-0.100373,31,0.00776202,10,-1.36609e-05,-3.99838,-0.0773842,-0.76243,2.96184,0.1361023,
2,0,0,1,0,59915,0.128944,0.128607,-0.120715,31,0.00685892,10,-1.55249e-05,-3.91824,-0.133351,-0.442441,2.07451,0.128607,
2,0,0,1,0,59922.5,0.121453,0.121111,-0.133179,31,0.00582793,10,-1.61295e-05,-3.87556,-0.332828,-0.177269,0.917572,0.121111,
2,0,0,1,0,59930,0.113962,0.113638,-0.1363,31,0.00474168,10,-1.54888e-05,-3.8655,-2.26224,-0.0260803,0.138554,0.113638,
2,0,0,1,0,59937.5,0.106471,0.106118,-0.136089,31,0.00364392,10,-1.44415e-05,-3.86618,-6.57894,-0.00896801,0.0479684,0.106118,
2,0,0,1,0,59945,0.0989798,0.0986488,-0.13561,31,0.00254926,10,-1.33778e-05,-3.86771,2.1731,0.0271501,-0.143274,0.0986488,
2,0,0,1,0,59952.5,0.0914889,0.0911188,-0.132887,31,0.00146925,10,-1.21085e-05,-3.87652,0.48881,0.120701,-0.62369,0.0911188,
2,0,0,1,0,59959.9,0.083998,0.08366,-0.12824,31,0.000417688,10,-1.07286e-05,-3.89198,0.408957,0.14427,-0.723077,0.08366,
2,0,0,1,0,59967.4,0.076507,0.0761576,-0.125242,31,-0.000605307,10,-9.53816e-06,-3.90225,0.65542,0.0900186,-0.439741,0.0761576,
2,0,0,1,0,59974.9,0.069016,0.0686679,-0.1212,31,-0.00160242,10,-8.32254e-06,-3.9165,0.848941,0.0694984,-0.330289,0.0686679,
2,0,0,1,0,59982.4,0.0615251,0.0611761,-0.118285,31,-0.00257417,10,-7.23624e-06,-3.92707,0.906534,0.0650831,-0.301399,0.0611761,
2,0,0,1,0,59989.9,0.0540342,0.053695,-0.115883,31,-0.00352144,10,-6.22235e-06,-3.93598,0.947293,0.0622827,-0.28084,0.053695,
2,0,0,1,0,59997.4,0.0465432,0.0461862,-0.113124,31,-0.00444909,10,-5.22478e-06,-3.94644,0.744441,0.0792541,-0.350213,0.0461862,
2,0,0,1,0,60004.9,0.0390522,0.0387124,-0.11066,31,-0.00535602,10,-4.28391e-06,-3.95601,0.613591,0.0961553,-0.413392,0.0387124,
2,0,0,1,0,60012.4,0.0315613,0.031208,-0.108331,31,-0.00624327,10,-3.38078e-06,-3.96525,0.953066,0.0619054,-0.260741,0.03120801,
2,0,0,1,0,60019.9,0.0240703,0.0237364,-0.105948,31,-0.00711482,10,-2.51482e-06,-3.97491,2.41689,0.0244115,-0.10144,0.0237364,
2,0,0,1,0,60027.4,0.0165794,0.0162563,-0.105779,31,-0.00797777,10,-1.71958e-06,-3.9756,1.50071,0.0393147,-0.16253,0.0162563,
2,0,0,1,0,60034.9,0.00908843,0.00873156,-0.106836,31,-0.00884113,10,-9.32841e-07,-3.97128,-1.161,-0.0508181,0.211782,0.00873156,
2,0,0,1,0,60042.3,0.00159744,0.0011814,-0.110094,31,-0.00971796,10,-1.30065e-07,-3.95824, , , ,0.0011814,
2,0,0,1,0,60043.7,0.000199235,-0.000164923,-0.110133,31,-0.00988446,10,1.81635e-08,-3.95808, , , ,-0.000164923,