Folder: Figs_alphaMnO2_OER_Tafel_sleope/Figure_codes/Fig_3-5/rawdata_trumpetplot_data/after 10th (part 27)

File: 20221101_1-115_003_TrumpetPlot_ParaChange_from10_every3_03_CV_C01_17.csv
mode,ox/red,error,control changes,counter inc.,time/s,control/V,Ewe/V,<I>/mA,cycle number,(Q-Qo)/C,I Range,P/W,log(|I|),Tafel slope mV/dec,alpha_eff,dI/d(E-IR),E-IR/V,
2,0,0,1,0,34432.2,2.44065e-05,-0.000439847,-0.0962139,18,0.0000000E+000,10,4.23194e-08,-4.01676, , , ,-0.000439847,
2,1,0,1,0,34433.7,0.00729041,0.0069943,0.200206,18,0.000252333,10,1.4003e-06,-3.69852,0.08094,0.728935,5.66952,0.006994301,
2,1,0,1,0,34435.2,0.0147815,0.0145086,0.231918,18,0.00060025,10,3.3648e-06,-3.63466,0.137601,0.428776,3.89167,0.01450856,
2,1,0,1,0,34436.7,0.0222725,0.0219708,0.260011,18,0.000992586,10,5.71266e-06,-3.58501,0.172337,0.342353,3.46831,0.0219708,
2,1,0,1,0,34438.2,0.0297635,0.0294371,0.287677,18,0.00142494,10,8.46837e-06,-3.5411,0.198092,0.297842,3.3334,0.0294371,
2,1,0,1,0,34439.7,0.0372545,0.0369216,0.313665,18,0.00189726,10,1.1581e-05,-3.50353,0.208922,0.282402,3.46461,0.0369216,
2,1,0,1,0,34441.2,0.0447456,0.0444155,0.339949,18,0.00240916,10,1.5099e-05,-3.46859,0.254656,0.231685,3.0722,0.0444155,
2,1,0,1,0,34442.7,0.0522367,0.0518969,0.363313,18,0.00295821,10,1.88548e-05,-3.43972,0.232416,0.253855,3.59415,0.0518969,
2,1,0,1,0,34444.2,0.0597277,0.0593984,0.385321,18,0.00354179,10,2.28875e-05,-3.41418,0.320214,0.184252,2.76931,0.0593984,
2,1,0,1,0,34445.7,0.0672187,0.0668996,0.40543,18,0.00415641,10,2.71231e-05,-3.39208,0.441297,0.133697,2.10422,0.0668996,
2,1,0,1,0,34447.2,0.0747092,0.0743792,0.420887,18,0.00479743,10,3.13052e-05,-3.37583,0.456435,0.129263,2.12133,0.07437925,
2,1,0,0,0,34448.7,0.0822001,0.0819357,0.434746,18,0.00546175,10,3.56212e-05,-3.36176,0.492837,0.119715,2.03582,0.0819357,
2,1,0,1,0,34450.2,0.0896911,0.0893798,0.455473,18,0.00615133,10,4.07101e-05,-3.34154,0.283395,0.20819,3.71616,0.0893798,
2,1,0,0,0,34451.7,0.097182,0.0968599,0.487999,18,0.00688053,10,4.72675e-05,-3.31158,0.20045,0.294337,5.60754,0.0968599,
2,1,0,1,0,34453.2,0.104673,0.104378,0.530921,18,0.00766534,10,5.54165e-05,-3.27497,0.202453,0.291425,6.01925,0.104378,
2,1,0,0,0,34454.7,0.112164,0.111848,0.567398,18,0.00851074,10,6.34622e-05,-3.24611,0.351157,0.168016,3.71027,0.111848,
2,1,0,1,0,34456.2,0.119655,0.119355,0.592878,18,0.00940352,10,7.07631e-05,-3.22703,0.622097,0.0948406,2.19712,0.119355,
2,1,0,0,0,34457.7,0.127146,0.126803,0.608526,18,0.0103302,10,7.71626e-05,-3.21572,0.785608,0.0751011,1.79105,0.126803,
2,1,0,1,0,34459.2,0.134637,0.134312,0.610603,18,0.0112759,10,8.20115e-05,-3.21424,-0.411864,-0.143251,-3.40887,0.134312,
2,1,0,1,0,34460.7,0.142127,0.141851,0.549752,18,0.0121773,10,7.79831e-05,-3.25983,-0.10566,-0.558396,-11.9049,0.1418514,
2,1,0,1,0,34462.2,0.149618,0.14931,0.444525,18,0.0129442,10,6.63723e-05,-3.3521,-0.076689,-0.769341,-13.3419,0.14931,
2,1,0,1,0,34463.6,0.157109,0.156783,0.368849,18,0.013569,10,5.78294e-05,-3.43315,-0.117056,-0.504034,-7.27743,0.156783,
2,1,0,1,0,34465.1,0.1646,0.164274,0.335415,18,0.0141154,10,5.50999e-05,-3.47442,-0.250438,-0.235587,-3.08387,0.164274,
2,1,0,1,0,34466.6,0.172091,0.171741,0.31722,18,0.0146247,10,5.44798e-05,-3.49864,-0.571375,-0.10326,-1.28223,0.171741,
2,1,0,1,0,34468.1,0.179582,0.179291,0.308666,18,0.0151138,10,5.53409e-05,-3.51051,-0.638179,-0.0924505,-1.11466,0.179291,
2,1,0,1,0,34469.6,0.187074,0.186755,0.301854,18,0.0155909,10,5.63728e-05,-3.5202,-1.10223,-0.0535279,-0.629174,0.1867549,
2,1,0,1,0,34471.1,0.194564,0.194216,0.296683,18,0.0160602,10,5.76205e-05,-3.52771,-1.2181,-0.0484359,-0.560924,0.194216,
2,1,0,1,0,34472.6,0.202056,0.201765,0.292917,18,0.0165225,10,5.91005e-05,-3.53325,-1.70986,-0.0345058,-0.393062,0.201765,
2,1,0,1,0,34474.1,0.209547,0.209197,0.289478,18,0.0169796,10,6.05579e-05,-3.53838,-1.98389,-0.0297395,-0.335513,0.2091966,
2,1,0,1,0,34475.6,0.217038,0.216726,0.287031,18,0.0174316,10,6.22071e-05,-3.54207,-1.21122,-0.0487114,-0.545487,0.2167263,
2,1,0,1,0,34477.1,0.224529,0.224245,0.284437,18,0.01788,10,6.37835e-05,-3.54601,-2.47154,-0.0238717,-0.264112,0.224245,
2,1,0,1,0,34478.6,0.232019,0.231722,0.280976,18,0.0183246,10,6.51084e-05,-3.55133,-2.16294,-0.0272776,-0.300025,0.231722,
2,1,0,0,0,34480.1,0.23951,0.239177,0.279724,18,0.0187659,10,6.69035e-05,-3.55327,-1.99151,-0.0296257,-0.323471,0.239177,
2,1,0,1,0,34481.6,0.247001,0.246685,0.278374,18,0.0192045,10,6.86705e-05,-3.55537,-1.38727,-0.0425295,-0.462001,0.246685,
2,1,0,0,0,34483.1,0.254492,0.254175,0.276152,18,0.0196403,10,7.0191e-05,-3.55885,-2.15314,-0.0274018,-0.295538,0.254175,
2,1,0,1,0,34484.6,0.261983,0.261653,0.275167,18,0.0200733,10,7.19983e-05,-3.5604,-6.55387,-0.00900231,-0.0965494,0.261653,
2,1,0,0,0,34486.1,0.269474,0.269117,0.272701,18,0.0205038,10,7.33883e-05,-3.56431,-5.13098,-0.0114988,-0.122048,0.269117,
2,1,0,1,0,34487.6,0.276965,0.27658,0.270252,18,0.0209309,10,7.47463e-05,-3.56823,-2.05285,-0.0287405,-0.303873,0.27658,
2,1,0,0,0,34489.1,0.284456,0.28417,0.268388,18,0.0213547,10,7.6268e-05,-3.57124,-2.62099,-0.0225106,-0.2349,0.28417,
2,1,0,1,0,34490.6,0.291947,0.291597,0.265735,18,0.0217753,10,7.74877e-05,-3.57555,-4.41354,-0.013368,-0.139136,0.291597,
2,1,0,1,0,34492.1,0.299437,0.299126,0.264289,18,0.0221931,10,7.90557e-05,-3.57792,-0.0026629,-22.1563,-116.593,0.299126,
2,1,0,1,0,34493.5,0.293744,0.293419,-0.0159272,18,0.022233,10,-4.67334e-06,-4.79786,-0.00383184,-15.3973,5.57817,0.293419,
2,0,0,1,0,34495,0.286253,0.285916,-0.0454781,18,0.0221648,10,-1.30029e-05,-4.3422,-0.0318581,-1.85196,3.34885,0.285916,
2,0,0,0,0,34496.5,0.278763,0.278476,-0.0674104,18,0.0220585,10,-1.87722e-05,-4.17127,-0.0623227,-0.946685,2.47581,0.278476,
2,0,0,1,0,34498,0.271272,0.270989,-0.0828881,18,0.0219248,10,-2.24618e-05,-4.08151,-0.0981407,-0.601178,1.96023,0.270989,
2,0,0,0,0,34499.5,0.263781,0.263466,-0.095675,18,0.0217682,10,-2.52071e-05,-4.0192,-0.131734,-0.447873,1.69995,0.263466,
2,0,0,1,0,34501,0.25629,0.255991,-0.110329,18,0.0215928,10,-2.82432e-05,-3.95731,-0.230445,-0.256027,1.08616,0.2559908,
2,0,0,0,0,34502.5,0.248799,0.248464,-0.119051,18,0.0214006,10,-2.95798e-05,-3.92427,-0.211408,-0.279081,1.31024,0.248464,
2,0,0,1,0,34504,0.241308,0.241027,-0.128869,18,0.0211932,10,-3.10611e-05,-3.88985,-0.238055,-0.247842,1.2523,0.241027,
2,0,0,0,0,34505.5,0.233817,0.233506,-0.139885,18,0.0209713,10,-3.2664e-05,-3.85423,-0.262509,-0.224754,1.22168,0.233506,
2,0,0,1,0,34507,0.226326,0.225981,-0.147195,18,0.0207359,10,-3.32633e-05,-3.83211,-0.273735,-0.215537,1.2457,0.225981,
2,0,0,0,0,34508.5,0.218835,0.218515,-0.155907,18,0.0204874,10,-3.40679e-05,-3.80714,-0.275788,-0.213933,1.2973,0.218515,
2,0,0,1,0,34510,0.211344,0.211036,-0.164674,18,0.0202259,10,-3.47522e-05,-3.78337,-0.390403,-0.151126,0.971182,0.211036,
2,0,0,1,0,34511.5,0.203854,0.203507,-0.172196,18,0.019951,10,-3.50431e-05,-3.76398,-0.34364,-0.171691,1.16549,0.203507,
2,0,0,1,0,34513,0.196363,0.196061,-0.182845,18,0.0196623,10,-3.58489e-05,-3.73792,-0.296042,-0.199296,1.42636,0.196061,
2,0,0,1,0,34514.5,0.188871,0.188547,-0.193103,18,0.019358,10,-3.64091e-05,-3.71421,-0.290575,-0.203046,1.532,0.188547,
2,0,0,1,0,34516,0.181381,0.181087,-0.205384,18,0.0190372,10,-3.71923e-05,-3.68743,-0.29123,-0.202589,1.6224,0.181087,
2,0,0,1,0,34517.5,0.173889,0.173577,-0.219437,18,0.0186972,10,-3.80892e-05,-3.65869,-0.270815,-0.217861,1.86552,0.173577,
2,0,0,1,0,34519,0.166398,0.166061,-0.23719,18,0.018334,10,-3.93879e-05,-3.6249,-0.211821,-0.278537,2.5817,0.166061,
2,0,0,1,0,34520.5,0.158907,0.158569,-0.258398,18,0.0179402,10,-4.09739e-05,-3.58771,-0.152951,-0.385745,3.93354,0.158569,
2,0,0,1,0,34521.9,0.151416,0.151097,-0.297,18,0.017502,10,-4.48759e-05,-3.52724,-0.112729,-0.523378,6.08535,0.151097,
2,0,0,1,0,34523.4,0.143925,0.143663,-0.358242,18,0.0169916,10,-5.1466e-05,-3.44582,-0.0761586,-0.774699,10.8606,0.143663,
2,0,0,1,0,34524.9,0.136434,0.136061,-0.449124,18,0.0163661,10,-6.11082e-05,-3.34763,-0.0756827,-0.77957,13.6239,0.1360608,
2,0,0,1,0,34526.4,0.128943,0.128612,-0.544151,18,0.0155969,10,-6.99845e-05,-3.26428,-0.121878,-0.484091,10.2229,0.128612,
2,0,0,0,0,34527.9,0.121453,0.121148,-0.605772,18,0.014707,10,-7.33883e-05,-3.21769,-0.263215,-0.224151,5.27842,0.121148,
2,0,0,1,0,34529.4,0.113962,0.113621,-0.620147,18,0.013759,10,-7.04615e-05,-3.20751,-4.54613,-0.0129781,0.314554,0.113621,
2,0,0,0,0,34530.9,0.106471,0.106146,-0.615312,18,0.0128069,10,-6.53128e-05,-3.2109,1.26058,0.0468037,-1.12521,0.106146,
2,0,0,1,0,34532.4,0.0989798,0.0986254,-0.601418,18,0.0118712,10,-5.93151e-05,-3.22082,0.838902,0.07033,-1.64788,0.0986254,
2,0,0,0,0,34533.9,0.0914889,0.0911803,-0.584174,18,0.0109598,10,-5.32652e-05,-3.23346,0.492797,0.119725,-2.72356,0.0911803,
2,0,0,1,0,34535.4,0.083998,0.0836589,-0.563055,18,0.0100773,10,-4.71046e-05,-3.24945,0.38571,0.152965,-3.35288,0.0836589,
2,0,0,0,0,34536.9,0.076507,0.0761925,-0.543851,18,0.00922554,10,-4.14374e-05,-3.26452,0.494581,0.119293,-2.52996,0.07619255,
2,0,0,1,0,34538.4,0.069016,0.0687241,-0.524132,18,0.00840241,10,-3.60205e-05,-3.28056,0.542414,0.108773,-2.23456,0.0687241,
2,0,0,0,0,34539.9,0.0615251,0.0611963,-0.50908,18,0.00760423,10,-3.11538e-05,-3.29321,0.575772,0.102471,-2.03982,0.0611963,
2,0,0,1,0,34541.4,0.0540342,0.0537204,-0.493143,18,0.00683088,10,-2.64919e-05,-3.30703,0.62179,0.0948873,-1.82245,0.0537204,
2,0,0,1,0,34542.9,0.0465436,0.0462322,-0.47575,18,0.00608222,10,-2.1995e-05,-3.32262,0.578759,0.101942,-1.89896,0.0462322,
2,0,0,1,0,34544.4,0.0390526,0.0386947,-0.459215,18,0.00535919,10,-1.77692e-05,-3.33798,0.353484,0.16691,-2.98337,0.0386947,
2,0,0,1,0,34545.9,0.0315615,0.0312019,-0.442298,18,0.00466218,10,-1.38005e-05,-3.35429,0.471963,0.12501,-2.156,0.0312019,
2,0,0,1,0,34547.4,0.0240706,0.0237619,-0.426194,18,0.0039897,10,-1.01272e-05,-3.37039,0.535031,0.110274,-1.84085,0.02376187,
2,0,0,1,0,34548.9,0.0165795,0.016251,-0.417323,18,0.00333627,10,-6.78194e-06,-3.37953,1.05233,0.0560659,-0.912445,0.016251,
2,0,0,1,0,34550.4,0.00908846,0.00875688,-0.41073,18,0.00269449,10,-3.59671e-06,-3.38644,4.27209,0.0138106,-0.22174,0.00875688,
2,0,0,1,0,34551.9,0.00159739,0.00121541,-0.415959,18,0.00205462,10,-5.05562e-07,-3.38095, , , ,0.001215414,
2,0,0,0,0,34552.2,0.000199195,-0.000159264,-0.4126,18,0.00193463,10,6.57123e-08,-3.38447, , , ,-0.000159264,

File: 20221101_1-115_003_TrumpetPlot_ParaChange_from10_every3_03_CV_C01_18.csv
mode,ox/red,error,control changes,counter inc.,time/s,control/V,Ewe/V,<I>/mA,cycle number,(Q-Qo)/C,I Range,P/W,log(|I|),Tafel slope mV/dec,alpha_eff,dI/d(E-IR),E-IR/V,
2,0,0,1,0,36402.4,2.44065e-05,-0.000268062,-0.105754,19,0.0000000E+000,10,2.83487e-08,-3.9757, , , ,-0.000268062,
2,1,0,1,0,36403.8,0.00729041,0.00697118,0.203011,19,0.000253853,10,1.41523e-06,-3.69248,0.0876876,0.672843,5.29268,0.00697118,
2,1,0,1,0,36405.3,0.0147815,0.0144481,0.235979,19,0.000604106,10,3.40946e-06,-3.62713,0.141343,0.417424,3.83503,0.0144481,
2,1,0,1,0,36406.8,0.0222725,0.0219729,0.262048,19,0.000998001,10,5.75796e-06,-3.58162,0.152068,0.387984,3.96828,0.0219729,
2,1,0,1,0,36408.3,0.0297635,0.0294487,0.288707,19,0.00143141,10,8.50206e-06,-3.53954,0.216555,0.272448,3.0657,0.0294487,
2,1,0,1,0,36409.8,0.0372545,0.0369194,0.314645,19,0.00190388,10,1.16165e-05,-3.50218,0.211168,0.279398,3.43664,0.0369194,
2,1,0,1,0,36411.3,0.0447456,0.0443921,0.34072,19,0.00241557,10,1.51253e-05,-3.4676,0.222371,0.265322,3.52728,0.0443921,
2,1,0,1,0,36412.8,0.0522367,0.0519202,0.363899,19,0.00296481,10,1.88937e-05,-3.43902,0.241946,0.243856,3.46243,0.0519202,
2,1,0,1,0,36414.3,0.0597277,0.0594215,0.386878,19,0.00354909,10,2.29889e-05,-3.41243,0.301105,0.195945,2.95166,0.0594215,
2,1,0,1,0,36415.8,0.0672187,0.0669503,0.405877,19,0.00416434,10,2.71736e-05,-3.39161,0.388103,0.152022,2.40588,0.0669503,
2,1,0,1,0,36417.3,0.0747092,0.0743676,0.42171,19,0.00480594,10,3.13616e-05,-3.37499,0.566917,0.104072,1.71599,0.0743676,
2,1,0,0,0,36418.8,0.0822001,0.0818721,0.436447,19,0.00547081,10,3.57328e-05,-3.36007,0.533237,0.110645,1.89003,0.0818721,
2,1,0,1,0,36420.3,0.0896911,0.0893543,0.457634,19,0.00616041,10,4.08916e-05,-3.33948,0.288277,0.204664,3.65539,0.0893543,
2,1,0,0,0,36421.8,0.097182,0.0968312,0.487743,19,0.00688901,10,4.72287e-05,-3.31181,0.191214,0.308555,5.88979,0.0968312,
2,1,0,1,0,36423.3,0.104673,0.104379,0.532328,19,0.00767362,10,5.5564e-05,-3.27382,0.223375,0.26413,5.45847,0.1043792,
2,1,0,0,0,36424.8,0.112164,0.111805,0.567225,19,0.00851878,10,6.34187e-05,-3.24624,0.373215,0.158086,3.49923,0.111805,
2,1,0,1,0,36426.3,0.119655,0.119347,0.593589,19,0.00941181,10,7.0843e-05,-3.22651,0.605892,0.0973771,2.26163,0.119347,
2,1,0,0,0,36427.8,0.127146,0.126831,0.611798,19,0.0103397,10,7.75951e-05,-3.21339,0.819316,0.0720113,1.72435,0.126831,
2,1,0,1,0,36429.3,0.134637,0.134325,0.613403,19,0.0112874,10,8.23954e-05,-3.21225,-0.377745,-0.15619,-3.7325,0.134325,
2,1,0,1,0,36430.8,0.142127,0.141806,0.55123,19,0.0121899,10,7.81676e-05,-3.25867,-0.103099,-0.572268,-12.2324,0.1418059,
2,1,0,1,0,36432.3,0.149618,0.149316,0.44411,19,0.012956,10,6.63126e-05,-3.35251,-0.0800349,-0.737178,-12.7813,0.149316,
2,1,0,1,0,36433.8,0.157109,0.156821,0.369349,19,0.013579,10,5.79217e-05,-3.43256,-0.116801,-0.505134,-7.29615,0.156821,
2,1,0,1,0,36435.3,0.1646,0.164292,0.335944,19,0.0141237,10,5.51928e-05,-3.47373,-0.269247,-0.219129,-2.86931,0.164292,
2,1,0,1,0,36436.8,0.172091,0.171818,0.317596,19,0.0146321,10,5.45686e-05,-3.49813,-0.461831,-0.127752,-1.59068,0.171818,
2,1,0,1,0,36438.3,0.179582,0.179231,0.308329,19,0.0151206,10,5.52622e-05,-3.51099,-0.824338,-0.0715726,-0.862283,0.179231,
2,1,0,1,0,36439.8,0.187074,0.186773,0.301326,19,0.0155967,10,5.62796e-05,-3.52096,-0.995565,-0.0592629,-0.696423,0.186773,
2,1,0,1,0,36441.3,0.194564,0.194241,0.296937,19,0.0160647,10,5.76775e-05,-3.52734,-0.849663,-0.0694393,-0.803692,0.194241,
2,1,0,1,0,36442.8,0.202056,0.201741,0.292979,19,0.0165263,10,5.91058e-05,-3.53316,-1.95009,-0.030255,-0.346372,0.201741,
2,1,0,1,0,36444.3,0.209547,0.209235,0.291084,19,0.0169827,10,6.09049e-05,-3.53598,-1.32535,-0.0445164,-0.504583,0.209235,
2,1,0,1,0,36445.8,0.217038,0.216771,0.286888,19,0.0174342,10,6.2189e-05,-3.54229,-3.51022,-0.0168081,-0.189007,0.216771,
2,1,0,1,0,36447.3,0.224529,0.224206,0.285256,19,0.017882,10,6.39559e-05,-3.54477,-2.03679,-0.0289671,-0.321731,0.224206,
2,1,0,1,0,36448.8,0.232019,0.231696,0.281709,19,0.0183264,10,6.52707e-05,-3.5502,-1.24443,-0.0474112,-0.522739,0.231696,
2,1,0,0,0,36450.3,0.23951,0.239208,0.281155,19,0.0187677,10,6.72544e-05,-3.55105,-7.73284,-0.0076298,-0.0835729,0.239208,
2,1,0,1,0,36451.8,0.247001,0.246709,0.279746,19,0.0192063,10,6.90158e-05,-3.55324,-1.15392,-0.05113,-0.555733,0.246709,
2,1,0,0,0,36453.3,0.254492,0.254187,0.276259,19,0.0196423,10,7.02215e-05,-3.55868,-1.91655,-0.0307845,-0.333314,0.254187,
2,1,0,1,0,36454.8,0.261983,0.261698,0.275435,19,0.0200753,10,7.20807e-05,-3.55998,-2.38031,-0.0247867,-0.266382,0.261698,
2,1,0,0,0,36456.3,0.269474,0.269142,0.273438,19,0.0205053,10,7.35937e-05,-3.56314,9.48211,0.00622224,0.0662892,0.269142,
2,1,0,1,0,36457.8,0.276965,0.276642,0.271847,19,0.0209328,10,7.52043e-05,-3.56568,-1.19065,-0.0495528,-0.526131,0.2766422,
2,1,0,0,0,36459.2,0.284456,0.284141,0.270451,19,0.0213574,10,7.68464e-05,-3.56791,-1.36727,-0.0431517,-0.45435,0.284141,
2,1,0,1,0,36460.7,0.291947,0.291586,0.267632,19,0.0217793,10,7.80375e-05,-3.57246,-1.35595,-0.043512,-0.4548,0.291586,
2,1,0,1,0,36462.2,0.299437,0.299118,0.265632,19,0.0221982,10,7.94553e-05,-3.57572,-0.00268367,-21.9848,-115.685,0.299118,
2,0,0,1,0,36463.6,0.293744,0.293404,-0.017697,19,0.0222378,10,-5.19237e-06,-4.7521,-0.00477474,-12.3567,6.01123,0.293404,
2,0,0,1,0,36465.1,0.286253,0.285906,-0.0469892,19,0.0221686,10,-1.34345e-05,-4.328,-0.0347017,-1.7002,3.14977,0.285906,
2,0,0,0,0,36466.6,0.278763,0.278406,-0.0680788,19,0.0220619,10,-1.89535e-05,-4.16699,-0.0573448,-1.02886,2.6928,0.2784057,
2,0,0,1,0,36468.1,0.271272,0.270941,-0.084013,19,0.0219279,10,-2.27626e-05,-4.07565,-0.0860812,-0.685399,2.2519,0.270941,
2,0,0,0,0,36469.6,0.263781,0.263488,-0.0978143,19,0.0217711,10,-2.57729e-05,-4.0096,-0.124291,-0.474693,1.82461,0.263488,
2,0,0,1,0,36471.1,0.25629,0.255976,-0.110458,19,0.0215953,10,-2.82747e-05,-3.9568,-0.187925,-0.313955,1.35095,0.255976,
2,0,0,0,0,36472.6,0.248799,0.248513,-0.120424,19,0.0214025,10,-2.9927e-05,-3.91929,-0.223776,-0.263657,1.24992,0.248513,
2,0,0,1,0,36474.1,0.241308,0.24105,-0.130177,19,0.0211943,10,-3.13791e-05,-3.88547,-0.219787,-0.268442,1.37803,0.24105,
2,0,0,0,0,36475.6,0.233817,0.233486,-0.140589,19,0.0209719,10,-3.28255e-05,-3.85205,-0.302248,-0.195204,1.06166,0.2334858,
2,0,0,1,0,36477.1,0.226326,0.226003,-0.148582,19,0.0207361,10,-3.35799e-05,-3.82803,-0.343229,-0.171897,0.99972,0.226003,
2,0,0,0,0,36478.6,0.218835,0.218527,-0.157715,19,0.0204871,10,-3.44648e-05,-3.80213,-0.339788,-0.173638,1.06521,0.218527,
2,0,0,1,0,36480.1,0.211344,0.210992,-0.16613,19,0.020225,10,-3.50522e-05,-3.77955,-0.346119,-0.170462,1.10744,0.210992,
2,0,0,1,0,36481.6,0.203854,0.20351,-0.174881,19,0.0199493,10,-3.55899e-05,-3.75726,-0.369653,-0.159609,1.09604,0.20351,
2,0,0,1,0,36483.1,0.196363,0.196095,-0.183955,19,0.01966,10,-3.60726e-05,-3.73529,-0.306815,-0.192298,1.38274,0.196095,
2,0,0,1,0,36484.6,0.188871,0.188547,-0.194691,19,0.0193553,10,-3.67084e-05,-3.71065,-0.256155,-0.23033,1.7492,0.188547,
2,0,0,1,0,36486.1,0.181381,0.181088,-0.207161,19,0.0190339,10,-3.75144e-05,-3.68369,-0.227451,-0.259396,2.09359,0.181088,
2,0,0,1,0,36487.6,0.173889,0.17354,-0.221501,19,0.0186928,10,-3.84393e-05,-3.65462,-0.259788,-0.227108,1.95264,0.17354,
2,0,0,1,0,36489.1,0.166398,0.166063,-0.237796,19,0.0183283,10,-3.94892e-05,-3.62379,-0.224456,-0.262858,2.4605,0.166063,
2,0,0,1,0,36490.6,0.158907,0.1586,-0.261454,19,0.0179334,10,-4.14665e-05,-3.58261,-0.155661,-0.379028,3.88765,0.1586,
2,0,0,1,0,36492.1,0.151416,0.151107,-0.299208,19,0.017494,10,-4.52124e-05,-3.52403,-0.108179,-0.545395,6.38981,0.151107,
2,0,0,1,0,36493.6,0.143925,0.143588,-0.359352,19,0.016983,10,-5.15988e-05,-3.44448,-0.0732067,-0.805938,11.321,0.143588,
2,0,0,1,0,36495.1,0.136434,0.136065,-0.449481,19,0.0163573,10,-6.11585e-05,-3.34729,-0.0803925,-0.7339,12.8749,0.136065,
2,0,0,1,0,36496.6,0.128943,0.128625,-0.546351,19,0.0155886,10,-7.02743e-05,-3.26253,-0.118753,-0.496828,10.4951,0.128625,
2,0,0,0,0,36498.1,0.121453,0.121151,-0.606557,19,0.014699,10,-7.34848e-05,-3.21713,-0.27415,-0.215211,5.075,0.121151,
2,0,0,1,0,36499.6,0.113962,0.113654,-0.621077,19,0.0137509,10,-7.05876e-05,-3.20685,-6.3705,-0.00926144,0.225109,0.113654,
2,0,0,0,0,36501.1,0.106471,0.106166,-0.616224,19,0.0127987,10,-6.54221e-05,-3.21026,1.02014,0.057835,-1.39274,0.106166,
2,0,0,1,0,36502.6,0.0989798,0.098671,-0.601671,19,0.0118633,10,-5.93675e-05,-3.22064,0.702932,0.0839341,-1.96722,0.098671,
2,0,0,0,0,36504.1,0.0914889,0.0911369,-0.586213,19,0.0109522,10,-5.34256e-05,-3.23194,0.585139,0.100831,-2.29788,0.09113685,
2,0,0,1,0,36505.6,0.083998,0.0836769,-0.563292,19,0.0100695,10,-4.71346e-05,-3.24927,0.358664,0.164499,-3.61918,0.08367689,
2,0,0,0,0,36507.1,0.076507,0.0761788,-0.545086,19,0.00921737,10,-4.1524e-05,-3.26353,0.479445,0.123059,-2.61725,0.0761788,
2,0,0,1,0,36508.6,0.069016,0.0687008,-0.524609,19,0.00839364,10,-3.60411e-05,-3.28016,0.507912,0.116162,-2.39031,0.0687008,
2,0,0,0,0,36510.1,0.0615251,0.0611995,-0.510048,19,0.00759503,10,-3.12147e-05,-3.29239,0.66329,0.0889506,-1.77515,0.0611995,
2,0,0,1,0,36511.6,0.0540342,0.0537257,-0.494483,19,0.00682144,10,-2.65665e-05,-3.30585,0.488473,0.120785,-2.32814,0.0537257,
2,0,0,1,0,36513.1,0.0465436,0.0461951,-0.476485,19,0.00607305,10,-2.20113e-05,-3.32195,0.506697,0.11644,-2.16922,0.0461951,
2,0,0,1,0,36514.6,0.0390526,0.0387456,-0.459409,19,0.00535041,10,-1.78001e-05,-3.3378,0.39034,0.15115,-2.70427,0.0387456,
2,0,0,1,0,36516.1,0.0315615,0.031223,-0.442593,19,0.00465375,10,-1.38191e-05,-3.354,0.441555,0.133619,-2.3094,0.031223,
2,0,0,1,0,36517.5,0.0240706,0.023762,-0.427461,19,0.00398115,10,-1.01573e-05,-3.3691,0.569434,0.103612,-1.736,0.023762,
2,0,0,1,0,36519,0.0165795,0.0162416,-0.417419,19,0.00332744,10,-6.77954e-06,-3.37943,0.862559,0.0684011,-1.11538,0.0162416,
2,0,0,1,0,36520.5,0.00908846,0.00873588,-0.412841,19,0.00268565,10,-3.60653e-06,-3.38422,3.2678,0.018055,-0.291045,0.00873588,
2,0,0,1,0,36522,0.00159739,0.00125771,-0.417774,19,0.002045,10,-5.2544e-07,-3.37906, , , ,0.00125771,
2,0,0,0,0,36522.3,0.000199195,-0.00018026,-0.415878,19,0.00192474,10,7.49662e-08,-3.38103, , , ,-0.00018026,