Folder: Figs_alphaMnO2_OER_Tafel_sleope/Figure_codes/Fig_3-5/rawdata_trumpetplot_data/after 10th (part 12)

File: 20221101_1-115_003_TrumpetPlot_ParaChange_from10_every3_02_CV_C01_23.csv
mode,ox/red,error,control changes,counter inc.,time/s,control/V,Ewe/V,<I>/mA,cycle number,(Q-Qo)/C,I Range,P/W,log(|I|),Tafel slope mV/dec,alpha_eff,dI/d(E-IR),E-IR/V,
2,0,0,1,0,45653,2.44065e-05,-0.000344411,-0.394513,24,0.0000000E+000,10,1.35875e-07,-3.40394, , , ,-0.000344411,
2,0,0,1,0,45660.3,0.00729061,0.0069766,-0.0969409,24,-0.000975438,10,-6.76318e-07,-4.01349,-0.0305704,-1.92997,7.42342,0.0069766,
2,0,0,1,0,45667.8,0.0147815,0.0144365,-0.0602486,24,-0.00147232,10,-8.69781e-07,-4.22005,-0.0388535,-1.51852,3.57325,0.01443653,
2,0,0,1,0,45675.3,0.0222725,0.0219368,-0.039265,24,-0.00176498,10,-8.6135e-07,-4.40599,-0.0383292,-1.5393,2.37679,0.0219368,
2,0,0,1,0,45682.8,0.0297635,0.0294202,-0.0239279,24,-0.00192276,10,-7.03963e-07,-4.6211,-0.0290835,-2.02864,1.86461,0.0294202,
2,0,0,1,0,45690.3,0.0372544,0.0369744,-0.0104105,24,-0.00197272,10,-3.84923e-07,-4.98253,-0.0149727,-3.9405,1.54967,0.0369744,
2,0,0,1,0,45697.7,0.0447454,0.044426,0.00149012,24,-0.00192718,10,6.62003e-08,-5.82678,0.0123474,4.77834,1.28969,0.044426,
2,1,0,1,0,45705.2,0.0522363,0.0519336,0.0108887,24,-0.00180081,10,5.65489e-07,-4.96302,0.0176218,3.34813,1.43264,0.0519336,
2,1,0,1,0,45712.7,0.0597273,0.0593968,0.0207376,24,-0.00159946,10,1.23174e-06,-4.68324,0.0378313,1.55955,1.23473,0.0593968,
2,1,0,1,0,45720.2,0.0672183,0.0668473,0.0289929,24,-0.00133221,10,1.9381e-06,-4.53771,0.0648326,0.910036,1.0024,0.0668473,
2,1,0,1,0,45727.7,0.0747092,0.0743856,0.0359299,24,-0.00100685,10,2.67267e-06,-4.44454,0.087669,0.672986,0.949704,0.07438565,
2,1,0,1,0,45735.2,0.0822001,0.081906,0.0428855,24,-0.000627924,10,3.51258e-06,-4.36769,0.0996112,0.592303,1.00072,0.081906,
2,1,0,1,0,45742.7,0.0896911,0.0894052,0.0516272,24,-0.000190121,10,4.61574e-06,-4.28712,0.0944329,0.624782,1.26323,0.0894052,
2,1,0,1,0,45750.2,0.0971821,0.0969056,0.0612648,24,0.000316644,10,5.9369e-06,-4.21279,0.0821883,0.717863,1.72164,0.0969056,
2,1,0,1,0,45757.7,0.104673,0.104372,0.0728265,24,0.000902949,10,7.60103e-06,-4.13771,0.114289,0.516236,1.44857,0.104372,
2,1,0,1,0,45765.2,0.112164,0.111837,0.0805962,24,0.0015642,10,9.01364e-06,-4.09369,0.284539,0.207353,0.65554,0.111837,
2,1,0,1,0,45772.7,0.119655,0.119293,0.0895653,24,0.00228784,10,1.06845e-05,-4.04786,0.227415,0.259437,0.899805,0.119293,
2,1,0,1,0,45780.2,0.127146,0.126812,0.0947575,24,0.00306547,10,1.20164e-05,-4.02339,0.400308,0.147387,0.545158,0.1268122,
2,1,0,1,0,45787.6,0.134637,0.134299,0.0933868,24,0.00386594,10,1.25417e-05,-4.02971,-0.185414,-0.318206,-1.15977,0.134299,
2,1,0,1,0,45795.1,0.142128,0.141799,0.0787799,24,0.00460108,10,1.11709e-05,-4.10358,-0.0752191,-0.784375,-2.37879,0.141799,
2,1,0,1,0,45802.6,0.149619,0.149296,0.0614344,24,0.00520035,10,9.1719e-06,-4.21159,-0.0916529,-0.643733,-1.55284,0.149296,
2,1,0,1,0,45810.1,0.15711,0.156788,0.053343,24,0.00570361,10,8.36352e-06,-4.27292,-0.144052,-0.409575,-0.85259,0.156788,
2,1,0,1,0,45817.6,0.164601,0.164305,0.0509273,24,0.00616471,10,8.36759e-06,-4.29305,-0.897086,-0.0657685,-0.129513,0.164305,
2,1,0,1,0,45825.1,0.172091,0.171798,0.0495782,24,0.00661614,10,8.51741e-06,-4.30471,2.04843,0.0288026,0.0564884,0.171798,
2,1,0,1,0,45832.6,0.179582,0.179271,0.0502207,24,0.00706508,10,9.00314e-06,-4.29912,8.83011,0.00668169,0.0130906,0.179271,
2,1,0,1,0,45840.1,0.187073,0.186717,0.0507821,24,0.00751772,10,9.48186e-06,-4.29429,0.833924,0.0707498,0.140483,0.186717,
2,1,0,1,0,45847.6,0.194564,0.194243,0.0516209,24,0.0079737,10,1.0027e-05,-4.28717,1.04608,0.0564012,0.113522,0.194243,
2,1,0,1,0,45855.1,0.202055,0.201731,0.0525838,24,0.00843526,10,1.06078e-05,-4.27915,1.60699,0.0367145,0.0748288,0.201731,
2,1,0,1,0,45862.6,0.209546,0.209232,0.0534272,24,0.0089016,10,1.11787e-05,-4.27224,0.759876,0.0776442,0.161998,0.209232,
2,1,0,1,0,45870,0.217037,0.216722,0.0536923,24,0.00937281,10,1.16363e-05,-4.27009,-560.944,-0.00010518,-0.000220438,0.216722,
2,1,0,1,0,45877.5,0.224528,0.224183,0.055107,24,0.0098489,10,1.2354e-05,-4.25879,0.929091,0.0635029,0.136798,0.224183,
2,1,0,1,0,45885,0.232019,0.23172,0.055828,24,0.0103319,10,1.29365e-05,-4.25315,0.708902,0.0832273,0.181506,0.23172,
2,1,0,1,0,45892.5,0.23951,0.239258,0.0570239,24,0.0108242,10,1.36434e-05,-4.24394,0.750099,0.0786563,0.175877,0.239258,
2,1,0,1,0,45900,0.247001,0.246695,0.057676,24,0.0113243,10,1.42284e-05,-4.23901,0.513565,0.114883,0.260441,0.246695,
2,1,0,1,0,45907.5,0.254492,0.254179,0.058589,24,0.0118308,10,1.48921e-05,-4.23218,0.796827,0.0740437,0.171569,0.254179,
2,1,0,1,0,45915,0.261983,0.261684,0.0601335,24,0.0123447,10,1.5736e-05,-4.22088,4.13853,0.0142563,0.0335367,0.261684,
2,1,0,1,0,45922.5,0.269474,0.269179,0.0614085,24,0.0128645,10,1.65299e-05,-4.21177,0.877323,0.0672501,0.161298,0.269179,
2,1,0,1,0,45930,0.276965,0.276629,0.0622012,24,0.0133918,10,1.72067e-05,-4.2062,0.801576,0.073605,0.179099,0.276629,
2,1,0,1,0,45937.5,0.284456,0.28414,0.063117,24,0.0139255,10,1.79341e-05,-4.19985,1.08843,0.0542064,0.133754,0.28414,
2,1,0,1,0,45945,0.291947,0.291581,0.063559,24,0.0144647,10,1.85326e-05,-4.19682,3.06367,0.019258,0.0478667,0.291581,
2,1,0,1,0,45952.4,0.299438,0.299139,0.0648148,24,0.0150076,10,1.93886e-05,-4.18833,-0.00448366,-13.1589,-21.3828,0.299139,
2,1,0,1,0,45959.3,0.293745,0.293442,0.00929692,24,0.0151061,10,2.72811e-06,-5.03166,0.0138901,4.24761,1.54821,0.293442,
2,1,0,1,0,45966.8,0.286254,0.285936,0.000539411,24,0.0150796,10,1.54237e-07,-6.26808,0.0125896,4.68639,0.909973,0.285936,
2,1,0,1,0,45974.3,0.278763,0.278461,-0.00494651,24,0.0149978,10,-1.37741e-06,-5.3057,-0.0168072,-3.5104,0.695097,0.278461,
2,0,0,1,0,45981.8,0.271272,0.270983,-0.00932095,24,0.0148782,10,-2.52582e-06,-5.03054,-0.0403047,-1.46385,0.546339,0.270983,
2,0,0,1,0,45989.2,0.263781,0.263493,-0.0136543,24,0.0147261,10,-3.59781e-06,-4.86473,-0.0855934,-0.689305,0.365817,0.263493,
2,1,0,1,0,45996.7,0.25629,0.255964,-0.016824,24,0.014547,10,-4.30634e-06,-4.77407,-0.0790175,-0.74667,0.491311,0.255964,
2,0,0,1,0,46004.2,0.248799,0.248456,-0.0203682,24,0.0143418,10,-5.0606e-06,-4.69105,-0.089756,-0.657338,0.513848,0.248456,
2,0,0,1,0,46011.7,0.241308,0.241009,-0.02335,24,0.0141126,10,-5.62756e-06,-4.63171,-0.130277,-0.452881,0.41907,0.241009,
2,0,0,1,0,46019.2,0.233817,0.233487,-0.0263685,24,0.0138583,10,-6.15671e-06,-4.57891,-0.173217,-0.340614,0.34841,0.233487,
2,0,0,1,0,46026.7,0.226326,0.226022,-0.0287484,24,0.0135836,10,-6.49776e-06,-4.54139,-0.211077,-0.279519,0.316735,0.226022,
2,0,0,1,0,46034.2,0.218835,0.218503,-0.0317335,24,0.0132864,10,-6.93388e-06,-4.49848,-0.271126,-0.217611,0.26847,0.218503,
2,0,0,1,0,46041.7,0.211344,0.211013,-0.0342085,24,0.0129679,10,-7.21843e-06,-4.46587,-0.187428,-0.314788,0.426012,0.211013,
2,0,0,1,0,46049.2,0.203853,0.203509,-0.036923,24,0.012627,10,-7.51417e-06,-4.4327,-0.325757,-0.181116,0.264259,0.203509,
2,0,0,1,0,46056.7,0.196362,0.196067,-0.0401768,24,0.0122656,10,-7.87735e-06,-4.39603,-0.2186,-0.269899,0.422594,0.196067,
2,0,0,1,0,46064.2,0.188871,0.188555,-0.0432906,24,0.0118791,10,-8.16266e-06,-4.36361,-0.240315,-0.245511,0.417784,0.188555,
2,0,0,1,0,46071.6,0.18138,0.181104,-0.0474016,24,0.0114672,10,-8.58461e-06,-4.32421,-0.256905,-0.229657,0.421788,0.181104,
2,0,0,1,0,46079.1,0.173889,0.173569,-0.0508951,24,0.0110244,10,-8.8338e-06,-4.29332,-0.289306,-0.203936,0.407494,0.173569,
2,0,0,1,0,46086.6,0.166398,0.166086,-0.0559382,24,0.0105495,10,-9.29058e-06,-4.25229,-0.194862,-0.302778,0.661272,0.166086,
2,0,0,1,0,46094.1,0.158907,0.158609,-0.0622141,24,0.010031,10,-9.86774e-06,-4.20611,-0.174062,-0.33896,0.822313,0.158609,
2,0,0,1,0,46101.6,0.151417,0.15109,-0.0712918,24,0.00945364,10,-1.07715e-05,-4.14696,-0.107435,-0.54917,1.53132,0.1510901,
2,0,0,1,0,46109.1,0.143926,0.143608,-0.0852734,24,0.00878746,10,-1.22459e-05,-4.06919,-0.0763684,-0.77257,2.58176,0.143608,
2,0,0,1,0,46116.6,0.136435,0.136083,-0.107278,24,0.00798418,10,-1.45987e-05,-3.96949,-0.0797925,-0.739417,3.07974,0.136083,
2,0,0,1,0,46124.1,0.128944,0.128634,-0.127625,24,0.00701288,10,-1.64169e-05,-3.89406,-0.141783,-0.416129,2.06486,0.128634,
2,0,0,1,0,46131.6,0.121453,0.121152,-0.138708,24,0.00592091,10,-1.68047e-05,-3.8579,-0.645099,-0.0914588,0.493027,0.121152,
2,0,0,1,0,46139.1,0.113962,0.113663,-0.139971,24,0.00478547,10,-1.59095e-05,-3.85396,4.20314,0.0140371,-0.0770643,0.113663,
2,0,0,1,0,46146.6,0.106471,0.106151,-0.140063,24,0.00364668,10,-1.48679e-05,-3.85368,-12.7449,-0.0046293,0.0254401,0.106151,
2,0,0,1,0,46154,0.0989798,0.0986339,-0.138505,24,0.00251521,10,-1.36613e-05,-3.85854,1.29141,0.0456866,-0.245977,0.0986339,
2,0,0,1,0,46161.5,0.0914889,0.0911591,-0.13474,24,0.00140527,10,-1.22828e-05,-3.8705,0.372221,0.158508,-0.833125,0.0911591,
2,0,0,1,0,46169,0.083998,0.0836875,-0.12972,24,0.000331059,10,-1.08559e-05,-3.88699,0.383053,0.154026,-0.781027,0.0836875,
2,0,0,1,0,46176.5,0.076507,0.0761809,-0.125811,24,-0.000709115,10,-9.58439e-06,-3.90028,0.506498,0.116486,-0.569806,0.0761809,
2,0,0,1,0,46184,0.069016,0.0686848,-0.121234,24,-0.0017186,10,-8.32696e-06,-3.91637,0.614339,0.0960382,-0.458307,0.0686848,
2,0,0,1,0,46191.5,0.0615251,0.0612165,-0.118524,24,-0.00270319,10,-7.25561e-06,-3.92619,0.725752,0.081295,-0.37718,0.0612165,
2,0,0,1,0,46199,0.0540342,0.0536781,-0.115886,24,-0.00366551,10,-6.22052e-06,-3.93597,0.799756,0.0737725,-0.333173,0.0536781,
2,0,0,1,0,46206.5,0.0465432,0.0462064,-0.112628,24,-0.00460488,10,-5.20412e-06,-3.94835,0.757157,0.0779231,-0.344139,0.0462064,
2,0,0,1,0,46214,0.0390522,0.0386987,-0.110811,24,-0.00552436,10,-4.28825e-06,-3.95542,0.547747,0.107714,-0.463726,0.0386987,
2,0,0,1,0,46221.5,0.0315613,0.0312229,-0.107934,24,-0.00642483,10,-3.37001e-06,-3.96684,0.514587,0.114655,-0.484206,0.0312229,
2,0,0,1,0,46229,0.0240703,0.0237787,-0.105624,24,-0.00730553,10,-2.51161e-06,-3.97624,1.58865,0.0371386,-0.153839,0.02377874,
2,0,0,1,0,46236.4,0.0165794,0.0162425,-0.105268,24,-0.00817557,10,-1.70982e-06,-3.9777,-2.01899,-0.0292226,0.120123,0.0162425,
2,0,0,1,0,46243.9,0.00908843,0.00873158,-0.106446,24,-0.00904966,10,-9.29445e-07,-3.97287,-1.22616,-0.0481178,0.201332,0.00873158,
2,0,0,1,0,46251.4,0.00159744,0.00121967,-0.11016,24,-0.00994,10,-1.34358e-07,-3.95798, , , ,0.001219666,
2,0,0,1,0,46252.8,0.000199235,-0.000168782,-0.11069,24,-0.0101088,10,1.86824e-08,-3.95589, , , ,-0.000168782,

File: 20221101_1-115_003_TrumpetPlot_ParaChange_from10_every3_02_CV_C01_24.csv
mode,ox/red,error,control changes,counter inc.,time/s,control/V,Ewe/V,<I>/mA,cycle number,(Q-Qo)/C,I Range,P/W,log(|I|),Tafel slope mV/dec,alpha_eff,dI/d(E-IR),E-IR/V,
2,0,0,1,0,47623.2,2.44065e-05,-0.000382585,-0.390061,25,0.0000000E+000,10,1.49232e-07,-3.40887, , , ,-0.000382585,
2,0,0,1,0,47630.4,0.00729061,0.00695116,-0.0962423,25,-0.000977568,10,-6.68995e-07,-4.01663,-0.0308823,-1.91048,7.23713,0.00695116,
2,0,0,1,0,47637.9,0.0147815,0.0144757,-0.0597891,25,-0.00147216,10,-8.65491e-07,-4.22338,-0.0382194,-1.54372,3.60312,0.0144757,
2,0,0,1,0,47645.4,0.0222725,0.0219845,-0.0385894,25,-0.00176522,10,-8.4837e-07,-4.41353,-0.0403861,-1.4609,2.22895,0.0219845,
2,0,0,1,0,47652.9,0.0297635,0.0294509,-0.0238688,25,-0.00192885,10,-7.02958e-07,-4.62217,-0.0274206,-2.15166,1.97125,0.0294509,
2,0,0,1,0,47660.4,0.0372544,0.0369246,-0.0110503,25,-0.00198439,10,-4.0803e-07,-4.95662,-0.0148467,-3.97394,1.58034,0.0369246,
2,0,0,1,0,47667.9,0.0447454,0.0444175,0.000801388,25,-0.00194799,10,3.55957e-08,-6.09616,0.0204485,2.8853,1.6593,0.0444175,
2,1,0,1,0,47675.4,0.0522363,0.0518668,0.0104241,25,-0.00182977,10,5.40663e-07,-4.98196,0.0161385,3.65586,1.43599,0.0518668,
2,1,0,1,0,47682.9,0.0597273,0.0594148,0.0201636,25,-0.00163974,10,1.19802e-06,-4.69543,0.0370192,1.59377,1.2142,0.0594148,
2,1,0,1,0,47690.4,0.0672183,0.0669417,0.0285439,25,-0.00138088,10,1.91077e-06,-4.54449,0.0950016,0.621042,0.683023,0.0669417,
2,1,0,1,0,47697.8,0.0747092,0.0743665,0.0352948,25,-0.00106492,10,2.62475e-06,-4.45229,0.0732236,0.805752,1.13618,0.0743665,
2,1,0,1,0,47705.3,0.0822001,0.0818795,0.0432701,25,-0.00068947,10,3.54293e-06,-4.36381,0.0872227,0.676429,1.15047,0.0818795,
2,1,0,1,0,47712.8,0.0896911,0.089383,0.0520865,25,-0.000255246,10,4.65564e-06,-4.28327,0.0896842,0.657864,1.34195,0.089383,
2,1,0,1,0,47720.3,0.0971821,0.0968621,0.0624365,25,0.000250964,10,6.04772e-06,-4.20456,0.0877647,0.672252,1.62211,0.0968621,
2,1,0,1,0,47727.8,0.104673,0.104369,0.0730262,25,0.000831667,10,7.62165e-06,-4.13652,0.1092,0.540295,1.5199,0.104369,
2,1,0,1,0,47735.3,0.112164,0.111838,0.0814887,25,0.00148801,10,9.11354e-06,-4.0889,0.222076,0.265674,0.842244,0.111838,
2,1,0,1,0,47742.8,0.119655,0.119317,0.0894539,25,0.0022072,10,1.06734e-05,-4.0484,0.24341,0.242389,0.848175,0.119317,
2,1,0,1,0,47750.3,0.127146,0.126826,0.0949801,25,0.00298291,10,1.20459e-05,-4.02237,0.660846,0.0892795,0.331308,0.126826,
2,1,0,1,0,47757.8,0.134637,0.13431,0.0934316,25,0.00377856,10,1.25488e-05,-4.02951,-0.17613,-0.334979,-1.22707,0.13431,
2,1,0,1,0,47765.3,0.142128,0.141793,0.0790737,25,0.00451065,10,1.12121e-05,-4.10197,-0.077873,-0.757644,-2.33238,0.141793,
2,1,0,1,0,47772.8,0.149619,0.14927,0.0627671,25,0.00511323,10,9.36928e-06,-4.20227,-0.0838723,-0.70345,-1.72707,0.14927,
2,1,0,1,0,47780.2,0.15711,0.156826,0.0544175,25,0.00561926,10,8.53408e-06,-4.26426,-0.164847,-0.357908,-0.757033,0.156826,
2,1,0,1,0,47787.7,0.164601,0.164256,0.0516968,25,0.00608604,10,8.49151e-06,-4.28654,-1.16927,-0.0504589,-0.101541,0.164256,
2,1,0,1,0,47795.2,0.172091,0.171778,0.0515753,25,0.0065427,10,8.85947e-06,-4.28756,-2.11132,-0.0279446,-0.0560547,0.171778,
2,1,0,1,0,47802.7,0.179582,0.179217,0.0515787,25,0.00699652,10,9.24381e-06,-4.28753,-2.24244,-0.0263106,-0.0529537,0.179217,
2,1,0,1,0,47810.2,0.187073,0.186728,0.0519813,25,0.00745335,10,9.70638e-06,-4.28415,1.14638,0.0514663,0.104227,0.186728,
2,1,0,1,0,47817.7,0.194564,0.19424,0.0526159,25,0.00791311,10,1.02201e-05,-4.27888,1.25677,0.0469458,0.0967745,0.19424,
2,1,0,1,0,47825.2,0.202055,0.201754,0.0535576,25,0.00837757,10,1.08055e-05,-4.27118,0.586741,0.100555,0.209828,0.201754,
2,1,0,1,0,47832.7,0.209546,0.209249,0.0541872,25,0.00884795,10,1.13386e-05,-4.2661,-4.27495,-0.0138013,-0.0291947,0.209249,
2,1,0,1,0,47840.2,0.217037,0.216747,0.0549106,25,0.00932286,10,1.19017e-05,-4.26034,2.37005,0.024894,0.0537398,0.216747,
2,1,0,1,0,47847.7,0.224528,0.224192,0.0562158,25,0.00980567,10,1.26031e-05,-4.25014,1.42402,0.0414319,0.0907866,0.2241925,
2,1,0,1,0,47855.2,0.232019,0.23167,0.0575697,25,0.0102956,10,1.33372e-05,-4.23981,1.02768,0.0574108,0.129563,0.23167,
2,1,0,1,0,47862.6,0.23951,0.23919,0.0583043,25,0.0107921,10,1.39458e-05,-4.2343,1.04205,0.0566189,0.127721,0.2391897,
2,1,0,1,0,47870.1,0.247001,0.246706,0.0593877,25,0.0112952,10,1.46513e-05,-4.2263,0.823445,0.0716502,0.16609,0.2467059,
2,1,0,1,0,47877.6,0.254492,0.254209,0.0600744,25,0.0118056,10,1.52715e-05,-4.22131,0.72577,0.081293,0.192108,0.254209,
2,1,0,1,0,47885.1,0.261983,0.26171,0.0612639,25,0.0123239,10,1.60334e-05,-4.2128,1.16202,0.0507739,0.121819,0.26171,
2,1,0,1,0,47892.6,0.269474,0.269188,0.0616257,25,0.0128467,10,1.65889e-05,-4.21024,0.83079,0.0710168,0.171423,0.2691876,
2,1,0,1,0,47900.1,0.276965,0.276675,0.0629191,25,0.0133744,10,1.74081e-05,-4.20122,1.76028,0.0335173,0.0825316,0.276675,
2,1,0,1,0,47907.6,0.284456,0.284113,0.0641011,25,0.0139094,10,1.8212e-05,-4.19313,2.60121,0.0226818,0.0564052,0.284113,
2,1,0,1,0,47915.1,0.291947,0.291659,0.0649124,25,0.0144497,10,1.89323e-05,-4.18767,0.793559,0.0743486,0.188376,0.291659,
2,1,0,1,0,47922.6,0.299438,0.299127,0.0654776,25,0.0149961,10,1.95861e-05,-4.18391,-0.00441773,-13.3553,-21.888,0.2991271,
2,1,0,1,0,47929.4,0.293745,0.293385,0.00929285,25,0.0150972,10,2.72638e-06,-5.03185,0.0138802,4.25066,1.51853,0.293385,
2,1,0,1,0,47936.9,0.286254,0.285931,0.000417816,25,0.0150717,10,1.19467e-07,-6.37902,0.0153072,3.8544,0.943669,0.285931,
2,0,0,1,0,47944.4,0.278763,0.278486,-0.00556439,25,0.0149937,10,-1.54961e-06,-5.25458,-0.0164751,-3.58116,0.722491,0.278486,
2,0,0,1,0,47951.9,0.271272,0.270974,-0.0102637,25,0.0148755,10,-2.78119e-06,-4.9887,-0.0414363,-1.42387,0.558192,0.270974,
2,0,0,1,0,47959.4,0.263781,0.263477,-0.0141012,25,0.0147251,10,-3.71534e-06,-4.85074,-0.0726802,-0.811775,0.446343,0.263477,
2,0,0,1,0,47966.9,0.25629,0.255996,-0.0176294,25,0.0145447,10,-4.51306e-06,-4.75376,-0.118516,-0.497824,0.343992,0.255996,
2,0,0,1,0,47974.4,0.248799,0.248477,-0.0210443,25,0.014339,10,-5.22901e-06,-4.67687,-0.106588,-0.553531,0.455748,0.248477,
2,0,0,1,0,47981.9,0.241308,0.240998,-0.0239486,25,0.0141079,10,-5.77155e-06,-4.62072,-0.129994,-0.453865,0.426125,0.240998,
2,0,0,1,0,47989.3,0.233817,0.233539,-0.0267623,25,0.0138548,10,-6.25003e-06,-4.57248,-0.130217,-0.45309,0.475019,0.233539,
2,0,0,1,0,47996.8,0.226326,0.226029,-0.0296905,25,0.013579,10,-6.71091e-06,-4.52738,-0.173193,-0.340661,0.401673,0.226029,
2,0,0,1,0,48004.3,0.218835,0.218561,-0.0325187,25,0.0132815,10,-7.10732e-06,-4.48787,-0.14698,-0.401416,0.511092,0.218561,
2,0,0,1,0,48011.8,0.211344,0.211002,-0.0354299,25,0.0129612,10,-7.47579e-06,-4.45063,-0.360667,-0.163586,0.225703,0.211002,
2,0,0,1,0,48019.3,0.203853,0.203575,-0.0381721,25,0.012621,10,-7.77088e-06,-4.41825,-0.232559,-0.253699,0.376888,0.203575,
2,0,0,1,0,48026.8,0.196362,0.196033,-0.0409442,25,0.0122582,10,-8.02642e-06,-4.38781,-0.239794,-0.246045,0.391465,0.196033,
2,0,0,1,0,48034.3,0.188871,0.188547,-0.0448648,25,0.0118705,10,-8.45912e-06,-4.34809,-0.189828,-0.310807,0.539361,0.188547,
2,0,0,1,0,48041.8,0.18138,0.181043,-0.0479483,25,0.0114562,10,-8.68071e-06,-4.31923,-0.169345,-0.348401,0.647257,0.181043,
2,0,0,1,0,48049.3,0.173889,0.173562,-0.0519772,25,0.011014,10,-9.02128e-06,-4.28419,-0.209298,-0.281895,0.569604,0.173562,
2,0,0,1,0,48056.8,0.166398,0.166065,-0.0567084,25,0.0105374,10,-9.41728e-06,-4.24635,-0.194011,-0.304107,0.67517,0.166065,
2,0,0,1,0,48064.3,0.158907,0.158537,-0.0625864,25,0.010019,10,-9.92227e-06,-4.20352,-0.138628,-0.425599,1.04472,0.158537,
2,0,0,1,0,48071.7,0.151417,0.151059,-0.0718087,25,0.00944078,10,-1.08474e-05,-4.14382,-0.108961,-0.541476,1.52009,0.151059,
2,0,0,1,0,48079.2,0.143926,0.143593,-0.0855212,25,0.0087771,10,-1.22803e-05,-4.06793,-0.0787807,-0.748914,2.49559,0.143593,
2,0,0,1,0,48086.7,0.136435,0.136117,-0.106658,25,0.00798132,10,-1.4518e-05,-3.97201,-0.0801125,-0.736464,3.06124,0.136117,
2,0,0,1,0,48094.2,0.128944,0.1286,-0.127549,25,0.00701839,10,-1.64028e-05,-3.89432,-0.142689,-0.413488,2.05631,0.1286,
2,0,0,1,0,48101.7,0.121453,0.12113,-0.13923,25,0.0059319,10,-1.6865e-05,-3.85627,-0.486192,-0.121351,0.655713,0.12113,
2,0,0,1,0,48109.2,0.113962,0.113632,-0.140044,25,0.00479971,10,-1.59135e-05,-3.85374,10.7528,0.00548693,-0.0301617,0.113632,
2,0,0,1,0,48116.7,0.106471,0.106152,-0.14072,25,0.00366335,10,-1.49377e-05,-3.85164,-44.1808,-0.00133542,0.00733988,0.1061522,
2,0,0,1,0,48124.2,0.0989798,0.0987124,-0.138953,25,0.00253326,10,-1.37163e-05,-3.85713,0.78651,0.0750149,-0.405994,0.0987124,
2,0,0,1,0,48131.7,0.0914889,0.0911538,-0.135831,25,0.00142498,10,-1.23815e-05,-3.867,0.670468,0.0879982,-0.465462,0.09115383,
2,0,0,1,0,48139.2,0.083998,0.083677,-0.130299,25,0.000348945,10,-1.09031e-05,-3.88506,0.362664,0.162685,-0.827633,0.083677,
2,0,0,1,0,48146.7,0.076507,0.0761968,-0.126389,25,-0.00069287,10,-9.63044e-06,-3.89829,0.868171,0.067959,-0.335327,0.0761968,
2,0,0,1,0,48154.1,0.069016,0.0687029,-0.123,25,-0.00170668,10,-8.45046e-06,-3.91009,0.7656,0.0770637,-0.370493,0.0687029,
2,0,0,1,0,48161.6,0.0615251,0.0611984,-0.119969,25,-0.00269643,10,-7.34194e-06,-3.92093,0.551829,0.106917,-0.500258,0.0611984,
2,0,0,1,0,48169.1,0.0540342,0.0537353,-0.116536,25,-0.00366038,10,-6.26208e-06,-3.93354,0.829777,0.0711034,-0.324395,0.0537353,
2,0,0,1,0,48176.6,0.0465432,0.0462054,-0.113535,25,-0.00460215,10,-5.24595e-06,-3.94487,0.578441,0.101998,-0.454034,0.04620539,
2,0,0,1,0,48184.1,0.0390522,0.0387644,-0.111216,25,-0.0055203,10,-4.31123e-06,-3.95383,0.508803,0.115958,-0.501275,0.0387644,
2,0,0,1,0,48191.6,0.0315613,0.0312716,-0.108509,25,-0.00641996,10,-3.39324e-06,-3.96454,0.72408,0.0814827,-0.345965,0.0312716,
2,0,0,1,0,48199.1,0.0240703,0.0237618,-0.106148,25,-0.0073012,10,-2.52227e-06,-3.97409,3.31964,0.017773,-0.0740748,0.0237618,
2,0,0,1,0,48206.6,0.0165794,0.0162659,-0.106481,25,-0.008172,10,-1.73201e-06,-3.97273,-3.50727,-0.0168222,0.069543,0.0162659,
2,0,0,1,0,48214.1,0.00908843,0.00879414,-0.10706,25,-0.00904352,10,-9.41502e-07,-3.97037,-1.11411,-0.0529569,0.221737,0.00879414,
2,0,0,1,0,48221.6,0.00159744,0.0012143,-0.110856,25,-0.00993153,10,-1.34612e-07,-3.95524, , , ,0.0012143,
2,0,0,1,0,48223,0.000199235,-0.000206971,-0.11015,25,-0.0100995,10,2.27979e-08,-3.95802, , , ,-0.000206971,