Folder: Figs_alphaMnO2_OER_Tafel_sleope/Figure_codes/Fig_3-5/rawdata_trumpetplot_data/after 10th (part 191)

File: 20221101_1-115_003_TrumpetPlot_ParaChange_from10_every3_12_CV_C01_34.csv
mode,ox/red,error,control changes,counter inc.,time/s,control/V,Ewe/V,<I>/mA,cycle number,(Q-Qo)/C,I Range,P/W,log(|I|),Tafel slope mV/dec,alpha_eff,dI/d(E-IR),E-IR/V,
2,1,0,1,0,68181,2.44065e-05,-0.000287149,14.5433,35,0.0000000E+000,10,-4.1761e-06,-1.83734, , , ,-0.0002871489,
2,1,0,1,0,68181,0.0104008,0.0100412,17.6386,35,0.000280244,10,0.000177113,-1.75354,0.188154,0.313574,214.776,0.0100412,
2,1,0,1,0,68181,0.0212099,0.0208786,19.6554,35,0.000616819,10,0.000410377,-1.70652,0.276193,0.213618,163.429,0.0208786,
2,1,0,1,0,68181,0.0320052,0.0316385,21.2737,35,0.000985648,10,0.000673069,-1.67216,0.351455,0.167873,139.13,0.0316385,
2,1,0,1,0,68181,0.0428033,0.042425,22.6843,35,0.00138156,10,0.000962382,-1.64427,0.422263,0.139723,123.565,0.042425,
2,1,0,1,0,68181,0.0535986,0.0532485,23.9636,35,0.00180155,10,0.00127602,-1.62045,0.475883,0.12398,115.891,0.0532485,
2,1,0,1,0,68181.1,0.0644077,0.0640721,25.1969,35,0.00224418,10,0.00161442,-1.59865,0.505279,0.116767,114.797,0.0640721,
2,1,0,1,0,68181.1,0.075203,0.0748596,26.419,35,0.00270892,10,0.00197772,-1.57808,0.531908,0.110921,114.385,0.0748596,
2,1,0,1,0,68181.1,0.0860011,0.0856355,27.6514,35,0.00319575,10,0.00236794,-1.55828,0.548973,0.107473,116.03,0.0856355,
2,1,0,1,0,68181.1,0.0968075,0.0964845,28.9174,35,0.00370512,10,0.00279008,-1.53884,0.574343,0.102726,115.93,0.0964845,
2,1,0,1,0,68181.1,0.107606,0.107247,30.1906,35,0.0042372,10,0.00323784,-1.52013,0.571638,0.103212,121.641,0.107247,
2,1,0,1,0,68181.2,0.118401,0.118044,31.5195,35,0.00479269,10,0.00372067,-1.50142,0.58307,0.101189,124.52,0.1180436,
2,1,0,1,0,68181.2,0.129207,0.128784,32.9027,35,0.00537265,10,0.00423736,-1.48277,0.561331,0.105107,135.124,0.128784,
2,1,0,1,0,68181.2,0.140005,0.139622,34.5052,35,0.00597931,10,0.00481768,-1.46212,0.532838,0.110728,149.03,0.139622,
2,1,0,1,0,68181.2,0.150803,0.150477,36.086,35,0.00661485,10,0.00543012,-1.44266,0.580866,0.101572,142.987,0.1504772,
2,1,0,1,0,68181.2,0.161604,0.16125,37.5786,35,0.00727812,10,0.00605955,-1.42506,0.675193,0.0873824,128.042,0.16125,
2,1,0,1,0,68181.2,0.172405,0.172061,38.836,35,0.00796637,10,0.00668214,-1.41077,0.875921,0.0673577,101.953,0.172061,
2,1,0,1,0,68181.3,0.183203,0.182862,39.6844,35,0.00867395,10,0.00725676,-1.40138,1.76724,0.0333853,51.6236,0.182862,
2,1,0,1,0,68181.3,0.194001,0.193668,39.9071,35,0.00939132,10,0.00772871,-1.39895,-8.95411,-0.00658916,-10.2474,0.193668,
2,1,0,1,0,68181.3,0.204808,0.204472,39.4593,35,0.0101067,10,0.00806833,-1.40385,-1.26599,-0.046604,-71.6676,0.204472,
2,1,0,1,0,68181.3,0.215603,0.215266,38.3604,35,0.010808,10,0.00825769,-1.41612,-0.688436,-0.0857015,-128.135,0.215266,
2,1,0,1,0,68181.3,0.226401,0.226073,36.6979,35,0.0114841,10,0.00829638,-1.43536,-0.481633,-0.1225,-175.283,0.226073,
2,1,0,1,0,68181.3,0.237207,0.23688,34.6884,35,0.0121268,10,0.00821699,-1.45982,-0.40799,-0.144612,-195.65,0.23688,
2,1,0,1,0,68181.4,0.248005,0.247671,32.5707,35,0.0127319,10,0.00806681,-1.48717,-0.385318,-0.15312,-194.596,0.247671,
2,1,0,1,0,68181.4,0.258801,0.258478,30.5269,35,0.0132992,10,0.00789052,-1.51532,-0.389402,-0.151515,-180.533,0.258478,
2,1,0,1,0,68181.4,0.26961,0.269278,28.6863,35,0.0138315,10,0.00772458,-1.54233,-0.409287,-0.144153,-161.41,0.269278,
2,1,0,1,0,68181.4,0.280405,0.280057,27.0576,35,0.0143326,10,0.00757768,-1.56771,-0.451351,-0.130719,-138.124,0.280057,
2,1,0,1,0,68181.4,0.291203,0.290862,25.6772,35,0.0148067,10,0.00746853,-1.59045,-0.490895,-0.120189,-120.511,0.290862,
2,1,0,0,0,68181.5,0.300012,0.299727,24.6639,35,0.0151766,10,0.00739244,-1.60794,0.00253935,23.2343,20254.3,0.299727,
2,1,0,1,0,68181.5,0.290842,0.290578,14.2118,35,0.0154607,10,0.00412963,-1.84735,0.0404021,1.46032,815.033,0.290578,
2,1,0,1,0,68181.5,0.280047,0.279803,7.23593,35,0.0156488,10,0.00202464,-2.14051,0.0306584,1.92443,534.247,0.279803,
2,1,0,1,0,68181.5,0.269244,0.269003,2.32668,35,0.015732,10,0.000625884,-2.63326,0.0109345,5.39575,390.332,0.269003,
2,0,0,1,0,68181.5,0.258443,0.258122,-1.32888,35,0.0157391,10,-0.000343013,-2.87651,-0.00802038,-7.35626,296.006,0.258122,
2,0,0,1,0,68181.5,0.247645,0.24736,-4.1559,35,0.0156884,10,-0.001028,-2.38133,-0.0394919,-1.49398,233.688,0.2473602,
2,0,0,1,0,68181.6,0.236849,0.236554,-6.41039,35,0.0155922,10,-0.0015164,-2.19312,-0.0773618,-0.762651,188.588,0.236554,
2,0,0,1,0,68181.6,0.22604,0.225713,-8.26661,35,0.0154594,10,-0.00186588,-2.08267,-0.122446,-0.481844,154.373,0.225713,
2,0,0,1,0,68181.6,0.215245,0.214935,-9.8081,35,0.0152962,10,-0.00210811,-2.00841,-0.169265,-0.348565,132.896,0.214935,
2,0,0,1,0,68181.6,0.204447,0.204089,-11.1416,35,0.0151074,10,-0.00227388,-1.95305,-0.222607,-0.265041,114.892,0.204089,
2,0,0,1,0,68181.6,0.19364,0.19331,-12.3146,35,0.0148961,10,-0.00238054,-1.90958,-0.275318,-0.214298,102.716,0.19331,
2,0,0,1,0,68181.6,0.182842,0.182486,-13.3615,35,0.0146649,10,-0.00243829,-1.87414,-0.318256,-0.185385,96.6183,0.182486,
2,0,0,1,0,68181.7,0.172047,0.171728,-14.365,35,0.0144151,10,-0.00246687,-1.84269,-0.352637,-0.167311,93.8286,0.171728,
2,0,0,1,0,68181.7,0.161241,0.160947,-15.3888,35,0.0141472,10,-0.00247677,-1.8128,-0.368098,-0.160283,96.3301,0.160947,
2,0,0,1,0,68181.7,0.150443,0.150135,-16.5062,35,0.0138603,10,-0.00247816,-1.78235,-0.342125,-0.172451,111.234,0.1501347,
2,0,0,1,0,68181.7,0.139645,0.139377,-17.8703,35,0.0135512,10,-0.00249071,-1.74787,-0.283022,-0.208465,145.759,0.139377,
2,0,0,1,0,68181.7,0.128849,0.128537,-19.696,35,0.0132137,10,-0.00253167,-1.70562,-0.232424,-0.253847,195.706,0.1285374,
2,0,0,1,0,68181.8,0.118043,0.117701,-22.1331,35,0.0128377,10,-0.00260509,-1.65496,-0.207466,-0.284384,245.729,0.1177011,
2,0,0,1,0,68181.8,0.107245,0.106964,-24.9214,35,0.0124142,10,-0.00266571,-1.60343,-0.21562,-0.273629,266.005,0.106964,
2,0,0,1,0,68181.8,0.0964468,0.0962268,-27.714,35,0.0119397,10,-0.00266683,-1.5573,-0.25023,-0.235783,255.026,0.0962268,
2,0,0,1,0,68181.8,0.0856404,0.0854075,-30.4033,35,0.0114159,10,-0.00259667,-1.51708,-0.304342,-0.193861,229.63,0.0854075,
2,0,0,1,0,68181.8,0.0748451,0.0745616,-32.6696,35,0.0108473,10,-0.0024359,-1.48586,-0.392576,-0.150289,191.313,0.0745616,
2,0,0,1,0,68181.8,0.0640471,0.0637847,-34.4802,35,0.010242,10,-0.00219931,-1.46243,-0.532125,-0.110876,149.045,0.0637847,
2,0,0,1,0,68181.9,0.0532407,0.0529495,-35.8776,35,0.00960801,10,-0.0018997,-1.44518,-0.771083,-0.0765158,107.006,0.0529495,
2,0,0,1,0,68181.9,0.0424426,0.0421408,-36.8513,35,0.00895281,10,-0.00155294,-1.43355,-1.14814,-0.0513875,73.842,0.0421408,
2,0,0,1,0,68181.9,0.0316473,0.0313278,-37.4921,35,0.00828315,10,-0.00117455,-1.42606,-1.84205,-0.0320296,46.8414,0.03132781,
2,0,0,1,0,68181.9,0.0208437,0.0204883,-37.8677,35,0.00760449,10,-0.000775846,-1.42173,-3.95993,-0.0148992,22.0047,0.0204883,
2,0,0,1,0,68181.9,0.0100429,0.0097496,-37.996,35,0.00692138,10,-0.000370445,-1.42026,514.862,0.000114594,-0.169777,0.0097496,
2,0,0,1,0,68182,-0.000755207,-0.00111533,-37.9269,35,0.0062379,10,4.23008e-05,-1.42105,5.20752,0.0113298,-16.747,-0.00111533,
2,0,0,1,0,68182,-0.0115505,-0.0118689,-37.5863,35,0.00555812,10,0.000446109,-1.42497,2.15265,0.027408,-40.1805,-0.0118689,
2,0,0,1,0,68182,-0.0223597,-0.0226946,-37.0775,35,0.00488602,10,0.00084146,-1.43089,1.62151,0.0363858,-52.6272,-0.02269461,
2,0,0,1,0,68182,-0.033155,-0.0334842,-36.4642,35,0.00422412,10,0.00122098,-1.43813,1.51526,0.0389371,-55.4171,-0.0334842,
2,0,0,1,0,68182,-0.043953,-0.0442834,-35.8457,35,0.00357342,10,0.00158737,-1.44556,1.49918,0.0393549,-55.0776,-0.0442834,
2,0,0,1,0,68182,-0.0547594,-0.0551261,-35.3075,35,0.00293325,10,0.00194636,-1.45213,1.74543,0.0338026,-46.5905,-0.0551261,
2,0,0,1,0,68182.1,-0.0655575,-0.0659115,-34.8715,35,0.00230179,10,0.00229843,-1.45753,2.57542,0.0229089,-31.2046,-0.0659115,
2,0,0,1,0,68182.1,-0.0763528,-0.0767308,-34.6082,35,0.00167656,10,0.00265551,-1.46082,4.53707,0.013004,-17.5768,-0.0767308,
2,0,0,1,0,68182.1,-0.0871592,-0.0875406,-34.5084,35,0.00105476,10,0.00302089,-1.46207,14.7336,0.00400445,-5.39462,-0.0875406,
2,0,0,1,0,68182.1,-0.0979573,-0.0983175,-34.5462,35,0.000433552,10,0.0033965,-1.4616,46.641,0.00126498,-1.70321,-0.0983175,
2,0,0,1,1,68182.1,-0.0955546,-0.0959666,-26.9309,35,8.62309e-05,10,0.00258446,-1.56975,-0.0464802,-1.26936,1361.4,-0.0959666,
2,0,0,1,1,68182.1,-0.0847538,-0.085177,-16.2778,35,-0.000294311,10,0.0013865,-1.7884,-0.0466096,-1.26583,803.979,-0.085177,
2,0,0,1,1,68182.2,-0.0739557,-0.074382,-8.79278,35,-0.000516415,10,0.000654025,-2.05587,-0.0325717,-1.81139,609.672,-0.074382,
2,0,0,1,1,68182.2,-0.0631604,-0.0635786,-2.90373,35,-0.000619255,10,0.000184615,-2.53704,-0.0103904,-5.6783,493.899,-0.0635786,
2,1,0,1,1,68182.2,-0.0523512,-0.0527603,1.94057,35,-0.000626134,10,-0.000102385,-2.71207,0.00625894,9.42652,407.227,-0.0527603,
2,1,0,1,1,68182.2,-0.0415559,-0.0419961,5.96757,35,-0.00055363,10,-0.000250615,-2.2242,0.0384163,1.53581,344.959,-0.0419961,
2,1,0,1,1,68182.2,-0.0307579,-0.0312139,9.38935,35,-0.00041415,10,-0.000293078,-2.02736,0.0734416,0.803359,290.984,-0.0312139,
2,1,0,1,1,68182.3,-0.0199515,-0.0203691,12.3001,35,-0.000217906,10,-0.000250543,-1.91009,0.114643,0.514642,245.367,-0.0203691,
2,1,0,1,1,68182.3,-0.0091534,-0.00955511,14.7509,35,2.64467e-05,10,-0.000140946,-1.83118,0.161296,0.365788,209.69,-0.009555107,
2,1,0,0,1,68182.3,-7.54729e-05,-0.000325324,16.4603,35,0.0002629,10,-5.35493e-06,-1.78356, , , ,-0.000325324,

File: 20221101_1-115_003_TrumpetPlot_ParaChange_from10_every3_13_CV_C01.mpt
EC-Lab ASCII FILE
Nb header lines : 94

Cyclic Voltammetry

Run on channel : 1 (SN 65296)
User :
CE vs. WE compliance from -10 V to 10 V
Electrode connection : standard
Potential control : Ewe
Ewe ctrl range : min = -1.00 V, max = 1.00 V
Safety Limits :
	Do not start on E overload
Acquisition started on : 11/08/2022 20:18:53.442
Loaded Setting File :  NONE
Saved on :
	File : 20221101_1-115_003_TrumpetPlot_ParaChange_from10_every3_13_CV_C01.mpr
	Directory : C:\Users\NakamuraT\Documents\EC-Lab\Data\Yatsuzuka\20221108_1-115_001_TrumpetPlot\
	Host : 192.109.209.100
Device : SP-50e (SN .003219)
Address : 192.109.209.128
EC-Lab for windows v11.43 (software)
Internet server v11.40 (firmware)
Command interpretor v11.40 (firmware)
Electrode material :
Initial state :
Electrolyte :
Comments :
Electrode surface area : 0.000 cm2
Characteristic mass : 0.001 g
Equivalent Weight : 0.000 g/eq.
Density : 0.000 g/cm3
Volume (V) : 0.001 cm3
Cycle Definition : Charge/Discharge alternance
Ei (V)              0.000
vs.                 Ref
dE/dt               800.000
dE/dt unit          mV/s
E1 (V)              0.300
vs.                 Ref
Step percent        50
N                   10
E range min (V)     -1.000
E range max (V)     1.000
I Range             100 mA
I Range min         Unset
I Range max         Unset
I Range init        Unset
Bandwidth           5
E2 (V)              -0.200
vs.                 Ref
nc cycles           0
Reverse Scan        1
Ef (V)              0.000
vs.                 Ref

Number of loops : 35
Loop 0 from point number 0 to 634
Loop 1 from point number 635 to 1269
Loop 2 from point number 1270 to 1904
Loop 3 from point number 1905 to 2539
Loop 4 from point number 2540 to 3174
Loop 5 from point number 3175 to 3809
Loop 6 from point number 3810 to 4444
Loop 7 from point number 4445 to 5079
Loop 8 from point number 5080 to 5714
Loop 9 from point number 5715 to 6349
Loop 10 from point number 6350 to 6984
Loop 11 from point number 6985 to 7619
Loop 12 from point number 7620 to 8254
Loop 13 from point number 8255 to 8889
Loop 14 from point number 8890 to 9524
Loop 15 from point number 9525 to 10159
Loop 16 from point number 10160 to 10794
Loop 17 from point number 10795 to 11429
Loop 18 from point number 11430 to 12064
Loop 19 from point number 12065 to 12699
Loop 20 from point number 12700 to 13334
Loop 21 from point number 13335 to 13969
Loop 22 from point number 13970 to 14604
Loop 23 from point number 14605 to 15239
Loop 24 from point number 15240 to 15874
Loop 25 from point number 15875 to 16509
Loop 26 from point number 16510 to 17144
Loop 27 from point number 17145 to 17779
Loop 28 from point number 17780 to 18414
Loop 29 from point number 18415 to 19049
Loop 30 from point number 19050 to 19684
Loop 31 from point number 19685 to 20319
Loop 32 from point number 20320 to 20954
Loop 33 from point number 20955 to 21589
Loop 34 from point number 21590 to 22224

mode	ox/red	error	control changes	counter inc.	time/s	control/V	Ewe/V	<I>/mA	cycle number	(Q-Qo)/C	I Range	P/W
2	1	0	0	0	1197.86	2.44065e-05	-0.000229887	28.723	1	0.0000000E+000	10	-6.60305e-06
2	1	0	1	0	1198.18	0.261866	0.261588	42.8247	1	0.0176402	10	0.0112024
2	0	0	1	0	1198.5	0.0813844	0.0811775	-64.822	1	0.0124801	10	-0.00526209
2	0	0	1	0	1198.83	-0.181015	-0.181301	-61.6523	1	-0.00718996	10	0.0111776
2	1	0	1	0	3168.03	0.033065	0.0327233	35.4353	2	0.00132917	10	0.00115956
2	1	0	1	0	3168.36	0.295467	0.295153	31.7482	2	0.0185522	10	0.00937057
2	0	0	1	0	3168.68	0.0477861	0.0475001	-69.1247	2	0.00963434	10	-0.00328343
2	0	0	1	1	3169	-0.190937	-0.191335	-42.4053	2	-0.00882692	10	0.00811363
2	1	0	1	0	5138.2	0.0666633	0.0662873	39.3652	3	0.00282487	10	0.00260941
2	0	0	1	0	5138.52	0.276582	0.276335	-1.53693	3	0.0185311	10	-0.000424708
2	0	0	1	0	5138.85	0.0141879	0.0138566	-64.6025	3	0.00693261	10	-0.000895168
2	0	0	1	1	5139.17	-0.157336	-0.157775	-3.5275	3	-0.00931103	10	0.00055655
2	1	0	1	0	7108.37	0.100262	0.0999319	46.6589	4	0.00466965	10	0.00466271
2	0	0	1	0	7108.69	0.242981	0.242691	-13.8289	4	0.0181838	10	-0.00335615
2	0	0	1	0	7109.02	-0.0194105	-0.0197647	-60.2727	4	0.00443691	10	0.00119127
2	1	0	1	1	7109.34	-0.123734	-0.124212	17.296	4	-0.00895932	10	-0.00214836
2	1	0	1	0	9078.54	0.133863	0.133478	53.7503	5	0.00669128	10	0.00717448
2	0	0	1	0	9078.87	0.20938	0.209085	-18.3013	5	0.0171107	10	-0.00382652
2	0	0	1	0	9079.19	-0.0530115	-0.0533531	-52.2191	5	0.00207349	10	0.00278605
2	1	0	1	1	9079.52	-0.0901362	-0.0905617	29.6919	5	-0.00777012	10	-0.00268895
2	1	0	1	0	11048.7	0.167464	0.167131	61.3283	6	0.00896005	10	0.0102499
2	0	0	1	0	11049	0.175782	0.175467	-21.8026	6	0.0163474	10	-0.00382563
2	0	0	1	0	11049.4	-0.0866126	-0.0869606	-49.8346	6	0.00028778	10	0.00433365
2	1	0	1	1	11049.7	-0.0565378	-0.0569436	36.3097	6	-0.00623896	10	-0.00206761
2	1	0	1	0	13018.9	0.201062	0.200712	63.4672	7	0.0110288	10	0.0127386
2	0	0	1	0	13019.2	0.142183	0.14188	-25.624	7	0.0148849	10	-0.00363554
2	0	0	1	0	13019.5	-0.120216	-0.120607	-49.267	7	-0.00145956	10	0.00594195
2	1	0	1	1	13019.9	-0.0229395	-0.023316	39.5546	7	-0.00451408	10	-0.000922256
2	1	0	1	0	14989.1	0.23466	0.23436	52.6786	8	0.0139733	10	0.0123457
2	0	0	1	0	14989.4	0.108585	0.108305	-39.2501	8	0.0134391	10	-0.00425097
2	0	0	1	0	14989.7	-0.15382	-0.154202	-52.6124	8	-0.00395887	10	0.00811294
2	1	0	1	0	16958.9	0.00586735	0.00550373	27.4846	9	0.000187561	10	0.000151268
2	1	0	1	0	16959.2	0.268259	0.267973	38.6788	9	0.0161126	10	0.0103649
2	0	0	1	0	16959.6	0.0749838	0.0747334	-53.8337	9	0.0116419	10	-0.00402318
2	0	0	1	0	16959.9	-0.187419	-0.187746	-56.4901	9	-0.00631593	10	0.0106058
2	1	0	1	0	18929.1	0.0394684	0.0390985	31.627	10	0.00135994	10	0.00123657
2	1	0	0	0	18929.4	0.299862	0.299498	33.7013	10	0.0166494	10	0.0100935
2	0	0	1	0	18929.7	0.0413828	0.0411313	-55.7672	10	0.00948061	10	-0.00229378
2	0	0	1	1	18930	-0.184533	-0.184945	-30.9751	10	-0.00719894	10	0.00572871
2	1	0	1	0	20899.3	0.0730667	0.0726731	36.0221	11	0.00271487	10	0.00261783
2	1	0	1	0	20899.6	0.27019	0.269925	1.12801	11	0.0167013	10	0.000304477
2	0	0	1	0	20899.9	0.00778448	0.00748139	-55.117	11	0.00699998	10	-0.000412351
2	0	0	1	1	20900.2	-0.150935	-0.15134	-4.92405	11	-0.00756892	10	0.000745206
2	1	0	1	0	22869.4	0.106665	0.106327	44.0726	12	0.00459952	10	0.00468611
2	0	0	1	0	22869.7	0.236586	0.236266	-11.8346	12	0.0169504	10	-0.00279612
2	0	0	1	0	22870.1	-0.0258138	-0.0262056	-54.6895	12	0.00457374	10	0.00143317
2	1	0	1	1	22870.4	-0.117334	-0.117805	12.4884	12	-0.0077795	10	-0.00147119
2	1	0	1	0	24839.6	0.140263	0.139885	49.0692	13	0.006324	10	0.00686403
2	0	0	1	0	24839.9	0.202988	0.202681	-16.3649	13	0.0159601	10	-0.00331685
2	0	0	1	0	24840.2	-0.0594121	-0.0597972	-49.5259	13	0.00252679	10	0.00296151
2	1	0	1	1	24840.6	-0.0837328	-0.0841526	22.4288	13	-0.00676407	10	-0.00188744
2	1	0	1	0	26809.8	0.173864	0.17351	56.4109	14	0.00857773	10	0.00978788
2	0	0	1	0	26810.1	0.169384	0.169075	-20.7321	14	0.0153428	10	-0.00350528
2	0	0	1	0	26810.4	-0.0930132	-0.0933782	-48.0633	14	0.000560387	10	0.00448806
2	1	0	1	1	26810.7	-0.0501345	-0.0505663	30.9824	14	-0.00562989	10	-0.00156667
2	1	0	1	0	28779.9	0.207465	0.20715	55.2019	15	0.0100658	10	0.0114351
2	0	0	1	0	28780.3	0.13578	0.135472	-23.7987	15	0.0137661	10	-0.00322407
2	0	0	1	0	28780.6	-0.126614	-0.126945	-46.427	15	-0.000991426	10	0.00589369
[...]
2	0	0	1	0	44541.6	-0.133015	-0.133384	-46.522	23	-0.00122886	10	0.00620529
2	1	0	1	1	44542	-0.0101328	-0.0105127	33.3645	23	-0.00387065	10	-0.00035075
2	1	0	1	0	46511.2	0.247467	0.247183	46.5807	24	0.0121118	10	0.011514
2	0	0	1	0	46511.5	0.0957893	0.0955375	-34.4298	24	0.0120568	10	-0.00328934
2	0	0	1	0	46511.8	-0.166616	-0.166945	-47.5289	24	-0.0030639	10	0.00793471
2	1	0	1	0	48481	0.0186602	0.0183516	22.129	25	0.000457815	10	0.000406102
2	1	0	1	0	48481.3	0.281065	0.280723	39.6246	25	0.0136847	10	0.0111235
2	0	0	1	0	48481.7	0.0621854	0.0618548	-42.048	25	0.0105024	10	-0.00260087
2	0	0	1	0	48482	-0.199647	-0.199998	-48.2556	25	-0.00481887	10	0.00965101
2	1	0	1	0	50451.2	0.0522613	0.0519092	28.234	26	0.00152449	10	0.0014656
2	1	0	1	0	50451.5	0.290981	0.290697	23.0509	26	0.0148289	10	0.00670081
2	0	0	1	0	50451.8	0.0285816	0.0282569	-46.9837	26	0.00852441	10	-0.00132761
2	0	0	1	1	50452.2	-0.171738	-0.172115	-19.868	26	-0.00598421	10	0.0034196
2	1	0	1	0	52421.4	0.0858624	0.085487	32.5952	27	0.00274583	10	0.00278646
2	1	0	1	0	52421.7	0.257383	0.257073	2.39622	27	0.0150843	10	0.000616004
2	0	0	1	0	52422	-0.0050195	-0.00537392	-47.895	27	0.00652731	10	0.000257384
2	0	0	1	1	52422.3	-0.138139	-0.138568	-3.94138	27	-0.00634452	10	0.000546151
2	1	0	1	0	54391.5	0.119461	0.119086	38.589	28	0.00434616	10	0.00459541
2	0	0	1	0	54391.8	0.223785	0.223473	-8.70897	28	0.0149411	10	-0.00194622
2	0	0	1	0	54392.2	-0.0386206	-0.0390206	-47.1194	28	0.00431555	10	0.00183863
2	1	0	1	1	54392.5	-0.104541	-0.105008	9.07494	28	-0.00632832	10	-0.000952938
2	1	0	1	0	56361.7	0.153064	0.152587	41.2134	29	0.00559307	10	0.00628865
2	0	0	1	0	56362	0.190186	0.189844	-12.7681	29	0.0139764	10	-0.00242394
2	0	0	1	0	56362.3	-0.0722189	-0.0726005	-44.2497	29	0.00268555	10	0.00321255
2	1	0	1	1	56362.7	-0.0709371	-0.0713758	15.8814	29	-0.00547226	10	-0.00113354
2	1	0	1	0	58331.9	0.186668	0.186272	47.1685	30	0.00760613	10	0.00878619
2	0	0	1	0	58332.2	0.156585	0.156265	-17.8033	30	0.0135365	10	-0.00278203
2	0	0	1	0	58332.5	-0.105817	-0.106231	-44.232	30	0.000810577	10	0.00469882
2	1	0	1	1	58332.8	-0.0373388	-0.0377884	24.0413	30	-0.00470576	10	-0.000908482
2	1	0	1	0	60302	0.220267	0.219919	47.3286	31	0.00932448	10	0.0104085
2	0	0	1	0	60302.4	0.122984	0.122677	-22.7956	31	0.012575	10	-0.00279648
2	0	0	1	0	60302.7	-0.139416	-0.139786	-44.1994	31	-0.000871344	10	0.00617845
2	1	0	1	1	60303	-0.00373494	-0.00417884	28.6225	31	-0.00355028	10	-0.000119609
2	1	0	1	0	62272.2	0.253868	0.253491	43.3959	32	0.0110609	10	0.0110005
2	0	0	1	0	62272.5	0.0893859	0.0890797	-31.1311	32	0.0112781	10	-0.00277315
2	0	0	1	0	62272.9	-0.173017	-0.173354	-44.891	32	-0.00269863	10	0.00778204
2	1	0	1	0	64242.1	0.0250636	0.0247459	21.5484	33	0.000582948	10	0.000533233
2	1	0	1	0	64242.4	0.287469	0.287115	37.2727	33	0.0131004	10	0.0107015
2	0	0	1	0	64242.7	0.0557876	0.0555273	-40.296	33	0.00978536	10	-0.00223753
2	0	0	1	1	64243	-0.198935	-0.199429	-43.6374	33	-0.00453511	10	0.00870259
2	1	0	1	0	66212.2	0.0586619	0.0583077	27.1476	34	0.00160275	10	0.00158292
2	1	0	1	0	66212.6	0.284581	0.284293	19.4443	34	0.0142382	10	0.00552788
2	0	0	1	0	66212.9	0.0221893	0.0218764	-44.5162	34	0.00816695	10	-0.000973854
2	0	0	1	1	66213.2	-0.165334	-0.165764	-17.1928	34	-0.00568699	10	0.00284995
2	1	0	1	0	68182.4	0.092263	0.0919088	33.4315	35	0.00300372	10	0.00307265
2	1	0	1	0	68182.7	0.25098	0.250646	0.239788	35	0.014867	10	6.01019e-05
2	0	0	1	0	68183.1	-0.0114118	-0.0117989	-47.1582	35	0.00604153	10	0.000556416
2	0	0	1	1	68183.4	-0.131736	-0.13217	-1.47824	35	-0.00631889	10	0.000195379
2	1	0	1	1	68183.5	2.44065e-05	-0.000382585	31.4898	35	-0.00346499	10	-1.20475e-05