Folder: Figs_alphaMnO2_OER_Tafel_sleope/Figure_codes/Fig_3-5/rawdata_trumpetplot_data/after 10th (part 179)

File: 20221101_1-115_003_TrumpetPlot_ParaChange_from10_every3_12_CV_C01_9.csv
mode,ox/red,error,control changes,counter inc.,time/s,control/V,Ewe/V,<I>/mA,cycle number,(Q-Qo)/C,I Range,P/W,log(|I|),Tafel slope mV/dec,alpha_eff,dI/d(E-IR),E-IR/V,
2,1,0,1,0,18927.7,2.44065e-05,-0.000229887,17.546,10,0.0000000E+000,10,-4.0336e-06,-1.75582, , , ,-0.000229887,
2,1,0,1,0,18927.7,0.0104008,0.010055,21.0497,10,0.000335358,10,0.000211654,-1.67675,0.198526,0.29719,242.769,0.010055,
2,1,0,1,0,18927.7,0.0212099,0.0208627,23.2534,10,0.000735348,10,0.000485127,-1.63351,0.308132,0.191476,173.3,0.0208627,
2,1,0,1,0,18927.7,0.0320052,0.0316279,24.9474,10,0.00116981,10,0.000789035,-1.60297,0.396065,0.148965,144.849,0.0316279,
2,1,0,1,0,18927.8,0.0428033,0.0424663,26.4377,10,0.00163256,10,0.00112271,-1.57778,0.458519,0.128675,132.683,0.04246632,
2,1,0,1,0,18927.8,0.0535986,0.0532305,27.8607,10,0.00212128,10,0.00148304,-1.55501,0.481306,0.122583,133.263,0.0532305,
2,1,0,1,0,18927.8,0.0644077,0.0640467,29.3293,10,0.00263604,10,0.00187844,-1.5327,0.480266,0.122849,140.603,0.0640467,
2,1,0,1,0,18927.8,0.075203,0.0748289,30.871,10,0.00317791,10,0.00231004,-1.51045,0.481188,0.122613,147.76,0.0748289,
2,1,0,1,0,18927.8,0.0860011,0.0856174,32.4701,10,0.00374809,10,0.00278001,-1.48852,0.489282,0.120585,152.913,0.0856174,
2,1,0,1,0,18927.9,0.0968075,0.0964453,34.1708,10,0.00434818,10,0.00329562,-1.46634,0.50765,0.116222,154.98,0.0964453,
2,1,0,1,0,18927.9,0.107606,0.107169,35.823,10,0.00497839,10,0.00383913,-1.44584,0.513638,0.114867,160.794,0.107169,
2,1,0,1,0,18927.9,0.118401,0.118033,37.6192,10,0.00563977,10,0.00444031,-1.42459,0.527706,0.111805,164.2,0.118033,
2,1,0,1,0,18927.9,0.129207,0.128841,39.4948,10,0.00633371,10,0.00508853,-1.40346,0.502442,0.117427,181.033,0.128841,
2,1,0,1,0,18927.9,0.140005,0.139619,41.5894,10,0.00706327,10,0.00580666,-1.38102,0.468639,0.125897,204.345,0.139619,
2,1,0,1,0,18927.9,0.150803,0.150445,43.8401,10,0.00783218,10,0.00659554,-1.35813,0.485746,0.121463,207.715,0.150445,
2,1,0,1,0,18928,0.161604,0.161246,46.0238,10,0.0086414,10,0.00742113,-1.33702,0.554696,0.106365,190.871,0.161246,
2,1,0,1,0,18928,0.172405,0.172075,47.91,10,0.0094876,10,0.00824409,-1.31957,0.722473,0.0816639,152.472,0.172075,
2,1,0,1,0,18928,0.183203,0.1829,49.1632,10,0.0103627,10,0.00899195,-1.30836,1.62079,0.036402,69.6803,0.1829,
2,1,0,1,0,18928,0.194001,0.193669,49.1946,10,0.0112503,10,0.00952745,-1.30808,-1.53738,-0.0383771,-73.4332,0.193669,
2,1,0,1,0,18928,0.204808,0.204508,47.4931,10,0.0121232,10,0.00971273,-1.32337,-0.455889,-0.129417,-239.027,0.204508,
2,1,0,1,0,18928.1,0.215603,0.215298,44.1203,10,0.0129497,10,0.00949901,-1.35536,-0.276677,-0.213245,-366.338,0.215298,
2,1,0,1,0,18928.1,0.226401,0.226067,39.8216,10,0.0137054,10,0.00900236,-1.39988,-0.225359,-0.261804,-406.759,0.226067,
2,1,0,1,0,18928.1,0.237207,0.23691,35.6122,10,0.0143832,10,0.00843688,-1.4484,-0.22656,-0.260416,-362.291,0.23691,
2,1,0,1,0,18928.1,0.248005,0.247717,32.0808,10,0.0149908,10,0.00794696,-1.49375,-0.254707,-0.231639,-290.437,0.2477165,
2,1,0,1,0,18928.1,0.258801,0.258467,29.3235,10,0.015542,10,0.00757916,-1.53278,-0.306629,-0.192415,-220.57,0.258467,
2,1,0,1,0,18928.1,0.26961,0.269305,27.2568,10,0.01605,10,0.00734041,-1.56452,-0.376291,-0.156794,-166.957,0.269305,
2,1,0,1,0,18928.2,0.280405,0.280099,25.6725,10,0.0165255,10,0.00719084,-1.59053,-0.466357,-0.126512,-126.878,0.280099,
2,1,0,1,0,18928.2,0.291203,0.290858,24.4497,10,0.016976,10,0.0071114,-1.61173,-0.556956,-0.105933,-101.179,0.290858,
2,1,0,0,0,18928.2,0.300012,0.299651,23.6265,10,0.0173292,10,0.00707971,-1.6266,0.00208437,28.3059,22569.7,0.299651,
2,1,0,1,0,18928.2,0.290843,0.290569,9.75295,10,0.0175674,10,0.0028339,-2.01086,0.0213213,2.76718,1044.02,0.290569,
2,1,0,1,0,18928.2,0.280047,0.279779,1.5698,10,0.0176613,10,0.000439197,-2.80416,0.0133619,4.41555,574.391,0.279779,
2,0,0,1,0,18928.2,0.269244,0.268983,-3.29121,10,0.017642,10,-0.00088528,-2.48264,-0.0179594,-3.28518,357.132,0.268983,
2,0,0,1,0,18928.3,0.258443,0.258159,-6.44784,10,0.0175522,10,-0.00166457,-2.19059,-0.0598166,-0.986349,241.91,0.258159,
2,0,0,1,0,18928.3,0.247645,0.247337,-8.66547,10,0.0174148,10,-0.00214329,-2.06221,-0.111692,-0.52824,177.202,0.247337,
2,0,0,1,0,18928.3,0.236849,0.23656,-10.336,10,0.017243,10,-0.00244508,-1.98565,-0.174112,-0.338862,136.079,0.23656,
2,0,0,1,0,18928.3,0.22604,0.225766,-11.6722,10,0.0170444,10,-0.00263519,-1.93285,-0.243443,-0.242357,110.001,0.225766,
2,0,0,1,0,18928.3,0.215245,0.214973,-12.7678,10,0.0168242,10,-0.00274473,-1.89388,-0.300334,-0.196448,97.75,0.214973,
2,0,0,1,0,18928.4,0.204447,0.204093,-13.7642,10,0.0165852,10,-0.00280918,-1.86125,-0.362703,-0.162668,87.2003,0.204093,
2,0,0,1,0,18928.4,0.19364,0.193317,-14.6864,10,0.0163293,10,-0.00283912,-1.83308,-0.400911,-0.147165,84.2246,0.193317,
2,0,0,1,0,18928.4,0.182842,0.182524,-15.5691,10,0.016057,10,-0.00284172,-1.80774,-0.413039,-0.142844,86.8288,0.182524,
2,0,0,1,0,18928.4,0.172047,0.171733,-16.5218,10,0.0157682,10,-0.00283735,-1.78194,-0.397972,-0.148252,95.7229,0.171733,
2,0,0,1,0,18928.4,0.161241,0.160947,-17.6473,10,0.0154609,10,-0.00284027,-1.75332,-0.352594,-0.167331,115.395,0.160947,
2,0,0,1,0,18928.4,0.150443,0.150119,-19.0722,10,0.0151309,10,-0.0028631,-1.7196,-0.284189,-0.207608,154.92,0.1501188,
2,0,0,1,0,18928.5,0.139645,0.139296,-21.063,10,0.0147704,10,-0.00293399,-1.67648,-0.22377,-0.263663,217.507,0.139296,
2,0,0,1,0,18928.5,0.128849,0.128526,-23.8492,10,0.0143672,10,-0.00306523,-1.62253,-0.183812,-0.320981,299.586,0.128526,
2,0,0,1,0,18928.5,0.118043,0.11774,-27.5037,10,0.0139057,10,-0.0032383,-1.56061,-0.175299,-0.336568,361.007,0.11774,
2,0,0,1,0,18928.5,0.107245,0.106991,-31.5148,10,0.0133745,10,-0.0033718,-1.50149,-0.193114,-0.305519,375.106,0.106991,
2,0,0,1,0,18928.5,0.0964468,0.0962215,-35.3912,10,0.0127716,10,-0.0034054,-1.4511,-0.235166,-0.250887,345.894,0.0962215,
2,0,0,1,0,18928.6,0.0856404,0.0853905,-38.9164,10,0.0121017,10,-0.00332309,-1.40987,-0.300338,-0.196445,297.601,0.0853905,
2,0,0,1,0,18928.6,0.0748451,0.0746019,-41.7517,10,0.0113744,10,-0.00311476,-1.37933,-0.407233,-0.14488,235.723,0.0746019,
2,0,0,1,0,18928.6,0.0640471,0.0637943,-43.8993,10,0.0106019,10,-0.00280052,-1.35754,-0.63901,-0.0923303,157.899,0.0637943,
2,0,0,1,0,18928.6,0.0532407,0.0529368,-45.1597,10,0.00979884,10,-0.00239061,-1.34525,-1.36243,-0.0433048,76.2016,0.0529368,
2,0,0,1,0,18928.6,0.0424426,0.0421323,-45.6327,10,0.00898067,10,-0.00192261,-1.34072,-6.00834,-0.00981969,17.4707,0.0421323,
2,0,0,1,0,18928.6,0.0316473,0.0313395,-45.6024,10,0.00815887,10,-0.00142915,-1.34101,5.92991,0.00994957,-17.703,0.03133947,
2,0,0,1,0,18928.7,0.0208437,0.0205138,-45.315,10,0.0073404,10,-0.000929582,-1.34376,2.65844,0.0221935,-39.2215,0.0205138,
2,0,0,1,0,18928.7,0.0100429,0.00970082,-44.8297,10,0.00652906,10,-0.000434885,-1.34843,1.87364,0.0314895,-55.0441,0.00970082,
2,0,0,1,0,18928.7,-0.000755207,-0.00112381,-44.1745,10,0.00572799,10,4.96437e-05,-1.35483,1.41917,0.0415737,-71.5746,-0.00112381,
2,0,0,1,0,18928.7,-0.0115505,-0.0118827,-43.1736,10,0.00494152,10,0.000513019,-1.36478,0.924894,0.0637911,-107.4,-0.0118827,
2,0,0,1,0,18928.7,-0.0223597,-0.0227254,-41.8725,10,0.0041759,10,0.000951568,-1.37807,0.729717,0.0808533,-132.016,-0.0227254,
2,0,0,1,0,18928.8,-0.033155,-0.0335224,-40.3933,10,0.00343565,10,0.00135408,-1.39369,0.711747,0.0828946,-130.739,-0.0335224,
2,0,0,1,0,18928.8,-0.043953,-0.0443269,-39.0232,10,0.00272124,10,0.00172978,-1.40868,0.789311,0.0747487,-113.971,-0.0443269,
2,0,0,1,0,18928.8,-0.0547594,-0.0551367,-37.9759,10,0.00202881,10,0.00209387,-1.42049,1.06291,0.0555078,-82.3399,-0.0551367,
2,0,0,1,0,18928.8,-0.0655575,-0.0659422,-37.2737,10,0.00135209,10,0.00245791,-1.4286,1.84376,0.0319998,-46.6057,-0.06594225,
2,0,0,1,0,18928.8,-0.0763528,-0.0767149,-36.9357,10,0.000684607,10,0.00283352,-1.43255,5.03609,0.0117154,-16.9066,-0.0767149,
2,0,0,1,0,18928.8,-0.0871592,-0.0874844,-36.9166,10,2.03675e-05,10,0.00322963,-1.43278,-10.676,-0.0055264,7.96567,-0.0874844,
2,0,0,1,0,18928.9,-0.0979573,-0.0982953,-37.1511,10,-0.000645785,10,0.00365178,-1.43003,-4.32563,-0.0136396,19.7344,-0.0982953,
2,0,0,1,1,18928.9,-0.0955546,-0.0960366,-27.9931,10,-0.00101655,10,0.00268836,-1.55295,-0.0379101,-1.55631,1715.72,-0.0960366,
2,0,0,1,1,18928.9,-0.0847538,-0.085177,-14.0083,10,-0.00138376,10,0.00119318,-1.85362,-0.030406,-1.94041,1047.17,-0.085177,
2,0,0,1,1,18928.9,-0.0739557,-0.0743757,-4.42187,10,-0.00154445,10,0.000328879,-2.35439,-0.0103928,-5.67702,765.12,-0.0743757,
2,1,0,1,1,18928.9,-0.0631604,-0.0636348,2.76254,10,-0.00155588,10,-0.000175793,-2.55869,0.00671304,8.78887,584.983,-0.0636348,
2,1,0,1,1,18928.9,-0.0523512,-0.0528006,8.35937,10,-0.00145321,10,-0.00044138,-2.07783,0.0401595,1.46914,461.352,-0.0528006,
2,1,0,1,1,18929,-0.0415559,-0.0420248,12.796,10,-0.00126083,10,-0.000537751,-1.89292,0.0795059,0.742083,365.814,-0.0420248,
2,1,0,1,1,18929,-0.0307579,-0.0312001,16.2998,10,-0.000997244,10,-0.000508557,-1.78782,0.130756,0.451221,285.243,-0.0312001,
2,1,0,1,1,18929,-0.0199515,-0.0203702,19.0504,10,-0.000677764,10,-0.00038806,-1.7201,0.194532,0.303292,224.559,-0.0203702,
2,1,0,1,1,18929,-0.0091534,-0.00952542,21.1817,10,-0.000314699,10,-0.000201764,-1.67404,0.279152,0.211355,174.253,-0.00952542,
2,1,0,0,1,18929,-7.54729e-05,-0.000439847,22.558,10,1.64216e-05,10,-9.92207e-06,-1.6467, , , ,-0.000439847,

File: 20221101_1-115_003_TrumpetPlot_ParaChange_from10_every3_12_CV_C01_10.csv
mode,ox/red,error,control changes,counter inc.,time/s,control/V,Ewe/V,<I>/mA,cycle number,(Q-Qo)/C,I Range,P/W,log(|I|),Tafel slope mV/dec,alpha_eff,dI/d(E-IR),E-IR/V,
2,1,0,1,0,20897.8,2.44065e-05,-0.000325324,17.0366,11,0.0000000E+000,10,-5.5424e-06,-1.76862, , , ,-0.000325324,
2,1,0,1,0,20897.8,0.0104008,0.0100295,20.447,11,0.000325843,10,0.000205074,-1.68937,0.198574,0.297118,235.887,0.0100295,
2,1,0,1,0,20897.9,0.0212099,0.0208637,22.5935,11,0.000714447,10,0.000471384,-1.64602,0.30645,0.192527,169.364,0.0208637,
2,1,0,1,0,20897.9,0.0320052,0.0316491,24.2573,11,0.0011368,10,0.000767721,-1.61516,0.393511,0.149932,141.803,0.0316491,
2,1,0,1,0,20897.9,0.0428033,0.0424928,25.7255,11,0.00158696,10,0.00109315,-1.58964,0.457011,0.1291,129.522,0.0424928,
2,1,0,1,0,20897.9,0.0535986,0.0533005,27.1099,11,0.00206253,10,0.00144497,-1.56687,0.48059,0.122766,129.855,0.0533005,
2,1,0,1,0,20897.9,0.0644077,0.064035,28.5424,11,0.00256343,10,0.00182771,-1.54451,0.485801,0.121449,135.232,0.064035,
2,1,0,1,0,20898,0.075203,0.0748193,30.0327,11,0.00309057,10,0.00224703,-1.52241,0.487227,0.121093,141.907,0.0748193,
2,1,0,1,0,20898,0.0860011,0.0855867,31.587,11,0.00364509,10,0.00270343,-1.50049,0.49251,0.119794,147.683,0.0855867,
2,1,0,1,0,20898,0.0968075,0.0964484,33.218,11,0.00422843,10,0.00320383,-1.47863,0.505714,0.116667,151.199,0.0964484,
2,1,0,1,0,20898,0.107606,0.107183,34.8042,11,0.00484098,10,0.00373042,-1.45837,0.514174,0.114747,156.052,0.107183,
2,1,0,1,0,20898,0.118401,0.118012,36.5478,11,0.00548334,10,0.00431307,-1.43714,0.526744,0.112009,159.793,0.118012,
2,1,0,1,0,20898,0.129207,0.128819,38.3499,11,0.00615738,10,0.00494022,-1.41624,0.505082,0.116813,174.912,0.128819,
2,1,0,1,0,20898.1,0.140005,0.139678,40.3546,11,0.00686572,10,0.00563665,-1.39411,0.479867,0.122951,193.7,0.139678,
2,1,0,1,0,20898.1,0.150803,0.15045,42.5072,11,0.00761166,10,0.00639519,-1.37154,0.497662,0.118554,196.602,0.15045,
2,1,0,1,0,20898.1,0.161604,0.161234,44.587,11,0.00839588,10,0.00718894,-1.35079,0.567809,0.103908,180.626,0.161234,
2,1,0,1,0,20898.1,0.172405,0.172067,46.3811,11,0.00921524,10,0.00798066,-1.33366,0.731468,0.0806597,145.762,0.172067,
2,1,0,1,0,20898.1,0.183203,0.182885,47.5965,11,0.0100623,10,0.00870471,-1.32242,1.55501,0.037942,70.3046,0.182885,
2,1,0,1,0,20898.1,0.194001,0.19366,47.7071,11,0.010922,10,0.00923897,-1.32142,-1.86745,-0.0315939,-58.6345,0.19366,
2,1,0,1,0,20898.2,0.204808,0.204504,46.2468,11,0.0117701,10,0.00945764,-1.33492,-0.5033,-0.117226,-210.841,0.204504,
2,1,0,1,0,20898.2,0.215603,0.215291,43.1964,11,0.012577,10,0.0092998,-1.36455,-0.294382,-0.20042,-337.01,0.215291,
2,1,0,1,0,20898.2,0.226401,0.226121,39.173,11,0.0133186,10,0.00885786,-1.40701,-0.230731,-0.255709,-390.695,0.226121,
2,1,0,1,0,20898.2,0.237207,0.236847,35.1028,11,0.0139862,10,0.00831401,-1.45466,-0.228388,-0.258333,-354.23,0.236847,
2,1,0,1,0,20898.2,0.248005,0.247713,31.622,11,0.0145853,10,0.0078332,-1.50001,-0.254232,-0.232072,-286.835,0.2477133,
2,1,0,1,0,20898.3,0.258801,0.258512,28.8597,11,0.0151283,10,0.00746059,-1.53971,-0.295804,-0.199456,-225.07,0.2585125,
2,1,0,1,0,20898.3,0.26961,0.269268,26.7615,11,0.0156277,10,0.00720602,-1.57249,-0.36156,-0.163182,-170.607,0.269268,
2,1,0,1,0,20898.3,0.280405,0.280089,25.1436,11,0.016094,10,0.00704244,-1.59957,-0.443586,-0.133007,-130.592,0.280089,
2,1,0,1,0,20898.3,0.291203,0.290853,23.8912,11,0.0165346,10,0.00694881,-1.62176,-0.534726,-0.110337,-102.953,0.290853,
2,1,0,0,0,20898.3,0.300012,0.299746,23.0522,11,0.0168794,10,0.00690981,-1.63729,0.00183161,32.2122,25126.3,0.299746,
2,1,0,1,0,20898.3,0.290842,0.290567,9.73129,11,0.0171135,10,0.0028276,-2.01183,0.0223529,2.63948,995.836,0.290567,
2,1,0,1,0,20898.4,0.280047,0.279709,1.77672,11,0.0172097,10,0.000496965,-2.75038,0.0110946,5.31791,558.036,0.279709,
2,0,0,1,0,20898.4,0.269244,0.26895,-3.02631,11,0.0171947,10,-0.000813925,-2.51909,-0.016026,-3.68151,356.88,0.26895,
2,0,0,1,0,20898.4,0.258443,0.258123,-6.17806,11,0.0171098,10,-0.0015947,-2.20915,-0.0566109,-1.0422,244.717,0.258123,
2,0,0,1,0,20898.4,0.247645,0.247318,-8.40844,11,0.0169771,10,-0.00207956,-2.07528,-0.108153,-0.545524,177.472,0.247318,
2,0,0,1,0,20898.4,0.236849,0.236524,-10.0784,11,0.0168098,10,-0.00238379,-1.99661,-0.169263,-0.34857,136.575,0.236524,
2,0,0,1,0,20898.4,0.22604,0.225764,-11.4086,11,0.0166158,10,-0.00257564,-1.94277,-0.23633,-0.249651,110.871,0.225764,
2,0,0,1,0,20898.5,0.215245,0.214984,-12.5086,11,0.0164001,10,-0.00268914,-1.90279,-0.30465,-0.193665,94.4317,0.214984,
2,0,0,1,0,20898.5,0.204447,0.204116,-13.4892,11,0.016166,10,-0.00275337,-1.87001,-0.362093,-0.162942,85.6027,0.204116,
2,0,0,1,0,20898.5,0.19364,0.193278,-14.3845,11,0.0159152,10,-0.00278022,-1.8421,-0.410908,-0.143584,80.4355,0.1932784,
2,0,0,1,0,20898.5,0.182842,0.182526,-15.2342,11,0.0156488,10,-0.00278063,-1.81718,-0.424868,-0.138867,82.5539,0.182526,
2,0,0,1,0,20898.5,0.172047,0.171707,-16.1551,11,0.0153663,10,-0.00277394,-1.79169,-0.408187,-0.144541,91.1627,0.171707,
2,0,0,1,0,20898.6,0.161241,0.160885,-17.2118,11,0.0150663,10,-0.00276912,-1.76417,-0.360651,-0.163593,110.037,0.1608851,
2,0,0,1,0,20898.6,0.150443,0.150148,-18.5635,11,0.0147448,10,-0.00278729,-1.73134,-0.292576,-0.201657,146.456,0.150148,
2,0,0,1,0,20898.6,0.139645,0.139348,-20.4399,11,0.0143944,10,-0.00284827,-1.68952,-0.228514,-0.25819,206.706,0.139348,
2,0,0,1,0,20898.6,0.128849,0.128568,-23.0676,11,0.0140036,10,-0.00296576,-1.637,-0.187476,-0.314707,284.36,0.128568,
2,0,0,1,0,20898.6,0.118043,0.117741,-26.5461,11,0.0135576,10,-0.00312557,-1.576,-0.178026,-0.331412,343.334,0.117741,
2,0,0,1,0,20898.6,0.107245,0.106945,-30.3824,11,0.013045,10,-0.00324926,-1.51738,-0.195487,-0.30181,357.433,0.106945,
2,0,0,1,0,20898.7,0.0964468,0.0962236,-34.0868,11,0.0124639,10,-0.00327995,-1.46741,-0.236971,-0.248976,330.939,0.09622363,
2,0,0,1,0,20898.7,0.0856404,0.0853534,-37.4872,11,0.0118186,10,-0.00319966,-1.42612,-0.301721,-0.195545,285.313,0.0853534,
2,0,0,1,0,20898.7,0.0748451,0.0746125,-40.2356,11,0.011118,10,-0.00300208,-1.39539,-0.410096,-0.143869,225.443,0.0746125,
2,0,0,1,0,20898.7,0.0640471,0.063754,-42.3312,11,0.0103737,10,-0.00269879,-1.37334,-0.613231,-0.0962118,158.587,0.063754,
2,0,0,1,0,20898.7,0.0532407,0.0529378,-43.5996,11,0.00959903,10,-0.00230807,-1.36052,-1.23974,-0.0475906,80.8288,0.0529378,
2,0,0,1,0,20898.8,0.0424426,0.0421397,-44.1253,11,0.00880852,10,-0.00185943,-1.35531,-4.01761,-0.0146854,25.265,0.0421397,
2,0,0,1,0,20898.8,0.0316473,0.0312843,-44.1809,11,0.00801309,10,-0.00138217,-1.35477,9.41567,0.00626615,-10.8009,0.0312843,
2,0,0,1,0,20898.8,0.0208437,0.0205106,-43.9485,11,0.00721963,10,-0.00090141,-1.35706,3.12631,0.0188721,-32.3586,0.0205106,
2,0,0,1,0,20898.8,0.0100429,0.00969446,-43.5345,11,0.00643204,10,-0.000422044,-1.36117,2.09217,0.0282004,-47.8851,0.00969446,
2,0,0,1,0,20898.8,-0.000755208,-0.00114502,-42.9619,11,0.00565349,10,4.91922e-05,-1.36692,1.51162,0.039031,-65.3487,-0.00114502,
2,0,0,1,0,20898.8,-0.0115505,-0.0119347,-42.0462,11,0.00488816,10,0.000501806,-1.37627,0.972961,0.0606396,-99.4163,-0.0119347,
2,0,0,1,0,20898.9,-0.0223597,-0.0227031,-40.8374,11,0.00414196,10,0.000927135,-1.38894,0.760656,0.0775646,-123.535,-0.0227031,
2,0,0,1,0,20898.9,-0.033155,-0.0335383,-39.4521,11,0.00341939,10,0.00132316,-1.40393,0.727713,0.0810759,-124.863,-0.03353833,
2,0,0,1,0,20898.9,-0.043953,-0.0443407,-38.1499,11,0.00272137,10,0.00169159,-1.41851,0.789093,0.0747694,-111.398,-0.0443407,
2,0,0,1,0,20898.9,-0.0547594,-0.05516,-37.1138,11,0.00204466,10,0.0020472,-1.43046,1.04576,0.0564185,-81.7729,-0.05516,
2,0,0,1,0,20898.9,-0.0655575,-0.0659751,-36.4006,11,0.0013836,10,0.00240153,-1.43889,1.79958,0.0327854,-46.6268,-0.0659751,
2,0,0,1,0,20899,-0.0763528,-0.0767149,-36.042,11,0.000732043,10,0.00276496,-1.44319,4.35315,0.0135534,-19.0839,-0.0767149,
2,0,0,1,0,20899,-0.0871592,-0.0875237,-35.9863,11,8.42521e-05,10,0.00314965,-1.44386,-13.4789,-0.00437722,6.15094,-0.0875237,
2,0,0,1,0,20899,-0.0979573,-0.0983154,-36.1726,11,-0.000564827,10,0.00355633,-1.44162,-4.83429,-0.0122045,17.2013,-0.0983154,
2,0,0,1,1,20899,-0.0955546,-0.0960186,-27.3412,11,-0.000926081,10,0.00262526,-1.56318,-0.0380125,-1.55212,1673.69,-0.0960186,
2,0,0,1,1,20899,-0.0847538,-0.0851865,-13.9908,11,-0.00128755,10,0.00119182,-1.85416,-0.0318131,-1.85458,1000.07,-0.0851865,
2,0,0,1,1,20899,-0.0739557,-0.0743226,-4.79016,11,-0.00145148,10,0.000356018,-2.31965,-0.0125762,-4.6914,737.519,-0.0743226,
2,1,0,1,1,20899.1,-0.0631604,-0.063621,2.15272,11,-0.00147185,10,-0.000136958,-2.66701,0.0116509,5.064,565.036,-0.063621,
2,1,0,1,1,20899.1,-0.0523512,-0.0528335,7.58903,11,-0.00138178,10,-0.000400955,-2.11981,0.0373033,1.58163,448.162,-0.05283349,
2,1,0,1,1,20899.1,-0.0415559,-0.0420216,11.9392,11,-0.00120429,10,-0.000501706,-1.92302,0.0752295,0.784266,359.901,-0.0420216,
2,1,0,1,1,20899.1,-0.0307579,-0.0311598,15.4012,11,-0.000956789,10,-0.000479898,-1.81245,0.123683,0.477025,284.568,-0.0311598,
2,1,0,1,1,20899.1,-0.0199515,-0.0203522,18.1364,11,-0.000653732,10,-0.000369115,-1.74145,0.184478,0.319821,225.324,-0.02035217,
2,1,0,1,1,20899.1,-0.0091534,-0.00955086,20.2866,11,-0.00030691,10,-0.000193755,-1.69279,0.263165,0.224194,177.025,-0.00955086,
2,1,0,0,1,20899.2,-7.54729e-05,-0.000401673,21.6802,11,1.0951e-05,10,-8.70837e-06,-1.66394, , , ,-0.000401673,