Folder: Figs_alphaMnO2_OER_Tafel_sleope/Figure_codes/Fig_3-5/rawdata_trumpetplot_data/after 10th (part 172)

File: 20221101_1-115_003_TrumpetPlot_ParaChange_from10_every3_11_CV_C01_31.csv
mode,ox/red,error,control changes,counter inc.,time/s,control/V,Ewe/V,<I>/mA,cycle number,(Q-Qo)/C,I Range,P/W,log(|I|),Tafel slope mV/dec,alpha_eff,dI/d(E-IR),E-IR/V,
2,1,0,1,0,62268.6,2.44065e-05,-0.000344411,8.97551,32,0.0000000E+000,10,-3.09126e-06,-2.04694, , , ,-0.000344411,
2,1,0,1,0,62268.6,0.0101427,0.00979095,11.8122,32,0.000267608,10,0.000115652,-1.92767,0.140097,0.421135,193.438,0.00979095,
2,1,0,1,0,62268.6,0.0205441,0.020149,13.5151,32,0.000598138,10,0.000272315,-1.86918,0.220584,0.267472,140.763,0.020149,
2,1,0,1,0,62268.6,0.0309482,0.0306089,14.819,32,0.000967119,10,0.000453593,-1.82918,0.301582,0.195635,112.964,0.0306089,
2,1,0,1,0,62268.7,0.0413439,0.0409733,15.9041,32,0.00136687,10,0.000651642,-1.79849,0.37753,0.156279,96.9655,0.0409733,
2,1,0,1,0,62268.7,0.0517425,0.0514172,16.8832,32,0.0017934,10,0.000868084,-1.77255,0.416889,0.141525,93.2479,0.0514172,
2,1,0,1,0,62268.7,0.0621438,0.0618081,17.8282,32,0.00224472,10,0.00110193,-1.74889,0.460047,0.128248,89.1356,0.0618081,
2,1,0,1,0,62268.7,0.0725479,0.0721969,18.7415,32,0.00272012,10,0.00135308,-1.7272,0.484354,0.121812,89.1041,0.0721969,
2,1,0,1,0,62268.8,0.0829437,0.0825762,19.6673,32,0.00321963,10,0.00162405,-1.70626,0.498327,0.118396,90.9233,0.0825762,
2,1,0,1,0,62268.8,0.0933422,0.0929544,20.6229,32,0.00374353,10,0.00191699,-1.68565,0.513618,0.114871,92.422,0.0929544,
2,1,0,1,0,62268.8,0.103749,0.103392,21.564,32,0.00429208,10,0.00222955,-1.66627,0.550814,0.107114,90.1449,0.103392,
2,1,0,1,0,62268.8,0.114148,0.11373,22.505,32,0.00486489,10,0.00255949,-1.64772,0.526272,0.112109,98.4922,0.11373,
2,1,0,1,0,62268.9,0.124543,0.124149,23.563,32,0.00546381,10,0.00292534,-1.62777,0.521514,0.113132,104.014,0.124149,
2,1,0,1,0,62268.9,0.134942,0.134556,24.7028,32,0.00609117,10,0.00332391,-1.60725,0.502586,0.117393,113.2,0.134556,
2,1,0,1,0,62268.9,0.145349,0.144971,25.9107,32,0.00674911,10,0.00375628,-1.58652,0.522112,0.113003,114.2,0.144971,
2,1,0,1,0,62269,0.155747,0.155372,27.0395,32,0.00743762,10,0.00420118,-1.568,0.592761,0.0995341,104.983,0.155372,
2,1,0,1,0,62269,0.166143,0.165759,28.005,32,0.00815385,10,0.00464208,-1.55276,0.817185,0.0721991,78.8505,0.165759,
2,1,0,1,0,62269,0.176542,0.176164,28.5988,32,0.00889091,10,0.00503809,-1.54365,2.1304,0.0276943,30.8843,0.176164,
2,1,0,1,0,62269,0.186949,0.186567,28.5949,32,0.00963593,10,0.00533487,-1.54371,-1.95771,-0.0301372,-33.5939,0.186567,
2,1,0,1,0,62269.1,0.197347,0.196986,27.897,32,0.0103718,10,0.0054953,-1.55444,-0.662162,-0.089102,-96.8809,0.196986,
2,1,0,1,0,62269.1,0.207743,0.207372,26.5765,32,0.0110809,10,0.00551122,-1.5755,-0.404242,-0.145952,-151.209,0.207372,
2,1,0,1,0,62269.1,0.218141,0.217816,24.854,32,0.01175,10,0.00541361,-1.6046,-0.330497,-0.178519,-173.211,0.217816,
2,1,0,1,0,62269.1,0.228548,0.228182,23.0625,32,0.0123726,10,0.00526244,-1.63709,-0.313089,-0.188445,-169.548,0.228182,
2,1,0,1,0,62269.2,0.238947,0.238617,21.3837,32,0.0129497,10,0.00510252,-1.66992,-0.323244,-0.182524,-152.285,0.238617,
2,1,0,1,0,62269.2,0.249343,0.248987,19.9215,32,0.013486,10,0.00496019,-1.70068,-0.355648,-0.165894,-129.106,0.248987,
2,1,0,1,0,62269.2,0.259741,0.259369,18.7099,32,0.0139877,10,0.00485278,-1.72793,-0.403958,-0.146055,-106.71,0.259369,
2,1,0,1,0,62269.2,0.270148,0.26983,17.7153,32,0.0144607,10,0.00478012,-1.75165,-0.466169,-0.126564,-87.5059,0.2698302,
2,1,0,1,0,62269.3,0.280547,0.280206,16.8715,32,0.01491,10,0.0047275,-1.77285,-0.526534,-0.112054,-73.84,0.280206,
2,1,0,1,0,62269.3,0.290942,0.290625,16.177,32,0.0153393,10,0.00470144,-1.7911,-0.612026,-0.0964011,-60.8775,0.290625,
2,1,0,0,0,62269.3,0.300012,0.299632,15.6456,32,0.0157004,10,0.00468791,-1.80561,0.00208702,28.27,15737.5,0.299632,
2,1,0,1,0,62269.3,0.290704,0.290378,7.47172,32,0.0159529,10,0.00216962,-2.12658,0.029299,2.01372,587.139,0.290378,
2,1,0,1,0,62269.4,0.280305,0.28003,2.70639,32,0.0160798,10,0.000757871,-2.56761,0.0165286,3.56956,363.084,0.28003,
2,0,0,1,0,62269.4,0.269909,0.269532,-0.422746,32,0.0161067,10,-0.000113944,-3.37392,-0.0146433,-4.02916,249.623,0.2695322,
2,0,0,1,0,62269.4,0.2595,0.259139,-2.62373,32,0.0160655,10,-0.000679912,-2.58108,-0.0321819,-1.83333,182.997,0.259139,
2,0,0,1,0,62269.4,0.249104,0.248712,-4.27145,32,0.0159748,10,-0.00106236,-2.36943,-0.0700152,-0.842674,139.368,0.2487122,
2,0,0,1,0,62269.5,0.238705,0.238359,-5.55443,32,0.0158463,10,-0.00132395,-2.25536,-0.115178,-0.512252,110.557,0.238359,
2,0,0,1,0,62269.5,0.22831,0.227948,-6.58498,32,0.015688,10,-0.00150103,-2.18145,-0.169254,-0.348589,89.4314,0.227948,
2,0,0,1,0,62269.5,0.2179,0.217563,-7.44888,32,0.0155051,10,-0.0016206,-2.12791,-0.223134,-0.264415,76.8033,0.217563,
2,0,0,1,0,62269.5,0.207504,0.207174,-8.19276,32,0.0153015,10,-0.00169733,-2.08657,-0.28176,-0.209398,66.924,0.207174,
2,0,0,1,0,62269.6,0.197106,0.196742,-8.85646,32,0.0150796,10,-0.00174243,-2.05274,-0.335674,-0.175766,60.7733,0.196742,
2,0,0,1,0,62269.6,0.18671,0.186376,-9.46648,32,0.0148412,10,-0.00176433,-2.02381,-0.377678,-0.156218,57.7328,0.1863762,
2,0,0,1,0,62269.6,0.1763,0.175942,-10.0666,32,0.0145872,10,-0.00177114,-1.99712,-0.398116,-0.148198,58.1961,0.1759418,
2,0,0,1,0,62269.6,0.165905,0.165538,-10.6713,32,0.0143177,10,-0.0017665,-1.97178,-0.41168,-0.143315,59.6586,0.165538,
2,0,0,1,0,62269.7,0.155506,0.15512,-11.3395,32,0.0140318,10,-0.00175898,-1.94541,-0.372352,-0.158452,70.1906,0.15512,
2,0,0,1,0,62269.7,0.145105,0.144746,-12.1724,32,0.0137264,10,-0.00176191,-1.91462,-0.294392,-0.200413,95.3657,0.144746,
2,0,0,1,0,62269.7,0.134701,0.134318,-13.3362,32,0.0133955,10,-0.00179129,-1.87497,-0.229333,-0.257268,133.975,0.134318,
2,0,0,1,0,62269.8,0.124305,0.123949,-14.9899,32,0.0130283,10,-0.00185798,-1.8242,-0.189795,-0.310862,182.051,0.123949,
2,0,0,1,0,62269.8,0.113906,0.113543,-17.0518,32,0.0126121,10,-0.00193611,-1.76823,-0.187202,-0.315168,209.872,0.113543,
2,0,0,1,0,62269.8,0.103505,0.103192,-19.2621,32,0.0121397,10,-0.00198769,-1.7153,-0.215849,-0.273339,205.063,0.103192,
2,0,0,1,0,62269.8,0.0931008,0.0927837,-21.3404,32,0.0116117,10,-0.00198004,-1.6708,-0.258177,-0.228525,190.097,0.0927837,
2,0,0,1,0,62269.9,0.0827051,0.0823567,-23.1613,32,0.0110324,10,-0.00190749,-1.63524,-0.339375,-0.173849,157.003,0.0823567,
2,0,0,1,0,62269.9,0.0723065,0.0720135,-24.5885,32,0.0104106,10,-0.0017707,-1.60927,-0.47512,-0.124179,119.082,0.0720135,
2,0,0,1,0,62269.9,0.0618997,0.0615589,-25.6386,32,0.00975673,10,-0.00157829,-1.59111,-0.748347,-0.0788405,78.7906,0.0615589,
2,0,0,1,0,62269.9,0.0515011,0.0510991,-26.2706,32,0.00908124,10,-0.0013424,-1.58053,-1.31487,-0.0448713,45.966,0.0510991,
2,0,0,1,0,62270,0.0411053,0.0407559,-26.6026,32,0.00839331,10,-0.00108421,-1.57508,-2.76559,-0.0213336,22.1521,0.0407559,
2,0,0,1,0,62270,0.0307068,0.0303512,-26.7459,32,0.00769929,10,-0.000811771,-1.57274,-10.7215,-0.00550298,5.74226,0.0303512,
2,0,0,1,0,62270,0.0202999,0.0199528,-26.7329,32,0.00700388,10,-0.000533398,-1.57295,7.16697,0.00823221,-8.58439,0.0199528,
2,0,0,1,0,62270,0.00990136,0.00954918,-26.5731,32,0.00631064,10,-0.000253751,-1.57556,2.78981,0.0211484,-21.9299,0.009549181,
2,0,0,1,0,62270.1,-0.000494411,-0.000879916,-26.301,32,0.00562306,10,2.31427e-05,-1.58003,1.7444,0.0338225,-34.6794,-0.000879916,
2,0,0,1,0,62270.1,-0.010893,-0.0112942,-25.8282,32,0.00494533,10,0.000291708,-1.58791,1.16678,0.0505664,-50.9419,-0.0112942,
2,0,0,1,0,62270.1,-0.0212998,-0.021701,-25.2508,32,0.0042813,10,0.000547967,-1.59773,1.02098,0.0577876,-56.963,-0.021701,
2,0,0,1,0,62270.1,-0.0316984,-0.0320919,-24.676,32,0.00363241,10,0.000791899,-1.60773,1.10243,0.0535183,-51.5355,-0.0320919,
2,0,0,1,0,62270.2,-0.0420942,-0.0425019,-24.1759,32,0.00299772,10,0.00102752,-1.61662,1.26393,0.0466798,-44.0396,-0.0425019,
2,0,0,1,0,62270.2,-0.0524927,-0.052877,-23.7879,32,0.00237454,10,0.00125783,-1.62364,1.90872,0.0309108,-28.7166,-0.052877,
2,0,0,1,0,62270.2,-0.0628996,-0.0632732,-23.5752,32,0.00175923,10,0.00149168,-1.62754,3.95857,0.0149044,-13.7093,-0.0632732,
2,0,0,1,0,62270.2,-0.0732982,-0.0736641,-23.4905,32,0.0011479,10,0.0017304,-1.62911,38.0373,0.00155111,-1.42139,-0.0736641,
2,0,0,1,0,62270.3,-0.0836939,-0.08409,-23.5214,32,0.000537133,10,0.00197791,-1.62854,-5.6271,-0.010485,9.62918,-0.08409,
2,0,0,1,0,62270.3,-0.0940925,-0.0945128,-23.6868,32,-7.63603e-05,10,0.0022387,-1.62549,-2.38738,-0.0247133,22.8553,-0.0945128,
2,0,0,1,1,62270.3,-0.0978574,-0.098255,-20.4027,32,-0.000550784,10,0.00200467,-1.69031,-0.0368873,-1.59947,1261.56,-0.098255,
2,0,0,1,1,62270.3,-0.0874588,-0.0878959,-11.3971,32,-0.000951757,10,0.00100176,-1.94321,-0.0391606,-1.50662,669.037,-0.0878959,
2,0,0,1,1,62270.4,-0.077052,-0.0774477,-5.46556,32,-0.00116638,10,0.000423295,-2.26237,-0.0251766,-2.34345,491.669,-0.0774477,
2,0,0,1,1,62270.4,-0.0666562,-0.0670461,-0.93355,32,-0.00124682,10,6.25909e-05,-3.02986,-0.00663494,-8.89231,384.772,-0.0670461,
2,1,0,1,1,62270.4,-0.0562576,-0.0566775,2.66014,32,-0.00122236,10,-0.00015077,-2.5751,0.018546,3.18129,311.882,-0.0566775,
2,1,0,1,1,62270.4,-0.0458563,-0.046295,5.61245,32,-0.0011133,10,-0.000259829,-2.25085,0.0497856,1.18508,256.499,-0.046295,
2,1,0,1,1,62270.5,-0.0354522,-0.0358362,8.04337,32,-0.000934648,10,-0.000288244,-2.09456,0.087131,0.677141,211.077,-0.0358362,
2,1,0,1,1,62270.5,-0.0250564,-0.0254517,10.023,32,-0.00069876,10,-0.000255102,-1.999,0.135011,0.437001,170.559,-0.0254517,
2,1,0,1,1,62270.5,-0.0146579,-0.0150639,11.6412,32,-0.000416165,10,-0.000175361,-1.934,0.190316,0.310011,140.72,-0.0150639,
2,1,0,1,1,62270.6,-0.00425653,-0.00468996,12.9675,32,-9.55177e-05,10,-6.08172e-05,-1.88714,0.259753,0.227139,114.787,-0.00468996,
2,1,0,0,1,62270.6,-7.54729e-05,-0.000478022,13.4258,32,4.31398e-05,10,-6.41784e-06,-1.87206, , , ,-0.000478022,

File: 20221101_1-115_003_TrumpetPlot_ParaChange_from10_every3_11_CV_C01_32.csv
mode,ox/red,error,control changes,counter inc.,time/s,control/V,Ewe/V,<I>/mA,cycle number,(Q-Qo)/C,I Range,P/W,log(|I|),Tafel slope mV/dec,alpha_eff,dI/d(E-IR),E-IR/V,
2,1,0,1,0,64238.7,2.44065e-05,-0.000344411,9.19558,33,0.0000000E+000,10,-3.16706e-06,-2.03642, , , ,-0.000344411,
2,1,0,1,0,64238.7,0.0101427,0.0098058,12.1837,33,0.000275773,10,0.000119471,-1.91422,0.141667,0.416469,197.087,0.0098058,
2,1,0,1,0,64238.7,0.0205441,0.0201798,13.9071,33,0.000616233,10,0.000280642,-1.85676,0.225506,0.261633,141.78,0.0201798,
2,1,0,1,0,64238.8,0.0309482,0.0305442,15.2189,33,0.000995582,10,0.000464849,-1.81762,0.305195,0.193319,114.724,0.0305442,
2,1,0,1,0,64238.8,0.0413439,0.0409701,16.3213,33,0.0014059,10,0.000668686,-1.78724,0.385771,0.15294,97.2806,0.0409701,
2,1,0,1,0,64238.8,0.0517425,0.0513939,17.2919,33,0.00184309,10,0.000888696,-1.76216,0.437332,0.134909,91.0651,0.0513939,
2,1,0,1,0,64238.8,0.0621438,0.0617413,18.2384,33,0.00230515,10,0.00112606,-1.73901,0.466083,0.126587,90.0839,0.0617413,
2,1,0,1,0,64238.9,0.0725479,0.0722128,19.179,33,0.00279159,10,0.00138497,-1.71717,0.483857,0.121937,91.2163,0.0722128,
2,1,0,1,0,64238.9,0.0829437,0.0825857,20.121,33,0.00330255,10,0.00166171,-1.69635,0.513128,0.114981,90.2936,0.0825857,
2,1,0,1,0,64238.9,0.0933422,0.0930148,21.0954,33,0.00383847,10,0.00196218,-1.67581,0.522627,0.112891,92.9613,0.0930148,
2,1,0,1,0,64239,0.103749,0.103389,22.0481,33,0.00439938,10,0.00227953,-1.65663,0.560593,0.105246,90.5074,0.103389,
2,1,0,1,0,64239,0.114148,0.113748,23.0436,33,0.00498518,10,0.00262116,-1.63745,0.527909,0.111762,100.468,0.113748,
2,1,0,1,0,64239,0.124543,0.124196,24.1133,33,0.00559815,10,0.00299478,-1.61774,0.50772,0.116206,109.416,0.124196,
2,1,0,1,0,64239,0.134942,0.134566,25.3187,33,0.00624076,10,0.00340703,-1.59656,0.488432,0.120795,119.392,0.134566,
2,1,0,1,0,64239.1,0.145349,0.145039,26.5666,33,0.00691529,10,0.00385321,-1.57566,0.519242,0.113627,117.682,0.145039,
2,1,0,1,0,64239.1,0.155747,0.155364,27.6868,33,0.00762088,10,0.00430152,-1.55773,0.635486,0.0928423,100.276,0.155364,
2,1,0,1,0,64239.1,0.166143,0.165766,28.6036,33,0.0083536,10,0.00474151,-1.54358,0.922495,0.063957,71.3722,0.165766,
2,1,0,1,0,64239.1,0.176542,0.176193,29.0805,33,0.00910494,10,0.00512379,-1.5364,4.60654,0.0128079,14.5182,0.176193,
2,1,0,1,0,64239.2,0.186949,0.186613,28.8743,33,0.00985984,10,0.00538831,-1.53949,-1.18564,-0.0497623,-55.9927,0.186613,
2,1,0,1,0,64239.2,0.197347,0.197007,27.9255,33,0.0105997,10,0.00550152,-1.554,-0.517892,-0.113923,-124.049,0.197007,
2,1,0,1,0,64239.2,0.207743,0.207473,26.3969,33,0.0113067,10,0.00547665,-1.57845,-0.365482,-0.161431,-166.134,0.207473,
2,1,0,1,0,64239.2,0.218141,0.217801,24.5391,33,0.011969,10,0.00534466,-1.61014,-0.312808,-0.188614,-180.608,0.217801,
2,1,0,1,0,64239.3,0.228548,0.228227,22.6758,33,0.0125823,10,0.00517523,-1.64444,-0.301884,-0.195439,-172.984,0.228227,
2,1,0,1,0,64239.3,0.238947,0.238604,21.0064,33,0.0131494,10,0.00501221,-1.67765,-0.329484,-0.179068,-146.837,0.238604,
2,1,0,1,0,64239.3,0.249343,0.249018,19.5936,33,0.0136765,10,0.00487915,-1.70789,-0.364818,-0.161725,-123.748,0.249018,
2,1,0,1,0,64239.3,0.259741,0.259433,18.4329,33,0.0141702,10,0.0047821,-1.73441,-0.415285,-0.142071,-102.249,0.259433,
2,1,0,1,0,64239.4,0.270148,0.269823,17.4731,33,0.0146366,10,0.00471464,-1.75763,-0.485155,-0.121611,-82.9914,0.269823,
2,1,0,1,0,64239.4,0.280547,0.280208,16.6785,33,0.0150802,10,0.00467345,-1.77784,-0.538038,-0.109658,-71.3972,0.280208,
2,1,0,1,0,64239.4,0.290942,0.290573,16.0157,33,0.0155049,10,0.00465373,-1.79545,-0.617537,-0.0955408,-59.7235,0.290573,
2,1,0,0,0,64239.4,0.300012,0.299632,15.505,33,0.0158626,10,0.0046458,-1.80953,0.00151841,38.8564,21272.6,0.299632,
2,1,0,1,0,64239.5,0.290704,0.290377,7.00794,33,0.0161065,10,0.00203494,-2.15441,0.0269873,2.18622,598.123,0.290377,
2,1,0,1,0,64239.5,0.280305,0.280021,2.21392,33,0.0162207,10,0.000619945,-2.65484,0.0130154,4.53309,365.969,0.280021,
2,0,0,1,0,64239.5,0.269909,0.269634,-0.890088,33,0.0162349,10,-0.000239998,-3.05057,-0.00435002,-13.5632,248.809,0.269634,
2,0,0,1,0,64239.5,0.2595,0.259184,-3.07224,33,0.0161817,10,-0.000796275,-2.51254,-0.0386983,-1.52462,178.825,0.259184,
2,0,0,1,0,64239.6,0.249104,0.248756,-4.68815,33,0.0160798,10,-0.0011662,-2.329,-0.0806849,-0.73124,132.734,0.248756,
2,0,0,1,0,64239.6,0.238705,0.23838,-5.92803,33,0.0159411,10,-0.00141312,-2.22709,-0.127944,-0.46114,106.522,0.2383796,
2,0,0,1,0,64239.6,0.22831,0.228023,-6.93493,33,0.0157732,10,-0.00158132,-2.15896,-0.179763,-0.32821,88.743,0.228023,
2,0,0,1,0,64239.6,0.2179,0.21759,-7.79527,33,0.0155814,10,-0.00169618,-2.10817,-0.240031,-0.245802,74.513,0.21759,
2,0,0,1,0,64239.7,0.207504,0.207172,-8.5048,33,0.0153694,10,-0.00176196,-2.07034,-0.299219,-0.19718,65.4666,0.207172,
2,0,0,1,0,64239.7,0.197106,0.196732,-9.15808,33,0.0151395,10,-0.00180169,-2.0382,-0.342921,-0.172051,61.5176,0.196732,
2,0,0,1,0,64239.7,0.18671,0.186367,-9.76337,33,0.0148934,10,-0.00181957,-2.0104,-0.3901,-0.151243,57.5887,0.186367,
2,0,0,1,0,64239.8,0.1763,0.175973,-10.3517,33,0.0146318,10,-0.00182162,-1.98499,-0.41969,-0.14058,56.7936,0.175973,
2,0,0,1,0,64239.8,0.165905,0.165574,-10.9597,33,0.0143547,10,-0.00181464,-1.9602,-0.418726,-0.140904,60.3211,0.165574,
2,0,0,1,0,64239.8,0.155506,0.15516,-11.6602,33,0.0140609,10,-0.00180919,-1.9333,-0.357923,-0.16484,74.9859,0.15516,
2,0,0,1,0,64239.8,0.145105,0.144785,-12.5313,33,0.013747,10,-0.00181434,-1.902,-0.298188,-0.197862,96.871,0.144785,
2,0,0,1,0,64239.9,0.134701,0.134394,-13.7662,33,0.013406,10,-0.00185009,-1.86119,-0.217273,-0.271547,146.153,0.134394,
2,0,0,1,0,64239.9,0.124305,0.124034,-15.5608,33,0.0130257,10,-0.00193007,-1.80797,-0.181518,-0.325036,197.573,0.124034,
2,0,0,1,0,64239.9,0.113906,0.113603,-17.7628,33,0.0125929,10,-0.0020179,-1.75049,-0.183731,-0.321122,222.512,0.113603,
2,0,0,1,0,64239.9,0.103505,0.103263,-20.0171,33,0.0121011,10,-0.00206702,-1.6986,-0.217167,-0.27168,212.254,0.1032626,
2,0,0,1,0,64240,0.0931008,0.0927911,-22.1659,33,0.0115519,10,-0.0020568,-1.65431,-0.262711,-0.224581,194.176,0.0927911,
2,0,0,1,0,64240,0.0827051,0.0823747,-23.9769,33,0.0109509,10,-0.00197509,-1.62021,-0.362202,-0.162893,152.248,0.0823747,
2,0,0,1,0,64240,0.0723065,0.072022,-25.3404,33,0.0103087,10,-0.00182506,-1.59619,-0.528066,-0.111729,110.384,0.072022,
2,0,0,1,0,64240,0.0618997,0.0615568,-26.2799,33,0.00963661,10,-0.00161771,-1.58038,-0.883287,-0.0667959,68.452,0.06155682,
2,0,0,1,0,64240.1,0.0515011,0.0511617,-26.8162,33,0.00894577,10,-0.00137196,-1.5716,-1.66224,-0.0354943,37.1072,0.0511617,
2,0,0,1,0,64240.1,0.0411053,0.0408047,-27.0501,33,0.00824511,10,-0.00110377,-1.56783,-5.65428,-0.0104346,11.0118,0.0408047,
2,0,0,1,0,64240.1,0.0307068,0.0303575,-27.0925,33,0.00754081,10,-0.000822461,-1.56715,26.5163,0.00222504,-2.35324,0.0303575,
2,0,0,1,0,64240.1,0.0202999,0.01992,-27.0294,33,0.006837,10,-0.000538425,-1.56816,4.30731,0.0136976,-14.4373,0.01992,
2,0,0,1,0,64240.2,0.00990136,0.00953327,-26.8006,33,0.00613717,10,-0.000255498,-1.57185,2.11771,0.0278602,-29.1155,0.00953327,
2,0,0,1,0,64240.2,-0.000494411,-0.000892641,-26.4242,33,0.00544512,10,2.35874e-05,-1.578,1.42934,0.0412777,-42.535,-0.000892641,
2,0,0,1,0,64240.2,-0.010893,-0.0112836,-25.8866,33,0.00476494,10,0.000292093,-1.58692,1.07714,0.0547748,-55.3206,-0.0112836,
2,0,0,1,0,64240.2,-0.0212998,-0.0217084,-25.2789,33,0.00409978,10,0.000548766,-1.59724,1.00349,0.0587948,-57.9941,-0.0217084,
2,0,0,1,0,64240.3,-0.0316984,-0.0320835,-24.6907,33,0.00345045,10,0.000792164,-1.60747,1.05792,0.0557696,-53.7265,-0.0320835,
2,0,0,1,0,64240.3,-0.0420942,-0.0424871,-24.1899,33,0.00281533,10,0.00102776,-1.61637,1.37134,0.0430237,-40.6547,-0.0424871,
2,0,0,1,0,64240.3,-0.0524927,-0.0528727,-23.8544,33,0.0021909,10,0.00126125,-1.62243,2.17963,0.0270689,-25.2125,-0.0528727,
2,0,0,1,0,64240.4,-0.0628996,-0.0632785,-23.6783,33,0.00157335,10,0.00149833,-1.62565,4.2569,0.0138598,-12.8012,-0.0632785,
2,0,0,1,0,64240.4,-0.0732982,-0.0736779,-23.6165,33,0.000958975,10,0.00174002,-1.62678,-25.1625,-0.00234475,2.16181,-0.07367792,
2,0,0,1,0,64240.4,-0.0836939,-0.0840752,-23.6949,33,0.000344137,10,0.00199216,-1.62534,-3.7535,-0.0157186,14.5437,-0.0840752,
2,0,0,1,0,64240.4,-0.0940925,-0.094463,-23.8981,33,-0.000274355,10,0.00225749,-1.62164,-2.21589,-0.0266259,24.8281,-0.094463,
2,0,0,1,1,64240.4,-0.0978574,-0.0982932,-20.3215,33,-0.000752055,10,0.00199746,-1.69205,-0.0343809,-1.71607,1349.99,-0.0982932,
2,0,0,1,1,64240.5,-0.0874588,-0.0878386,-10.9113,33,-0.0011444,10,0.00095843,-1.96212,-0.0362872,-1.62592,691.001,-0.08783859,
2,0,0,1,1,64240.5,-0.0770519,-0.077454,-4.83416,33,-0.00134429,10,0.000374425,-2.31568,-0.0216625,-2.72361,502.047,-0.077454,
2,0,0,1,1,64240.5,-0.0666562,-0.0670758,-0.236671,33,-0.00140721,10,1.58749e-05,-3.62586,-0.032892,-1.79375,392.051,-0.0670758,
2,1,0,1,1,64240.6,-0.0562576,-0.0566966,3.40928,33,-0.00136377,10,-0.000193294,-2.46734,0.0241209,2.44601,313.121,-0.0566966,
2,1,0,1,1,64240.6,-0.0458563,-0.0463003,6.38043,33,-0.00123497,10,-0.000295416,-2.19515,0.0567357,1.03991,256.075,-0.0463003,
2,1,0,1,1,64240.6,-0.0354522,-0.0358935,8.80042,33,-0.00103645,10,-0.000315878,-2.0555,0.0956931,0.616554,210.604,-0.0358935,
2,1,0,1,1,64240.6,-0.0250564,-0.0254421,10.761,33,-0.000780991,10,-0.000273782,-1.96815,0.146865,0.40173,168.428,-0.0254421,
2,1,0,1,1,64240.7,-0.0146579,-0.0150268,12.353,33,-0.000479501,10,-0.000185626,-1.90823,0.204168,0.288978,139.149,-0.0150268,
2,1,0,1,1,64240.7,-0.00425653,-0.00466769,13.6444,33,-0.000140783,10,-6.36879e-05,-1.86505,0.284448,0.20742,110.315,-0.00466769,
2,1,0,0,1,64240.7,-7.54729e-05,-0.000535284,14.0828,33,4.81611e-06,10,-7.53832e-06,-1.85131, , , ,-0.000535284,