Folder: Figs_alphaMnO2_OER_Tafel_sleope/Figure_codes/Fig_3-5/rawdata_trumpetplot_data/after 10th (part 66)

File: 20221101_1-115_003_TrumpetPlot_ParaChange_from10_every3_05_CV_C01_27.csv
mode,ox/red,error,control changes,counter inc.,time/s,control/V,Ewe/V,<I>/mA,cycle number,(Q-Qo)/C,I Range,P/W,log(|I|),Tafel slope mV/dec,alpha_eff,dI/d(E-IR),E-IR/V,
2,0,0,1,0,54313.5,2.44065e-05,-0.00042076,-0.742422,28,0.0000000E+000,10,3.12382e-07,-3.12935, , , ,-0.00042076,
2,1,0,1,0,54313.9,0.00729063,0.00697642,0.645857,28,0.000124737,10,4.50577e-06,-3.18986,0.0420883,1.40181,34.4077,0.00697642,
2,1,0,1,0,54314.3,0.0147802,0.0144108,0.800922,28,0.000405481,10,1.15419e-05,-3.09641,0.115678,0.510035,15.9255,0.0144108,
2,1,0,1,0,54314.7,0.0222725,0.0219197,0.899319,28,0.000731348,10,1.97128e-05,-3.04609,0.164041,0.359667,12.636,0.0219197,
2,1,0,1,0,54315,0.0297644,0.0294391,0.99156,28,0.00109191,10,2.91906e-05,-3.00368,0.19474,0.302967,11.7026,0.0294391,
2,1,0,1,0,54315.4,0.0372544,0.0369401,1.08079,28,0.00148599,10,3.99244e-05,-2.96626,0.218065,0.270561,11.4205,0.0369401,
2,1,0,1,0,54315.8,0.0447449,0.0444018,1.17046,28,0.00191378,10,5.19707e-05,-2.93164,0.245925,0.23991,10.958,0.0444018,
2,1,0,1,0,54316.1,0.0522363,0.0518576,1.25283,28,0.0023743,10,6.49686e-05,-2.90211,0.240424,0.2454,12.0051,0.0518576,
2,1,0,1,0,54316.5,0.0597291,0.0593857,1.33263,28,0.00286543,10,7.91393e-05,-2.87529,0.288781,0.204307,10.6123,0.0593857,
2,1,0,1,0,54316.9,0.0672182,0.0668696,1.40477,28,0.00338385,10,9.39367e-05,-2.85239,0.357075,0.165231,9.03192,0.0668696,
2,1,0,1,0,54317.3,0.0747092,0.0743155,1.45777,28,0.003926,10,0.000108335,-2.83631,0.51609,0.114321,6.50046,0.0743155,
2,1,0,1,0,54317.6,0.0822001,0.0818636,1.50413,28,0.0044881,10,0.000123134,-2.82271,0.543211,0.108613,6.38086,0.08186356,
2,1,0,1,0,54318,0.0896911,0.089329,1.56249,28,0.00506828,10,0.000139576,-2.80618,0.40244,0.146606,8.94838,0.089329,
2,1,0,1,0,54318.4,0.097182,0.0968329,1.64754,28,0.0056747,10,0.000159536,-2.78316,0.243191,0.242607,15.6319,0.0968329,
2,1,0,1,0,54318.8,0.104673,0.104298,1.7864,28,0.00632265,10,0.000186318,-2.74802,0.19514,0.302346,21.0475,0.104298,
2,1,0,1,0,54319.1,0.112164,0.111813,1.93399,28,0.0070264,10,0.000216246,-2.71355,0.241923,0.243879,18.3905,0.111813,
2,1,0,1,0,54319.5,0.119655,0.119339,2.04963,28,0.00778013,10,0.0002446,-2.68832,0.530026,0.111315,8.88332,0.119339,
2,1,0,1,0,54319.9,0.127146,0.126748,2.09768,28,0.00856405,10,0.000265876,-2.67826,1.00772,0.0585478,4.79797,0.126748,
2,1,0,1,0,54320.3,0.134637,0.134261,2.1181,28,0.00936258,10,0.000284379,-2.67405,-1.87515,-0.0314642,-2.59895,0.134261,
2,1,0,1,0,54320.6,0.142128,0.141701,2.02195,28,0.0101505,10,0.000286513,-2.69423,-0.188348,-0.313251,-24.6069,0.141701,
2,1,0,1,0,54321,0.149619,0.149271,1.72707,28,0.0108636,10,0.000257802,-2.76269,-0.0847607,-0.696077,-46.8336,0.149271,
2,1,0,1,0,54321.4,0.157108,0.156724,1.39597,28,0.0114512,10,0.000218781,-2.85512,-0.0854486,-0.690474,-37.6109,0.156724,
2,1,0,1,0,54321.8,0.164601,0.164227,1.18576,28,0.0119362,10,0.000194735,-2.926,-0.135281,-0.436129,-20.1821,0.164227,
2,1,0,1,0,54322.1,0.172092,0.17174,1.07317,28,0.0123633,10,0.000184305,-2.96933,-0.238929,-0.246935,-10.3969,0.17174,
2,1,0,1,0,54322.5,0.179582,0.179239,1.0178,28,0.0127606,10,0.00018243,-2.99234,-0.442158,-0.133436,-5.3262,0.179239,
2,1,0,1,0,54322.9,0.187073,0.186726,0.988008,28,0.0131419,10,0.000184487,-3.00524,-0.605564,-0.0974298,-3.74526,0.186726,
2,1,0,1,0,54323.3,0.194564,0.194204,0.967608,28,0.0135135,10,0.000187913,-3.0143,-0.874359,-0.067478,-2.5446,0.194204,
2,1,0,1,0,54323.6,0.202057,0.201713,0.951807,28,0.0138784,10,0.000191991,-3.02145,-0.907083,-0.0650436,-2.41368,0.201713,
2,1,0,1,0,54324,0.209546,0.209271,0.941035,28,0.0142386,10,0.000196932,-3.02639,-0.955943,-0.0617192,-2.26848,0.209271,
2,1,0,1,0,54324.4,0.217037,0.216713,0.929549,28,0.0145949,10,0.000201446,-3.03173,-2.2301,-0.0264562,-0.962218,0.216713,
2,1,0,1,0,54324.8,0.224528,0.22416,0.922467,28,0.0149483,10,0.00020678,-3.03505,-2.32777,-0.0253461,-0.913434,0.22416,
2,1,0,1,0,54325.1,0.232019,0.231699,0.917784,28,0.0152991,10,0.00021265,-3.03726,-4.67816,-0.0126118,-0.451955,0.231699,
2,1,0,1,0,54325.5,0.23951,0.23917,0.914426,28,0.0156478,10,0.000218704,-3.03885,-2.32228,-0.0254061,-0.903561,0.23917,
2,1,0,1,0,54325.9,0.247001,0.246613,0.908613,28,0.0159946,10,0.000224076,-3.04162,-1.50295,-0.039256,-1.38874,0.246613,
2,1,0,1,0,54326.3,0.254492,0.254141,0.901277,28,0.0163395,10,0.000229051,-3.04514,-2.49666,-0.0236316,-0.833254,0.254141,
2,1,0,1,0,54326.6,0.261983,0.261625,0.89852,28,0.0166822,10,0.000235075,-3.04647,-3.32365,-0.0177515,-0.621492,0.261625,
2,1,0,1,0,54327,0.269474,0.26913,0.889816,28,0.017023,10,0.000239476,-3.0507,-2.41592,-0.0244214,-0.849006,0.26913,
2,1,0,1,0,54327.4,0.276965,0.27659,0.883745,28,0.0173615,10,0.000244436,-3.05367,-3.13705,-0.0188075,-0.649687,0.27659,
2,1,0,1,0,54327.8,0.284456,0.284115,0.877418,28,0.0176974,10,0.000249288,-3.05679,-1.44935,-0.0407079,-1.39346,0.284115,
2,1,0,1,0,54328.1,0.291947,0.291614,0.870672,28,0.0180304,10,0.0002539,-3.06015,-1.05017,-0.0561812,-1.90894,0.291614,
2,1,0,1,0,54328.5,0.299436,0.299108,0.860392,28,0.0183607,10,0.00025735,-3.0653,-0.00404644,-14.5807,-312.249,0.299108,
2,0,0,1,0,54328.9,0.293745,0.2934,-0.167259,28,0.018392,10,-4.90739e-05,-3.77661,-0.0144244,-4.09029,24.0414,0.2934,
2,0,0,1,0,54329.2,0.286254,0.285874,-0.276468,28,0.0182999,10,-7.90351e-05,-3.55835,-0.0590178,-0.999698,10.8748,0.285874,
2,0,0,1,0,54329.6,0.278763,0.278389,-0.343467,28,0.0181766,10,-9.56173e-05,-3.46411,-0.0987569,-0.597427,7.98793,0.278389,
2,0,0,1,0,54330,0.271272,0.270929,-0.39366,28,0.0180322,10,-0.000106654,-3.40488,-0.155847,-0.378577,5.79341,0.2709288,
2,0,0,1,0,54330.3,0.263781,0.263407,-0.43494,28,0.0178712,10,-0.000114566,-3.36157,-0.19874,-0.29687,5.0231,0.263407,
2,0,0,1,0,54330.7,0.25629,0.255916,-0.470312,28,0.0176959,10,-0.00012036,-3.32761,-0.318459,-0.185267,3.38122,0.255916,
2,0,0,1,0,54331.1,0.248799,0.248462,-0.500983,28,0.017508,10,-0.000124475,-3.30018,-0.302673,-0.19493,3.80499,0.2484619,
2,0,0,1,0,54331.5,0.241308,0.240995,-0.529327,28,0.0173088,10,-0.000127565,-3.27628,-0.339622,-0.173722,3.59584,0.240995,
2,0,0,1,0,54331.8,0.233817,0.233424,-0.557865,28,0.0170991,10,-0.000130219,-3.25347,-0.304092,-0.19402,4.21977,0.233424,
2,0,0,1,0,54332.2,0.226326,0.226003,-0.583411,28,0.0168792,10,-0.000131853,-3.23403,-0.460527,-0.128114,2.91649,0.2260035,
2,0,0,1,0,54332.6,0.218835,0.218494,-0.608498,28,0.0166497,10,-0.000132953,-3.21574,-0.391513,-0.150698,3.57691,0.218494,
2,0,0,1,0,54333,0.211344,0.210971,-0.633441,28,0.0164108,10,-0.000133638,-3.19829,-0.631824,-0.0933805,2.31065,0.210971,
2,0,0,1,0,54333.3,0.203855,0.203481,-0.660025,28,0.0161623,10,-0.000134303,-3.18044,-0.56614,-0.104215,2.68671,0.203481,
2,0,0,1,0,54333.7,0.196362,0.196013,-0.682144,28,0.0159047,10,-0.000133709,-3.16612,-0.413517,-0.142679,3.79994,0.196013,
2,0,0,1,0,54334.1,0.188871,0.188524,-0.71315,28,0.0156365,10,-0.000134446,-3.14682,-0.316141,-0.186626,5.18684,0.188524,
2,0,0,1,0,54334.5,0.18138,0.18103,-0.745947,28,0.0153575,10,-0.000135039,-3.12729,-0.381236,-0.15476,4.49809,0.18103,
2,0,0,1,0,54334.8,0.173891,0.173523,-0.781199,28,0.015066,10,-0.000135556,-3.10724,-0.279359,-0.211198,6.4305,0.1735228,
2,0,0,1,0,54335.2,0.166398,0.166019,-0.826017,28,0.0147591,10,-0.000137134,-3.08301,-0.324506,-0.181815,5.85833,0.166019,
2,0,0,1,0,54335.6,0.158906,0.158555,-0.884733,28,0.0144327,10,-0.000140279,-3.05319,-0.195896,-0.301181,10.428,0.158555,
2,0,0,1,0,54336,0.151417,0.151021,-0.979588,28,0.0140784,10,-0.000147939,-3.00896,-0.146991,-0.401385,15.3747,0.151021,
2,0,0,1,0,54336.3,0.143926,0.143543,-1.13518,28,0.0136788,10,-0.000162947,-2.94494,-0.091711,-0.643325,28.544,0.143543,
2,0,0,1,0,54336.7,0.136435,0.136032,-1.37727,28,0.0132037,10,-0.000187352,-2.86098,-0.0888092,-0.664345,35.6939,0.136032,
2,0,0,1,0,54337.1,0.128942,0.128566,-1.66032,28,0.0126278,10,-0.000213461,-2.77981,-0.105593,-0.55875,36.1708,0.1285658,
2,0,0,1,0,54337.5,0.121453,0.121022,-1.9128,28,0.0119499,10,-0.000231492,-2.71833,-0.154344,-0.382264,28.4787,0.121022,
2,0,0,1,0,54337.8,0.113962,0.113584,-2.08186,28,0.0111921,10,-0.000236465,-2.68155,-0.323991,-0.182104,14.7627,0.113584,
2,0,0,1,0,54338.2,0.106471,0.10613,-2.13842,28,0.010392,10,-0.00022695,-2.66991,-4.78389,-0.012333,1.02844,0.10613,
2,0,0,1,0,54338.6,0.0989799,0.0986553,-2.10788,28,0.00958848,10,-0.000207954,-2.67615,0.789993,0.0746842,-6.13789,0.0986553,
2,0,0,1,0,54339,0.0914889,0.0911365,-2.04606,28,0.00880465,10,-0.000186471,-2.68908,0.659304,0.0894883,-7.13487,0.0911365,
2,0,0,1,0,54339.3,0.083998,0.0836312,-1.98838,28,0.00804363,10,-0.00016629,-2.7015,0.65834,0.0896193,-6.95349,0.0836312,
2,0,0,1,0,54339.7,0.076507,0.0761195,-1.94288,28,0.00730088,10,-0.000147891,-2.71155,0.655542,0.0900019,-6.82295,0.07611946,
2,0,0,1,0,54340.1,0.069016,0.0686869,-1.8913,28,0.00657569,10,-0.000129907,-2.72324,0.591093,0.099815,-7.38699,0.0686869,
2,0,0,1,0,54340.5,0.0615251,0.0611899,-1.84366,28,0.0058689,10,-0.000112813,-2.73432,0.65506,0.090068,-6.48751,0.06118989,
2,0,0,1,0,54340.8,0.0540342,0.0537037,-1.78959,28,0.00518161,10,-9.61076e-05,-2.74725,0.581062,0.101538,-7.08623,0.0537037,
2,0,0,1,0,54341.2,0.0465432,0.0461925,-1.73432,28,0.00451483,10,-8.01127e-05,-2.76087,0.52899,0.111533,-7.55153,0.0461925,
2,0,0,1,0,54341.6,0.0390523,0.0386984,-1.67204,28,0.00387056,10,-6.47055e-05,-2.77675,0.408316,0.144496,-9.41458,0.0386984,
2,0,0,1,0,54342,0.0315626,0.0311882,-1.60788,28,0.00325007,10,-5.01468e-05,-2.79375,0.424362,0.139032,-8.72817,0.0311882,
2,0,0,1,0,54342.3,0.0240704,0.0237161,-1.54685,28,0.00265267,10,-3.66851e-05,-2.81055,0.479987,0.12292,-7.42826,0.0237161,
2,0,0,1,0,54342.7,0.0165785,0.0161751,-1.4988,28,0.00207579,10,-2.42432e-05,-2.82426,0.639409,0.0922727,-5.40828,0.0161751,
2,0,0,1,0,54343.1,0.00908846,0.0087219,-1.46378,28,0.0015149,10,-1.27669e-05,-2.83452,1.11128,0.0530919,-3.03629,0.0087219,
2,0,0,1,0,54343.5,0.0015984,0.00119254,-1.46177,28,0.000962687,10,-1.74323e-06,-2.83512, , , ,0.00119254,
2,0,0,1,0,54343.5,0.000199195,-0.000224192,-1.45114,28,0.000859412,10,3.25333e-07,-2.83829, , , ,-0.000224192,

File: 20221101_1-115_003_TrumpetPlot_ParaChange_from10_every3_05_CV_C01_28.csv
mode,ox/red,error,control changes,counter inc.,time/s,control/V,Ewe/V,<I>/mA,cycle number,(Q-Qo)/C,I Range,P/W,log(|I|),Tafel slope mV/dec,alpha_eff,dI/d(E-IR),E-IR/V,
2,0,0,1,0,56283.7,2.44065e-05,-0.000248974,-0.736062,29,0.0000000E+000,10,1.8326e-07,-3.13309, , , ,-0.000248974,
2,1,0,1,0,56284,0.00729063,0.00693208,0.604684,29,0.000105499,10,4.19172e-06,-3.21847,0.0355501,1.65963,38.2213,0.00693208,
2,1,0,1,0,56284.4,0.0147802,0.0144157,0.777774,29,0.00037449,10,1.12122e-05,-3.10915,0.109215,0.540221,16.3278,0.01441571,
2,1,0,1,0,56284.8,0.0222725,0.0219297,0.882105,29,0.000691522,10,1.93443e-05,-3.05448,0.15821,0.372922,12.8137,0.02192972,
2,1,0,1,0,56285.2,0.0297644,0.0294172,0.972867,29,0.00104426,10,2.86191e-05,-3.01195,0.188711,0.312647,11.8526,0.0294172,
2,1,0,1,0,56285.5,0.0372544,0.0368951,1.06254,29,0.00143084,10,3.92026e-05,-2.97365,0.215305,0.27403,11.3652,0.0368951,
2,1,0,1,0,56285.9,0.0447449,0.0443903,1.14867,29,0.00185075,10,5.09896e-05,-2.93981,0.222279,0.265433,11.9171,0.0443903,
2,1,0,1,0,56286.3,0.0522363,0.0518773,1.23268,29,0.00230291,10,6.39479e-05,-2.90915,0.241419,0.244388,11.7787,0.0518773,
2,1,0,1,0,56286.7,0.0597291,0.0593373,1.31338,29,0.00278542,10,7.79325e-05,-2.88161,0.315462,0.187027,9.5646,0.0593373,
2,1,0,1,0,56287,0.0672182,0.0668399,1.38164,29,0.00329487,10,9.23489e-05,-2.8596,0.363784,0.162184,8.72572,0.0668399,
2,1,0,1,0,56287.4,0.0747092,0.0743496,1.43672,29,0.00382807,10,0.00010682,-2.84263,0.511839,0.115271,6.45995,0.0743496,
2,1,0,1,0,56287.8,0.0822001,0.0818191,1.48514,29,0.00438092,10,0.000121513,-2.82823,0.592108,0.0996441,5.77822,0.0818191,
2,1,0,1,0,56288.2,0.0896911,0.089365,1.53907,29,0.00495187,10,0.000137539,-2.81274,0.454389,0.129845,7.80266,0.089365,
2,1,0,1,0,56288.5,0.097182,0.0968449,1.61947,29,0.00554787,10,0.000156837,-2.79063,0.253032,0.233172,14.7598,0.0968449,
2,1,0,1,0,56288.9,0.104673,0.104356,1.7542,29,0.00618373,10,0.000183061,-2.75592,0.198222,0.297646,20.3327,0.104356,
2,1,0,1,0,56289.3,0.112164,0.111777,1.90022,29,0.00687322,10,0.000212402,-2.7212,0.241657,0.244148,18.05,0.111777,
2,1,0,1,0,56289.6,0.119655,0.119251,2.00778,29,0.0076113,10,0.00023943,-2.69728,0.458563,0.128663,10.0642,0.119251,
2,1,0,1,0,56290,0.127146,0.126798,2.06235,29,0.00837981,10,0.000261501,-2.68564,0.863695,0.0683111,5.49278,0.126798,
2,1,0,1,0,56290.4,0.134637,0.13425,2.08535,29,0.00916337,10,0.000279958,-2.68082,-2.98949,-0.0197358,-1.60421,0.13425,
2,1,0,1,0,56290.8,0.142128,0.141795,1.99928,29,0.00993926,10,0.000283487,-2.69913,-0.196494,-0.300263,-23.3399,0.141795,
2,1,0,1,0,56291.1,0.149619,0.149281,1.72558,29,0.0106464,10,0.000257597,-2.76306,-0.0889214,-0.663507,-44.4944,0.149281,
2,1,0,1,0,56291.5,0.157108,0.156736,1.40159,29,0.0112341,10,0.000219679,-2.85338,-0.0887953,-0.66445,-36.4132,0.156736,
2,1,0,1,0,56291.9,0.164601,0.164269,1.19436,29,0.0117217,10,0.000196196,-2.92287,-0.132253,-0.446116,-20.8449,0.164269,
2,1,0,1,0,56292.3,0.172092,0.171735,1.08326,29,0.0121516,10,0.000186034,-2.96527,-0.243119,-0.24268,-10.304,0.171735,
2,1,0,1,0,56292.6,0.179582,0.179248,1.02596,29,0.0125509,10,0.000183902,-2.98887,-0.409478,-0.144086,-5.78801,0.179248,
2,1,0,1,0,56293,0.187073,0.186719,0.991747,29,0.0129337,10,0.000185178,-3.0036,-0.727964,-0.0810479,-3.13537,0.186719,
2,1,0,1,0,56293.4,0.194564,0.19418,0.971243,29,0.0133063,10,0.000188596,-3.01267,-0.953819,-0.0618566,-2.3443,0.1941804,
2,1,0,1,0,56293.8,0.202057,0.201713,0.956086,29,0.0136719,10,0.000192855,-3.0195,-1.08632,-0.0543116,-2.0233,0.201713,
2,1,0,1,0,56294.1,0.209546,0.20923,0.94373,29,0.0140326,10,0.000197456,-3.02515,-0.839089,-0.0703144,-2.59002,0.20923,
2,1,0,1,0,56294.5,0.217037,0.216711,0.931601,29,0.014389,10,0.000201888,-3.03077,-1.96078,-0.0300901,-1.09742,0.216711,
2,1,0,1,0,56294.9,0.224528,0.224154,0.926368,29,0.0147426,10,0.000207649,-3.03322,-1.42797,-0.0413173,-1.49456,0.224154,
2,1,0,1,0,56295.3,0.232019,0.231648,0.920781,29,0.0150932,10,0.000213297,-3.03584,-2.72914,-0.0216185,-0.77579,0.231648,
2,1,0,1,0,56295.6,0.23951,0.239158,0.915388,29,0.0154416,10,0.000218922,-3.0384,-1.99952,-0.029507,-1.05202,0.239158,
2,1,0,1,0,56296,0.247001,0.246632,0.908256,29,0.0157879,10,0.000224005,-3.04179,-1.85659,-0.0317786,-1.12444,0.246632,
2,1,0,1,0,56296.4,0.254492,0.254172,0.902627,29,0.0161322,10,0.000229422,-3.04449,-1.33729,-0.0441191,-1.55603,0.254172,
2,1,0,1,0,56296.8,0.261983,0.261641,0.896727,29,0.0164744,10,0.000234621,-3.04734,-2.02014,-0.0292059,-1.02433,0.261641,
2,1,0,1,0,56297.1,0.269474,0.269078,0.89116,29,0.0168145,10,0.000239792,-3.05004,-3.54268,-0.0166541,-0.579915,0.269078,
2,1,0,1,0,56297.5,0.276965,0.276621,0.88627,29,0.0171525,10,0.000245161,-3.05243,-2.67005,-0.0220969,-0.763376,0.276621,
2,1,0,1,0,56297.9,0.284456,0.284121,0.880403,29,0.0174881,10,0.000250141,-3.05532,-2.2268,-0.0264955,-0.908717,0.284121,
2,1,0,1,0,56298.3,0.291947,0.291593,0.872236,29,0.017821,10,0.000254338,-3.05937,-1.73031,-0.0340979,-1.16023,0.291593,
2,1,0,1,0,56298.6,0.299436,0.299152,0.862423,29,0.0181513,10,0.000257995,-3.06428,-0.00464707,-12.6962,-286.691,0.299152,
2,0,0,1,0,56299,0.293745,0.293428,-0.147583,29,0.0181926,10,-4.3305e-05,-3.83096,-0.0110962,-5.31716,26.3864,0.293428,
2,0,0,1,0,56299.4,0.286254,0.285881,-0.264955,29,0.0181072,10,-7.57455e-05,-3.57683,-0.0571584,-1.03222,10.6236,0.285881,
2,0,0,1,0,56299.7,0.278763,0.278423,-0.332867,29,0.017989,10,-9.26776e-05,-3.47773,-0.104524,-0.564462,7.33237,0.278423,
2,0,0,1,0,56300.1,0.271272,0.270916,-0.385068,29,0.0178492,10,-0.000104321,-3.41446,-0.136659,-0.431732,6.45724,0.2709161,
2,0,0,1,0,56300.5,0.263781,0.263396,-0.425909,29,0.0176923,10,-0.000112183,-3.37068,-0.176363,-0.334537,5.55166,0.2633957,
2,0,0,1,0,56300.9,0.25629,0.255977,-0.462149,29,0.017521,10,-0.0001183,-3.33522,-0.251733,-0.234375,4.21168,0.255977,
2,0,0,1,0,56301.2,0.248799,0.248452,-0.492684,29,0.0173369,10,-0.000122409,-3.30743,-0.324316,-0.181921,3.50841,0.248452,
2,0,0,1,0,56301.6,0.241308,0.240944,-0.520544,29,0.0171412,10,-0.000125422,-3.28354,-0.35857,-0.164543,3.35887,0.240944,
2,0,0,1,0,56302,0.233817,0.233457,-0.549318,29,0.0169352,10,-0.000128242,-3.26018,-0.346761,-0.170146,3.65349,0.233457,
2,0,0,1,0,56302.4,0.226326,0.225943,-0.575085,29,0.0167191,10,-0.000129936,-3.24027,-0.375637,-0.157067,3.53023,0.225943,
2,0,0,1,0,56302.7,0.218835,0.218452,-0.601544,29,0.016493,10,-0.000131408,-3.22073,-0.35193,-0.167647,3.9352,0.218452,
2,0,0,1,0,56303.1,0.211344,0.21102,-0.627197,29,0.0162575,10,-0.000132351,-3.2026,-0.556926,-0.105939,2.58682,0.21102,
2,0,0,1,0,56303.5,0.203855,0.203504,-0.651844,29,0.0160126,10,-0.000132653,-3.18586,-0.497246,-0.118654,3.02679,0.203504,
2,0,0,1,0,56303.9,0.196362,0.196006,-0.675823,29,0.0157585,10,-0.000132465,-3.17017,-0.374468,-0.157557,4.16758,0.196006,
2,0,0,1,0,56304.2,0.188871,0.188522,-0.704508,29,0.0154941,10,-0.000132815,-3.15211,-0.33663,-0.175267,4.81603,0.188522,
2,0,0,1,0,56304.6,0.18138,0.181005,-0.73804,29,0.0152188,10,-0.000133589,-3.13192,-0.351584,-0.167812,4.82396,0.181005,
2,0,0,1,0,56305,0.173891,0.173513,-0.77225,29,0.0149313,10,-0.000133995,-3.11224,-0.382662,-0.154183,4.6386,0.173513,
2,0,0,1,0,56305.3,0.166398,0.166007,-0.814458,29,0.0146293,10,-0.000135206,-3.08913,-0.328615,-0.179541,5.71735,0.166007,
2,0,0,1,0,56305.7,0.158906,0.158551,-0.870841,29,0.0143086,10,-0.000138072,-3.06006,-0.227956,-0.258822,8.81948,0.158551,
2,0,0,1,0,56306.1,0.151417,0.151093,-0.957936,29,0.0139618,10,-0.000144738,-3.01866,-0.151916,-0.388374,14.5452,0.151093,
2,0,0,1,0,56306.5,0.143926,0.143543,-1.10038,29,0.0135729,10,-0.000157952,-2.95846,-0.0983177,-0.600095,25.8446,0.143543,
2,0,0,1,0,56306.8,0.136435,0.136089,-1.32915,29,0.0131144,10,-0.000180883,-2.87642,-0.0859965,-0.686074,35.5704,0.136089,
2,0,0,1,0,56307.2,0.128942,0.128603,-1.60013,29,0.0125606,10,-0.000205782,-2.79584,-0.10121,-0.582945,36.2899,0.1286031,
2,0,0,1,0,56307.6,0.121453,0.121076,-1.84774,29,0.0119077,10,-0.000223717,-2.73336,-0.150155,-0.392928,28.2631,0.121076,
2,0,0,1,0,56308,0.113962,0.113588,-2.02109,29,0.0111744,10,-0.00022957,-2.69442,-0.298708,-0.197517,15.5621,0.113588,
2,0,0,1,0,56308.3,0.106471,0.106065,-2.09548,29,0.010394,10,-0.000222258,-2.67872,-1.57646,-0.0374256,3.05847,0.106065,
2,0,0,1,0,56308.7,0.0989798,0.0986128,-2.08001,29,0.00960465,10,-0.000205115,-2.68193,0.846587,0.0696916,-5.64439,0.0986128,
2,0,0,1,0,56309.1,0.0914889,0.0911092,-2.02795,29,0.00883033,10,-0.000184765,-2.69294,0.679927,0.086774,-6.85579,0.0911092,
2,0,0,1,0,56309.5,0.083998,0.0836227,-1.97544,29,0.0080763,10,-0.000165192,-2.70434,0.694722,0.084926,-6.54077,0.0836227,
2,0,0,1,0,56309.8,0.076507,0.0761055,-1.93253,29,0.00733896,10,-0.000147076,-2.71387,0.668905,0.0882039,-6.64969,0.0761055,
2,0,0,1,0,56310.2,0.069016,0.0686557,-1.88379,29,0.00661813,10,-0.000129333,-2.72497,0.713612,0.0826779,-6.0888,0.0686557,
2,0,0,1,0,56310.6,0.0615251,0.0611657,-1.83802,29,0.00591428,10,-0.000112424,-2.73565,0.630757,0.0935384,-6.72333,0.0611657,
2,0,0,1,0,56311,0.0540341,0.053643,-1.78734,29,0.00522946,10,-9.58783e-05,-2.74779,0.670151,0.0880398,-6.13921,0.053643,
2,0,0,1,0,56311.3,0.0465432,0.0462189,-1.73359,29,0.00456449,10,-8.01247e-05,-2.76105,0.57546,0.102527,-6.93282,0.0462189,
2,0,0,1,0,56311.7,0.0390523,0.0386892,-1.67424,29,0.00392099,10,-6.47749e-05,-2.77618,0.465445,0.12676,-8.26882,0.0386892,
2,0,0,1,0,56312.1,0.0315626,0.0311913,-1.61266,29,0.00330059,10,-5.03011e-05,-2.79246,0.470822,0.125313,-7.879,0.03119133,
2,0,0,1,0,56312.5,0.0240704,0.0237449,-1.55097,29,0.00270265,10,-3.68276e-05,-2.8094,0.490653,0.120248,-7.29823,0.02374489,
2,0,0,1,0,56312.8,0.0165785,0.0162184,-1.50325,29,0.00212512,10,-2.43804e-05,-2.82297,0.650345,0.0907211,-5.3247,0.0162184,
2,0,0,1,0,56313.2,0.00908846,0.00872967,-1.46995,29,0.00156348,10,-1.28322e-05,-2.8327,1.30532,0.0451996,-2.59194,0.00872967,
2,0,0,1,0,56313.6,0.0015984,0.00118564,-1.46561,29,0.00101126,10,-1.73769e-06,-2.83398, , , ,0.00118564,
2,0,0,1,0,56313.7,0.000199195,-0.00021003,-1.45614,29,0.000908111,10,3.05834e-07,-2.8368, , , ,-0.00021003,