Folder: Figs_alphaMnO2_OER_Tafel_sleope/Figure_codes/Fig_3-5/rawdata_trumpetplot_data/after 10th (part 9)

File: 20221101_1-115_003_TrumpetPlot_ParaChange_from10_every3_02_CV_C01_17.csv
mode,ox/red,error,control changes,counter inc.,time/s,control/V,Ewe/V,<I>/mA,cycle number,(Q-Qo)/C,I Range,P/W,log(|I|),Tafel slope mV/dec,alpha_eff,dI/d(E-IR),E-IR/V,
2,0,0,1,0,33832.2,2.44065e-05,-0.000344411,-0.381792,18,0.0000000E+000,10,1.31493e-07,-3.41817, , , ,-0.000344411,
2,0,0,1,0,33839.5,0.00729061,0.0069734,-0.0952459,18,-0.000957517,10,-6.64188e-07,-4.02115,-0.0300583,-1.96285,7.41289,0.0069734,
2,0,0,1,0,33847,0.0147815,0.0144418,-0.0589738,18,-0.00143844,10,-8.51689e-07,-4.22934,-0.0389548,-1.51458,3.49291,0.0144418,
2,0,0,1,0,33854.5,0.0222725,0.0219347,-0.0378705,18,-0.00171519,10,-8.30681e-07,-4.4217,-0.0361245,-1.63324,2.42636,0.0219347,
2,0,0,1,0,33862,0.0297635,0.0294424,-0.0229962,18,-0.00186008,10,-6.77065e-07,-4.63834,-0.0286033,-2.0627,1.80783,0.0294424,
2,0,0,1,0,33869.5,0.0372544,0.0369013,-0.00969524,18,-0.00189468,10,-3.57767e-07,-5.01344,-0.0127049,-4.64389,1.56972,0.0369013,
2,1,0,1,0,33877,0.0447454,0.0444302,0.00205795,18,-0.00183784,10,9.14354e-08,-5.68656,0.0063262,9.3263,1.49876,0.0444302,
2,1,0,1,0,33884.5,0.0522363,0.0519113,0.0124379,18,-0.00169681,10,6.45669e-07,-4.90525,0.0221617,2.66225,1.25513,0.0519113,
2,1,0,1,0,33891.9,0.0597273,0.0593766,0.0217722,18,-0.00148375,10,1.29276e-06,-4.6621,0.0461045,1.2797,1.05154,0.0593766,
2,1,0,1,0,33899.4,0.0672183,0.0668822,0.0302019,18,-0.00120419,10,2.01997e-06,-4.51997,0.0665671,0.886324,1.01999,0.06688223,
2,1,0,1,0,33906.9,0.0747092,0.0743899,0.0370066,18,-0.000866516,10,2.75292e-06,-4.43172,0.0971451,0.607339,0.883923,0.0743899,
2,1,0,1,0,33914.4,0.0822001,0.0818752,0.0438763,18,-0.000472783,10,3.59238e-06,-4.35777,0.122606,0.481215,0.827883,0.0818752,
2,1,0,1,0,33921.9,0.0896911,0.0893469,0.0525256,18,-2.34365e-05,10,4.693e-06,-4.27963,0.088391,0.667489,1.37895,0.0893469,
2,1,0,1,0,33929.4,0.0971821,0.0968058,0.0632722,18,0.000499948,10,6.12511e-06,-4.19879,0.09642,0.611906,1.50223,0.0968058,
2,1,0,1,0,33936.9,0.104673,0.104338,0.0741998,18,0.00110192,10,7.74185e-06,-4.1296,0.128315,0.459806,1.31065,0.104338,
2,1,0,1,0,33944.4,0.112164,0.111812,0.0828888,18,0.00178032,10,9.26793e-06,-4.0815,0.264688,0.222904,0.716727,0.111812,
2,1,0,1,0,33951.9,0.119655,0.119304,0.0906792,18,0.002522,10,1.08184e-05,-4.04249,0.222016,0.265747,0.941407,0.119304,
2,1,0,1,0,33959.4,0.127146,0.126796,0.0971626,18,0.00332374,10,1.23199e-05,-4.0125,0.348839,0.169132,0.645464,0.126796,
2,1,0,1,0,33966.9,0.134637,0.134331,0.0965584,18,0.00415484,10,1.29708e-05,-4.01521,-0.213484,-0.276368,-1.04438,0.134331,
2,1,0,1,0,33974.3,0.142128,0.141815,0.0825157,18,0.00492377,10,1.17019e-05,-4.08346,-0.0728933,-0.809402,-2.57019,0.141815,
2,1,0,1,0,33981.8,0.149619,0.149304,0.0634392,18,0.0055503,10,9.47175e-06,-4.19764,-0.0814782,-0.72412,-1.80064,0.149304,
2,1,0,1,0,33989.3,0.15711,0.15675,0.054532,18,0.00607045,10,8.54787e-06,-4.26335,-0.143891,-0.410032,-0.865275,0.15675,
2,1,0,1,0,33996.8,0.164601,0.164275,0.0512151,18,0.00654237,10,8.41338e-06,-4.2906,-1.24245,-0.0474869,-0.0949445,0.164275,
2,1,0,1,0,34004.3,0.172091,0.17179,0.0503483,18,0.0070024,10,8.64934e-06,-4.29802,-1.31817,-0.044759,-0.0882423,0.17179,
2,1,0,1,0,34011.8,0.179582,0.179248,0.0500273,18,0.00745847,10,8.96729e-06,-4.30079,-3.74052,-0.0157732,-0.0306748,0.179248,
2,1,0,1,0,34019.3,0.187073,0.186751,0.0506182,18,0.00791394,10,9.45299e-06,-4.29569,-1.46677,-0.0402245,-0.0790603,0.186751,
2,1,0,1,0,34026.8,0.194564,0.194216,0.0509698,18,0.00837225,10,9.89914e-06,-4.29269,1.68724,0.0349684,0.0699951,0.194216,
2,1,0,1,0,34034.3,0.202055,0.201739,0.0524761,18,0.00883514,10,1.05865e-05,-4.28004,2.08405,0.0283103,0.0568681,0.201739,
2,1,0,1,0,34041.8,0.209546,0.209278,0.0523873,18,0.00930089,10,1.09635e-05,-4.28077,0.955707,0.0617344,0.126481,0.209278,
2,1,0,1,0,34049.3,0.217037,0.216755,0.0535447,18,0.00977327,10,1.16061e-05,-4.27128,1.05201,0.056083,0.117494,0.216755,
2,1,0,1,0,34056.8,0.224528,0.224203,0.0539849,18,0.0102516,10,1.21036e-05,-4.26773,2.03398,0.0290071,0.061416,0.224203,
2,1,0,1,0,34064.2,0.232019,0.231699,0.0550096,18,0.0107366,10,1.27457e-05,-4.25956,4.31608,0.0136698,0.0295265,0.231699,
2,1,0,1,0,34071.7,0.23951,0.239213,0.0561796,18,0.0112274,10,1.34389e-05,-4.25042,0.551061,0.107066,0.234504,0.239213,
2,1,0,1,0,34079.2,0.247001,0.246637,0.0574184,18,0.0117257,10,1.41615e-05,-4.24095,1.86498,0.0316357,0.070702,0.246637,
2,1,0,1,0,34086.7,0.254492,0.254175,0.0578196,18,0.0122291,10,1.46963e-05,-4.23792,0.98508,0.0598936,0.135761,0.254175,
2,1,0,1,0,34094.2,0.261983,0.261666,0.0592792,18,0.0127404,10,1.55114e-05,-4.2271,-79.9509,-0.000737953,-0.00170435,0.261666,
2,1,0,1,0,34101.7,0.269474,0.269166,0.0600682,18,0.0132577,10,1.61683e-05,-4.22136,0.573099,0.102949,0.240792,0.269166,
2,1,0,1,0,34109.2,0.276965,0.276682,0.0613335,18,0.0137826,10,1.69699e-05,-4.2123,-3.41238,-0.01729,-0.0415157,0.2766825,
2,1,0,1,0,34116.7,0.284456,0.284114,0.0615538,18,0.0143122,10,1.74883e-05,-4.21075,1.03605,0.0569471,0.136963,0.284114,
2,1,0,1,0,34124.2,0.291947,0.291632,0.0624688,18,0.0148467,10,1.82179e-05,-4.20434,-2.28814,-0.0257852,-0.0629151,0.291632,
2,1,0,1,0,34131.7,0.299438,0.299164,0.0632747,18,0.0153842,10,1.89295e-05,-4.19877,-0.00461509,-12.7842,-20.6406,0.299164,
2,1,0,1,0,34138.5,0.293745,0.293424,0.00939676,18,0.0154785,10,2.75724e-06,-5.02702,0.0148672,3.96847,1.51009,0.293424,
2,1,0,1,0,34146,0.286254,0.285954,0.00149419,18,0.0154483,10,4.2727e-07,-5.82559,0.00321145,18.3717,0.816977,0.285954,
2,1,0,1,0,34153.5,0.278763,0.278448,-0.00463408,18,0.0153682,10,-1.29035e-06,-5.33404,-0.0139271,-4.23635,0.706464,0.2784481,
2,0,0,1,0,34161,0.271272,0.270926,-0.00874433,18,0.0152486,10,-2.36906e-06,-5.05827,-0.0356586,-1.65458,0.585891,0.270926,
2,0,0,1,0,34168.5,0.263781,0.263458,-0.0130638,18,0.0150974,10,-3.44177e-06,-4.88393,-0.0455338,-1.29574,0.647517,0.263458,
2,0,0,1,0,34176,0.25629,0.256003,-0.0165006,18,0.0149173,10,-4.22421e-06,-4.7825,-0.10613,-0.555921,0.354513,0.2560035,
2,0,0,1,0,34183.4,0.248799,0.24845,-0.019575,18,0.0147136,10,-4.86341e-06,-4.7083,-0.0944716,-0.624527,0.472057,0.24845,
2,0,0,1,0,34190.9,0.241308,0.240995,-0.0223943,18,0.0144852,10,-5.3969e-06,-4.64986,-0.189028,-0.312122,0.271555,0.240995,
2,0,0,1,0,34198.4,0.233817,0.233507,-0.0252126,18,0.014235,10,-5.88731e-06,-4.59838,-0.208938,-0.282381,0.275214,0.233507,
2,0,0,1,0,34205.9,0.226326,0.226033,-0.0275403,18,0.0139646,10,-6.22503e-06,-4.56003,-0.157519,-0.374559,0.407223,0.226033,
2,0,0,1,0,34213.4,0.218835,0.218508,-0.0312998,18,0.0136717,10,-6.83925e-06,-4.50446,-0.194405,-0.303489,0.366454,0.218508,
2,0,0,1,0,34220.9,0.211344,0.211024,-0.0333262,18,0.0133571,10,-7.03264e-06,-4.47721,-0.192267,-0.306866,0.402096,0.211024,
2,0,0,1,0,34228.4,0.203853,0.203487,-0.0362496,18,0.0130198,10,-7.37631e-06,-4.4407,-0.17858,-0.330384,0.471156,0.2034869,
2,0,0,1,0,34235.9,0.196362,0.196051,-0.0393716,18,0.0126598,10,-7.71885e-06,-4.40482,-0.227341,-0.259522,0.399178,0.1960513,
2,0,0,1,0,34243.4,0.188871,0.188514,-0.0425205,18,0.0122762,10,-8.0157e-06,-4.3714,-0.165719,-0.356025,0.589663,0.188514,
2,0,0,1,0,34250.9,0.18138,0.181075,-0.0463733,18,0.0118663,10,-8.39705e-06,-4.33373,-0.196643,-0.300036,0.541239,0.181075,
2,0,0,1,0,34258.4,0.173889,0.173551,-0.0508188,18,0.0114243,10,-8.81964e-06,-4.29398,-0.22549,-0.261652,0.517822,0.173551,
2,0,0,1,0,34265.8,0.166398,0.166077,-0.0554355,18,0.0109474,10,-9.20654e-06,-4.25621,-0.184124,-0.320437,0.69558,0.166077,
2,0,0,1,0,34273.3,0.158907,0.158578,-0.0617724,18,0.0104268,10,-9.79572e-06,-4.20921,-0.125134,-0.471493,1.14773,0.158578,
2,0,0,1,0,34280.8,0.151417,0.151073,-0.0723272,18,0.00984251,10,-1.09267e-05,-4.1407,-0.0998445,-0.590919,1.65828,0.151073,
2,0,0,1,0,34288.3,0.143926,0.14359,-0.0875349,18,0.00916271,10,-1.25691e-05,-4.05782,-0.0724101,-0.814803,2.78147,0.14359,
2,0,0,1,0,34295.8,0.136435,0.136137,-0.110633,18,0.00833486,10,-1.50613e-05,-3.95612,-0.0793042,-0.743971,3.19791,0.136137,
2,0,0,1,0,34303.3,0.128944,0.128662,-0.132079,18,0.00732973,10,-1.69936e-05,-3.87917,-0.150619,-0.391717,2.01094,0.128662,
2,0,0,1,0,34310.8,0.121453,0.121135,-0.142307,18,0.00620362,10,-1.72383e-05,-3.84677,-0.571964,-0.103153,0.571395,0.121135,
2,0,0,1,0,34318.3,0.113962,0.113671,-0.142314,18,0.00503916,10,-1.61769e-05,-3.84675,1.22633,0.0481112,-0.268476,0.113671,
2,0,0,1,0,34325.8,0.106471,0.106104,-0.142075,18,0.00388053,10,-1.50748e-05,-3.84748,4.27203,0.0138108,-0.0767205,0.106104,
2,0,0,1,0,34333.3,0.0989798,0.0986604,-0.139506,18,0.0027336,10,-1.37638e-05,-3.85541,0.791983,0.0744966,-0.404079,0.0986604,
2,0,0,1,0,34340.8,0.0914889,0.0911326,-0.135062,18,0.00161396,10,-1.23085e-05,-3.86947,0.565102,0.104406,-0.549864,0.0911326,
2,0,0,1,0,34348.2,0.083998,0.0836303,-0.129889,18,0.000532727,10,-1.08626e-05,-3.88643,0.38056,0.155035,-0.784879,0.0836303,
2,0,0,1,0,34355.7,0.076507,0.0761565,-0.12588,18,-0.000514041,10,-9.58655e-06,-3.90004,0.451502,0.130675,-0.640101,0.0761565,
2,0,0,1,0,34363.2,0.069016,0.0687092,-0.121825,18,-0.00152946,10,-8.37049e-06,-3.91426,0.913911,0.0645577,-0.30845,0.06870921,
2,0,0,1,0,34370.7,0.0615251,0.06119,-0.119211,18,-0.00252144,10,-7.29455e-06,-3.92368,0.814059,0.0724763,-0.336049,0.06119,
2,0,0,1,0,34378.2,0.0540342,0.0537364,-0.116178,18,-0.00349173,10,-6.243e-06,-3.93488,0.867,0.0680507,-0.308173,0.0537364,
2,0,0,1,0,34385.7,0.0465432,0.0461756,-0.11345,18,-0.00444154,10,-5.23863e-06,-3.9452,0.62808,0.0939371,-0.416422,0.0461756,
2,0,0,1,0,34393.2,0.0390522,0.0387167,-0.111037,18,-0.00536969,10,-4.29899e-06,-3.95453,0.852893,0.0691763,-0.299194,0.0387167,
2,0,0,1,0,34400.7,0.0315613,0.0312568,-0.108271,18,-0.00627596,10,-3.38421e-06,-3.96549,0.679867,0.0867817,-0.36757,0.03125678,
2,0,0,1,0,34408.2,0.0240703,0.0237618,-0.106573,18,-0.00716452,10,-2.53237e-06,-3.97235,1.74095,0.0338895,-0.140867,0.0237618,
2,0,0,1,0,34415.7,0.0165794,0.0162414,-0.105981,18,-0.00804354,10,-1.72128e-06,-3.97477,12.1987,0.0048366,-0.0199532,0.0162414,
2,0,0,1,0,34423.2,0.00908843,0.00872521,-0.106906,18,-0.00892086,10,-9.32775e-07,-3.971,-0.995434,-0.0592706,0.24703,0.008725212,
2,0,0,1,0,34430.6,0.00159744,0.00121009,-0.10936,18,-0.00981389,10,-1.32336e-07,-3.96114, , , ,0.00121009,
2,0,0,1,0,34432,0.000199235,-0.000214582,-0.11021,18,-0.00998297,10,2.36492e-08,-3.95778, , , ,-0.000214582,

File: 20221101_1-115_003_TrumpetPlot_ParaChange_from10_every3_02_CV_C01_18.csv
mode,ox/red,error,control changes,counter inc.,time/s,control/V,Ewe/V,<I>/mA,cycle number,(Q-Qo)/C,I Range,P/W,log(|I|),Tafel slope mV/dec,alpha_eff,dI/d(E-IR),E-IR/V,
2,0,0,1,0,35802.4,2.44065e-05,-0.000325324,-0.383064,19,0.0000000E+000,10,1.2462e-07,-3.41673, , , ,-0.000325324,
2,0,0,1,0,35809.6,0.00729061,0.00695119,-0.0948758,19,-0.000953704,10,-6.595e-07,-4.02284,-0.0304524,-1.93745,7.3069,0.00695119,
2,0,0,1,0,35817.1,0.0147815,0.0144917,-0.0589732,19,-0.00143527,10,-8.5462e-07,-4.22935,-0.0387299,-1.52337,3.5188,0.0144917,
2,0,0,1,0,35824.6,0.0222725,0.0219411,-0.0378092,19,-0.00171331,10,-8.29573e-07,-4.4224,-0.0399952,-1.47518,2.19523,0.0219411,
2,0,0,1,0,35832.1,0.0297635,0.0294584,-0.0223414,19,-0.00185952,10,-6.58141e-07,-4.65089,-0.0279391,-2.11173,1.81371,0.0294584,
2,0,0,1,0,35839.6,0.0372544,0.0369586,-0.0102799,19,-0.00190198,10,-3.79929e-07,-4.98801,-0.0118619,-4.97391,1.89042,0.03695856,
2,1,0,1,0,35847.1,0.0447454,0.0444048,0.00193933,19,-0.00184984,10,8.61155e-08,-5.71235,0.00833582,7.07789,1.40887,0.04440476,
2,1,0,1,0,35854.6,0.0522363,0.0519198,0.0118672,19,-0.00171368,10,6.16144e-07,-4.92565,0.0189088,3.12024,1.39599,0.0519198,
2,1,0,1,0,35862.1,0.0597273,0.0593565,0.0215873,19,-0.00150333,10,1.28134e-06,-4.6658,0.0393785,1.49828,1.22265,0.0593565,
2,1,0,1,0,35869.6,0.0672183,0.0668992,0.0300946,19,-0.00122644,10,2.0133e-06,-4.52151,0.0794271,0.74282,0.854862,0.0668992,
2,1,0,1,0,35877.1,0.0747092,0.074374,0.0369342,19,-0.000891105,10,2.74694e-06,-4.43257,0.0966322,0.610563,0.888285,0.074374,
2,1,0,1,0,35884.6,0.0822001,0.0818953,0.0439629,19,-0.000499176,10,3.60036e-06,-4.35691,0.109476,0.53893,0.932392,0.0818953,
2,1,0,1,0,35892,0.0896911,0.0893479,0.0529254,19,-5.01613e-05,10,4.72878e-06,-4.27634,0.0987992,0.597171,1.23536,0.0893479,
2,1,0,1,0,35899.5,0.0971821,0.0968398,0.0626617,19,0.000469665,10,6.06815e-06,-4.203,0.0892935,0.660743,1.61146,0.0968398,
2,1,0,1,0,35907,0.104673,0.104354,0.0742496,19,0.00106809,10,7.74822e-06,-4.12931,0.135378,0.435817,1.24698,0.104354,
2,1,0,1,0,35914.5,0.112164,0.11181,0.0827087,19,0.00174292,10,9.2477e-06,-4.08245,0.226888,0.26004,0.838069,0.1118105,
2,1,0,1,0,35922,0.119655,0.119303,0.0914165,19,0.00248458,10,1.09063e-05,-4.03898,0.246321,0.239525,0.854505,0.119303,
2,1,0,1,0,35929.5,0.127146,0.126834,0.0972367,19,0.00328576,10,1.2333e-05,-4.01217,0.298165,0.197877,0.754844,0.126834,
2,1,0,1,0,35937,0.134637,0.134292,0.0971963,19,0.00411485,10,1.30527e-05,-4.01235,-0.227861,-0.25893,-0.978609,0.1342922,
2,1,0,1,0,35944.5,0.142128,0.141791,0.0813576,19,0.00487922,10,1.15358e-05,-4.0896,-0.073873,-0.798668,-2.52661,0.141791,
2,1,0,1,0,35952,0.149619,0.149327,0.0629924,19,0.00550164,10,9.40645e-06,-4.20071,-0.0821804,-0.717932,-1.77785,0.149327,
2,1,0,1,0,35959.5,0.15711,0.156792,0.0542132,19,0.00601813,10,8.5002e-06,-4.26589,-0.160458,-0.367697,-0.781527,0.156792,
2,1,0,1,0,35967,0.164601,0.164296,0.0513212,19,0.00649007,10,8.43189e-06,-4.2897,-0.58426,-0.100982,-0.201201,0.1642964,
2,1,0,1,0,35974.4,0.172091,0.171724,0.0504435,19,0.0069493,10,8.66238e-06,-4.29719,-0.532632,-0.110771,-0.219584,0.171724,
2,1,0,1,0,35981.9,0.179582,0.179247,0.0498098,19,0.00740328,10,8.92826e-06,-4.30269,2.14511,0.0275044,0.0538742,0.179247,
2,1,0,1,0,35989.4,0.187073,0.186779,0.050252,19,0.00785511,10,9.38603e-06,-4.29885,0.662402,0.0890698,0.174849,0.1867792,
2,1,0,1,0,35996.9,0.194564,0.194249,0.051091,19,0.00831052,10,9.92435e-06,-4.29166,0.690885,0.0853977,0.170352,0.194249,
2,1,0,1,0,36004.4,0.202055,0.201774,0.0512926,19,0.00877171,10,1.03495e-05,-4.28995,1.49854,0.0393717,0.0794584,0.2017744,
2,1,0,1,0,36011.9,0.209546,0.209228,0.0522191,19,0.00923384,10,1.09257e-05,-4.28217,0.487719,0.120971,0.24585,0.2092279,
2,1,0,1,0,36019.4,0.217037,0.21671,0.0528576,19,0.00970256,10,1.14548e-05,-4.27689,0.555308,0.106247,0.220827,0.21671,
2,1,0,1,0,36026.9,0.224528,0.224218,0.0546233,19,0.010179,10,1.22475e-05,-4.26262,0.81524,0.0723713,0.153272,0.224218,
2,1,0,1,0,36034.4,0.232019,0.231752,0.0551802,19,0.0106634,10,1.27881e-05,-4.25822,0.762406,0.0773866,0.167197,0.231752,
2,1,0,1,0,36041.9,0.23951,0.239166,0.0563123,19,0.0111544,10,1.3468e-05,-4.2494,1.28088,0.0460621,0.101297,0.239166,
2,1,0,1,0,36049.4,0.247001,0.246721,0.0572211,19,0.0116527,10,1.41176e-05,-4.24244,1.45472,0.0405575,0.0909946,0.246721,
2,1,0,1,0,36056.8,0.254492,0.254144,0.0581847,19,0.012157,10,1.47873e-05,-4.23519,0.352828,0.16722,0.38138,0.254144,
2,1,0,1,0,36064.3,0.261983,0.261663,0.0592064,19,0.0126701,10,1.54921e-05,-4.22763,0.808945,0.0729345,0.168817,0.2616629,
2,1,0,1,0,36071.8,0.269474,0.269188,0.060664,19,0.0131873,10,1.633e-05,-4.21707,0.384468,0.153459,0.359271,0.2691876,
2,1,0,1,0,36079.3,0.276965,0.276663,0.0605792,19,0.0137119,10,1.676e-05,-4.21768,1.20886,0.0488065,0.116943,0.276663,
2,1,0,1,0,36086.8,0.284456,0.284133,0.0620317,19,0.0142399,10,1.76253e-05,-4.20739,0.562963,0.104803,0.251818,0.284133,
2,1,0,1,0,36094.3,0.291947,0.291663,0.0628197,19,0.0147753,10,1.83222e-05,-4.2019,1.35206,0.0436371,0.107103,0.291663,
2,1,0,1,0,36101.8,0.299438,0.299173,0.0635684,19,0.0153152,10,1.90179e-05,-4.19676,-0.00459315,-12.8452,-20.7246,0.2991727,
2,1,0,1,0,36108.6,0.293745,0.293447,0.00939691,19,0.015408,10,2.75749e-06,-5.02701,0.0138107,4.27205,1.56209,0.293447,
2,1,0,1,0,36116.1,0.286254,0.285959,0.00148084,19,0.0153781,10,4.23459e-07,-5.82949,0.00612658,9.63017,0.886577,0.285959,
2,0,0,1,0,36123.6,0.278763,0.278453,-0.0044614,19,0.0152961,10,-1.24229e-06,-5.35053,-0.014266,-4.13569,0.71395,0.278453,
2,0,0,1,0,36131.1,0.271272,0.270961,-0.00900551,19,0.0151759,10,-2.44014e-06,-5.04549,-0.0420624,-1.40268,0.494641,0.2709606,
2,0,0,1,0,36138.6,0.263781,0.26344,-0.012925,19,0.0150223,10,-3.40498e-06,-4.88857,-0.0539233,-1.09415,0.569056,0.26344,
2,0,0,1,0,36146.1,0.25629,0.255963,-0.0167861,19,0.0148415,10,-4.29663e-06,-4.77505,-0.0749432,-0.787263,0.511444,0.255963,
2,0,0,1,0,36153.6,0.248799,0.248471,-0.0200462,19,0.0146321,10,-4.9809e-06,-4.69797,-0.103701,-0.568944,0.449209,0.248471,
2,0,0,1,0,36161.1,0.241308,0.241029,-0.0232985,19,0.0143978,10,-5.61562e-06,-4.63267,-0.182894,-0.322591,0.293011,0.241029,
2,0,0,1,0,36168.6,0.233817,0.233521,-0.0262887,19,0.0141408,10,-6.13895e-06,-4.58023,-0.164767,-0.358081,0.365213,0.233521,
2,0,0,1,0,36176.1,0.226326,0.226005,-0.0290822,19,0.0138622,10,-6.5727e-06,-4.53637,-0.138166,-0.427022,0.480347,0.226005,
2,0,0,1,0,36183.5,0.218835,0.21854,-0.0311126,19,0.0135623,10,-6.79935e-06,-4.50706,-0.308624,-0.191171,0.234521,0.21854,
2,0,0,1,0,36191,0.211344,0.210996,-0.0341015,19,0.0132427,10,-7.19526e-06,-4.46723,-0.244061,-0.241743,0.322425,0.210996,
2,0,0,1,0,36198.5,0.203853,0.203505,-0.0372045,19,0.0128989,10,-7.57129e-06,-4.42941,-0.270363,-0.218225,0.316126,0.203505,
2,0,0,1,0,36206,0.196362,0.19606,-0.0401274,19,0.0125352,10,-7.86737e-06,-4.39656,-0.240815,-0.245002,0.382798,0.19606,
2,0,0,1,0,36213.5,0.188871,0.188505,-0.0428015,19,0.0121477,10,-8.06832e-06,-4.36854,-0.259837,-0.227066,0.38111,0.188505,
2,0,0,1,0,36221,0.18138,0.181081,-0.0476808,19,0.0117337,10,-8.63406e-06,-4.32166,-0.221612,-0.266231,0.49125,0.181081,
2,0,0,1,0,36228.5,0.173889,0.173577,-0.0516967,19,0.0112888,10,-8.97336e-06,-4.28654,-0.202102,-0.291932,0.589268,0.173577,
2,0,0,1,0,36236,0.166398,0.166049,-0.0562496,19,0.0108088,10,-9.3402e-06,-4.24988,-0.204814,-0.288066,0.637255,0.1660492,
2,0,0,1,0,36243.5,0.158907,0.158581,-0.0631839,19,0.0102844,10,-1.00198e-05,-4.19939,-0.136956,-0.430795,1.05734,0.158581,
2,0,0,1,0,36251,0.151417,0.151084,-0.0727827,19,0.00969812,10,-1.09963e-05,-4.13797,-0.116618,-0.505927,1.43196,0.151084,
2,0,0,1,0,36258.5,0.143926,0.143588,-0.0878639,19,0.00901962,10,-1.26162e-05,-4.05619,-0.0724055,-0.814856,2.7937,0.143588,
2,0,0,1,0,36265.9,0.136435,0.136097,-0.110612,19,0.00819252,10,-1.50539e-05,-3.9562,-0.0780942,-0.755498,3.25492,0.136097,
2,0,0,1,0,36273.4,0.128944,0.128632,-0.132317,19,0.00718884,10,-1.70202e-05,-3.87838,-0.146799,-0.401911,2.06788,0.1286317,
2,0,0,1,0,36280.9,0.121453,0.12113,-0.143272,19,0.006063,10,-1.73546e-05,-3.84384,-0.678966,-0.0868969,0.482502,0.12113,
2,0,0,1,0,36288.4,0.113962,0.113607,-0.143012,19,0.00489902,10,-1.62472e-05,-3.84463,9.48291,0.00622172,-0.0349594,0.113607,
2,0,0,1,0,36295.9,0.106471,0.106182,-0.142529,19,0.003738,10,-1.5134e-05,-3.8461,40.7415,0.00144816,-0.00810557,0.1061819,
2,0,0,1,0,36303.4,0.0989798,0.0986551,-0.140006,19,0.00258879,10,-1.38123e-05,-3.85385,0.762587,0.0773682,-0.422657,0.0986551,
2,0,0,1,0,36310.9,0.0914889,0.0911157,-0.136138,19,0.00146922,10,-1.24044e-05,-3.86602,0.435095,0.135603,-0.719583,0.0911157,
2,0,0,1,0,36318.4,0.083998,0.083678,-0.130622,19,0.000386245,10,-1.09302e-05,-3.88398,0.311326,0.189512,-0.965656,0.083678,
2,0,0,1,0,36325.9,0.076507,0.0761777,-0.125973,19,-0.000659793,10,-9.59632e-06,-3.89972,0.691089,0.0853725,-0.420539,0.0761777,
2,0,0,1,0,36333.4,0.069016,0.0687145,-0.122659,19,-0.00167577,10,-8.42843e-06,-3.9113,0.867802,0.0679879,-0.326482,0.0687145,
2,0,0,1,0,36340.9,0.0615251,0.0611953,-0.11987,19,-0.00266733,10,-7.33548e-06,-3.92129,0.64871,0.0909497,-0.426266,0.0611953,
2,0,0,1,0,36348.3,0.0540342,0.0536929,-0.117714,19,-0.00363768,10,-6.32038e-06,-3.92917,0.9299,0.0634477,-0.29037,0.0536929,
2,0,0,1,0,36355.8,0.0465432,0.0462128,-0.114299,19,-0.00458844,10,-5.28209e-06,-3.94196,0.592293,0.0996128,-0.445009,0.0462128,
2,0,0,1,0,36363.3,0.0390522,0.0387188,-0.111431,19,-0.00551663,10,-4.31447e-06,-3.95299,0.681324,0.0865961,-0.376585,0.0387188,
2,0,0,1,0,36370.8,0.0315613,0.0312313,-0.10865,19,-0.00642274,10,-3.39329e-06,-3.96397,2.47571,0.0238316,-0.101391,0.03123129,
2,0,0,1,0,36378.3,0.0240703,0.0237311,-0.106771,19,-0.00731085,10,-2.53378e-06,-3.97155,0.870948,0.0677423,-0.282806,0.0237311,
2,0,0,1,0,36385.8,0.0165794,0.0162733,-0.10704,19,-0.00818942,10,-1.7419e-06,-3.97045,-6.55196,-0.00900493,0.0374455,0.0162733,
2,0,0,1,0,36393.3,0.00908843,0.00881534,-0.107552,19,-0.00906834,10,-9.48106e-07,-3.96838,-1.48173,-0.0398184,0.167035,0.00881534,
2,0,0,1,0,36400.8,0.00159744,0.00119207,-0.110693,19,-0.00996408,10,-1.31954e-07,-3.95588, , , ,0.00119207,
2,0,0,1,0,36402.2,0.000199235,-0.000155372,-0.111199,19,-0.0101334,10,1.72771e-08,-3.9539, , , ,-0.000155372,