Folder: Figs_alphaMnO2_OER_Tafel_sleope/Figure_codes/Fig_3-5/rawdata_trumpetplot_data/after 10th (part 90)

File: 20221101_1-115_003_TrumpetPlot_ParaChange_from10_every3_07_CV_C01_6.csv
mode,ox/red,error,control changes,counter inc.,time/s,control/V,Ewe/V,<I>/mA,cycle number,(Q-Qo)/C,I Range,P/W,log(|I|),Tafel slope mV/dec,alpha_eff,dI/d(E-IR),E-IR/V,
2,0,0,0,0,12985.8,2.44065e-05,-0.000248974,-2.75546,7,0.0000000E+000,10,6.86039e-07,-2.55981, , , ,-0.000248974,
2,1,0,1,0,12985.9,0.007288,0.00697708,1.47751,7,2.30639e-05,10,1.03087e-05,-2.83047,0.017758,3.32244,178.36,0.00697708,
2,1,0,1,0,12986,0.0147816,0.0143977,2.19381,7,0.000262625,10,3.15858e-05,-2.6588,0.0809901,0.728484,62.2337,0.0143977,
2,1,0,1,0,12986.2,0.0222712,0.0219457,2.55859,7,0.000563016,10,5.615e-05,-2.592,0.15171,0.3889,38.7766,0.0219457,
2,1,0,1,0,12986.3,0.0297648,0.029472,2.85454,7,0.000903003,10,8.4129e-05,-2.54446,0.182487,0.323311,35.8674,0.029472,
2,1,0,1,0,12986.4,0.0372518,0.0369515,3.12692,7,0.001278,10,0.000115544,-2.50488,0.188864,0.312394,38.1213,0.0369515,
2,1,0,1,0,12986.5,0.0447467,0.0444373,3.39414,7,0.00168752,10,0.000150826,-2.46927,0.2189,0.269529,35.7635,0.0444373,
2,1,0,1,0,12986.7,0.052235,0.0518963,3.65499,7,0.00212966,10,0.00018968,-2.43711,0.246581,0.239272,34.1418,0.0518963,
2,1,0,1,0,12986.8,0.0597299,0.0594351,3.90624,7,0.00260378,10,0.000232167,-2.40824,0.272317,0.216659,32.9498,0.0594351,
2,1,0,1,0,12986.9,0.0672156,0.0669396,4.13234,7,0.00310677,10,0.000276618,-2.3838,0.287222,0.205416,33.0663,0.0669396,
2,1,0,1,0,12987,0.0747105,0.074368,4.32909,7,0.00363738,10,0.000321946,-2.3636,0.391928,0.150538,25.4577,0.074368,
2,1,0,1,0,12987.2,0.0821988,0.0818915,4.51204,7,0.00419162,10,0.000369498,-2.34563,0.526417,0.112078,19.7508,0.0818915,
2,1,0,1,0,12987.3,0.0896937,0.0893896,4.69977,7,0.00476859,10,0.00042011,-2.32792,0.438497,0.13455,24.6725,0.0893896,
2,1,0,1,0,12987.4,0.0971794,0.0968773,4.93196,7,0.00537045,10,0.000477795,-2.30698,0.279768,0.210889,40.6152,0.0968773,
2,1,0,1,0,12987.5,0.104674,0.104381,5.27136,7,0.006009,10,0.00055023,-2.27808,0.221133,0.266807,55.0156,0.104381,
2,1,0,1,0,12987.7,0.112163,0.111868,5.71641,7,0.00669664,10,0.000639481,-2.24288,0.230605,0.255849,57.0194,0.111868,
2,1,0,1,0,12987.8,0.119657,0.119339,6.13017,7,0.00743864,10,0.000731569,-2.21253,0.309034,0.190917,45.5609,0.119339,
2,1,0,1,0,12987.9,0.127143,0.12684,6.41219,7,0.00822414,10,0.000813321,-2.19299,0.422589,0.139615,34.9543,0.12684,
2,1,0,1,0,12988,0.134638,0.134324,6.64885,7,0.00904277,10,0.0008931,-2.17725,0.573976,0.102792,26.6976,0.134324,
2,1,0,1,0,12988.2,0.142126,0.141822,6.79099,7,0.00988589,10,0.000963113,-2.16807,-19.6879,-0.00299676,-0.792676,0.141822,
2,1,0,1,0,12988.3,0.149621,0.149288,6.506,7,0.0107247,10,0.00097127,-2.18669,-0.176718,-0.333865,-84.3019,0.149288,
2,1,0,1,0,12988.4,0.157107,0.156821,5.55273,7,0.0114837,10,0.000870783,-2.25549,-0.0854504,-0.690459,-149.119,0.1568208,
2,1,0,1,0,12988.5,0.164602,0.16428,4.46246,7,0.0121082,10,0.000733095,-2.35043,-0.0822864,-0.717008,-125.222,0.16428,
2,1,0,1,0,12988.7,0.17209,0.171809,3.74287,7,0.0126187,10,0.00064306,-2.42679,-0.117543,-0.501942,-73.618,0.171809,
2,1,0,1,0,12988.8,0.179585,0.179213,3.32593,7,0.01306,10,0.000596052,-2.47809,-0.169792,-0.347483,-45.1138,0.179213,
2,1,0,1,0,12988.9,0.187072,0.186773,3.05623,7,0.0134588,10,0.00057082,-2.51481,-0.278666,-0.211723,-25.2645,0.186773,
2,1,0,1,0,12989,0.194566,0.194235,2.87604,7,0.0138309,10,0.000558628,-2.5412,-0.357349,-0.165105,-18.6109,0.194235,
2,1,0,1,0,12989.2,0.202055,0.201723,2.76603,7,0.0141851,10,0.000557971,-2.55814,-0.435412,-0.135504,-14.6327,0.201723,
2,1,0,1,0,12989.3,0.209549,0.209256,2.69355,7,0.0145275,10,0.00056364,-2.56968,-0.536569,-0.109958,-11.5304,0.2092557,
2,1,0,1,0,12989.4,0.217036,0.216735,2.62167,7,0.0148606,10,0.000568208,-2.58142,-0.993014,-0.0594151,-6.0941,0.216735,
2,1,0,1,0,12989.5,0.224529,0.224215,2.57538,7,0.0151875,10,0.000577439,-2.58916,-1.24164,-0.0475177,-4.79192,0.224215,
2,1,0,1,0,12989.7,0.232019,0.231734,2.5435,7,0.015509,10,0.000589415,-2.59457,-1.43898,-0.0410013,-4.07094,0.231734,
2,1,0,1,0,12989.8,0.239513,0.239159,2.52014,7,0.0158267,10,0.000602715,-2.59857,-2.42641,-0.0243158,-2.38293,0.239159,
2,1,0,1,0,12989.9,0.247001,0.246656,2.49136,7,0.0161406,10,0.000614509,-2.60356,-1.67066,-0.0353155,-3.42243,0.246656,
2,1,0,1,0,12990,0.254493,0.254209,2.46183,7,0.0164516,10,0.00062582,-2.60874,-1.47651,-0.0399592,-3.84636,0.254209,
2,1,0,1,0,12990.2,0.261983,0.261703,2.43902,7,0.0167594,10,0.000638299,-2.61279,-1.25051,-0.0471807,-4.49727,0.261703,
2,1,0,1,0,12990.3,0.269477,0.26917,2.41997,7,0.0170645,10,0.000651383,-2.61619,-2.59172,-0.0227648,-2.14491,0.26917,
2,1,0,1,0,12990.4,0.276965,0.27663,2.39181,7,0.0173667,10,0.000661648,-2.62127,-6.55292,-0.00900362,-0.840582,0.27663,
2,1,0,1,0,12990.5,0.284457,0.284173,2.367,7,0.0176662,10,0.000672637,-2.6258,-1.98493,-0.029724,-2.75144,0.284173,
2,1,0,1,0,12990.7,0.291947,0.291624,2.34779,7,0.0179624,10,0.000684674,-2.62934,-0.888689,-0.06639,-6.08437,0.291624,
2,1,0,1,0,12990.8,0.29944,0.299126,2.32404,7,0.0182559,10,0.000695182,-2.63376,-0.00586156,-10.0656,-655.293,0.299126,
2,0,0,1,0,12990.9,0.293742,0.293437,-0.577552,7,0.0182898,10,-0.000169475,-3.23841,-0.0129583,-4.55307,89.9559,0.293437,
2,0,0,1,0,12991,0.286254,0.28593,-0.913038,7,0.0181907,10,-0.000261065,-3.03951,-0.0684968,-0.861355,30.8943,0.28593,
2,0,0,1,0,12991.2,0.278761,0.278456,-1.09886,7,0.0180614,10,-0.000305983,-2.95906,-0.141929,-0.415699,17.8916,0.278456,
2,0,0,1,0,12991.3,0.271272,0.270937,-1.24005,7,0.0179131,10,-0.000335976,-2.90656,-0.178906,-0.329783,15.8508,0.270937,
2,0,0,1,0,12991.4,0.263778,0.263449,-1.34372,7,0.0177498,10,-0.000354003,-2.87169,-0.203739,-0.289587,15.1169,0.263449,
2,0,0,1,0,12991.5,0.25629,0.255996,-1.43135,7,0.0175745,10,-0.000366418,-2.84426,-0.308803,-0.19106,10.6803,0.255996,
2,0,0,1,0,12991.7,0.248797,0.248445,-1.51447,7,0.0173884,10,-0.000376261,-2.81974,-0.417289,-0.141389,8.36838,0.248445,
2,0,0,1,0,12991.8,0.241308,0.241007,-1.58713,7,0.0171928,10,-0.00038251,-2.79939,-0.415575,-0.141972,8.79263,0.241007,
2,0,0,1,0,12991.9,0.233814,0.233524,-1.6542,7,0.0169883,10,-0.000386295,-2.78141,-0.332415,-0.177489,11.46,0.233524,
2,0,0,1,0,12992,0.226326,0.226044,-1.7195,7,0.0167753,10,-0.000388683,-2.7646,-0.428037,-0.137839,9.281,0.226044,
2,0,0,1,0,12992.2,0.218834,0.218506,-1.78693,7,0.0165541,10,-0.000390454,-2.74789,-0.477157,-0.123649,8.62925,0.218506,
2,0,0,1,0,12992.3,0.211344,0.21107,-1.85578,7,0.0163248,10,-0.0003917,-2.73147,-0.690328,-0.0854666,6.17419,0.21107,
2,0,0,1,0,12992.4,0.203856,0.20351,-1.92074,7,0.0160871,10,-0.000390891,-2.71653,-0.479084,-0.123152,9.24548,0.20351,
2,0,0,1,0,12992.5,0.196362,0.196076,-1.98806,7,0.0158407,10,-0.000389811,-2.70157,-0.409791,-0.143976,11.2153,0.196076,
2,0,0,1,0,12992.7,0.18887,0.188529,-2.0704,7,0.0155846,10,-0.00039033,-2.68395,-0.435996,-0.135322,10.9775,0.188529,
2,0,0,1,0,12992.8,0.18138,0.181063,-2.17863,7,0.0153178,10,-0.000394469,-2.66182,-0.330439,-0.17855,15.1318,0.181063,
2,0,0,1,0,12992.9,0.173892,0.173566,-2.29378,7,0.0150375,10,-0.000398121,-2.63945,-0.263994,-0.22349,19.9775,0.1735658,
2,0,0,1,0,12993,0.166398,0.166062,-2.44763,7,0.0147399,10,-0.000406458,-2.61125,-0.238968,-0.246895,23.6455,0.166062,
2,0,0,1,0,12993.2,0.158905,0.158602,-2.67548,7,0.0144184,10,-0.000424335,-2.5726,-0.174053,-0.338977,35.5416,0.1586016,
2,0,0,1,0,12993.3,0.151417,0.151091,-3.04007,7,0.0140611,10,-0.000459328,-2.51712,-0.118381,-0.49839,59.1722,0.151091,
2,0,0,1,0,12993.4,0.143927,0.143599,-3.60544,7,0.0136473,10,-0.00051774,-2.44304,-0.0831681,-0.709406,99.9883,0.1435995,
2,0,0,1,0,12993.5,0.136435,0.136103,-4.43147,7,0.0131452,10,-0.000603136,-2.35345,-0.0842651,-0.700172,121.184,0.136103,
2,0,0,1,0,12993.7,0.128941,0.128647,-5.35859,7,0.012531,10,-0.000689368,-2.27095,-0.10594,-0.556918,116.367,0.128647,
2,0,0,1,0,12993.8,0.121453,0.12112,-6.1572,7,0.011808,10,-0.000745761,-2.21062,-0.164593,-0.35846,85.8578,0.12112,
2,0,0,1,0,12993.9,0.113963,0.113674,-6.66571,7,0.0110028,10,-0.000757721,-2.17615,-0.304747,-0.193603,50.2895,0.113674,
2,0,0,1,0,12994,0.106471,0.106176,-6.8945,7,0.0101507,10,-0.00073203,-2.1615,-1.12484,-0.0524518,14.1112,0.106176,
2,0,0,1,0,12994.2,0.0989825,0.098672,-6.85639,7,0.00928715,10,-0.000676534,-2.1639,0.702446,0.0839922,-22.4502,0.098672,
2,0,0,1,0,12994.3,0.0914889,0.0911571,-6.5985,7,0.00844326,10,-0.0006015,-2.18055,0.323961,0.182121,-46.8125,0.0911571,
2,0,0,1,0,12994.4,0.0839993,0.0837035,-6.23426,7,0.00764128,10,-0.000521829,-2.20522,0.319339,0.184757,-44.9088,0.0837035,
2,0,0,1,0,12994.5,0.076507,0.0761769,-5.92859,7,0.00688086,10,-0.000451622,-2.22705,0.418913,0.140841,-32.6345,0.0761769,
2,0,0,1,0,12994.6,0.0690187,0.068723,-5.72449,7,0.00615179,10,-0.000393405,-2.24226,0.516589,0.114211,-25.5504,0.068723,
2,0,0,1,0,12994.8,0.0615251,0.0612112,-5.57325,7,0.00544396,10,-0.000341145,-2.25389,0.579752,0.101768,-22.1342,0.0612112,
2,0,0,1,0,12994.9,0.0540355,0.0537214,-5.42433,7,0.00475612,10,-0.000291403,-2.26565,0.715079,0.0825084,-17.443,0.0537214,
2,0,0,1,0,12995,0.0465432,0.0462065,-5.25769,7,0.00408693,10,-0.00024294,-2.27921,0.606558,0.0972701,-19.9729,0.0462065,
2,0,0,1,0,12995.1,0.0390549,0.0386909,-5.08669,7,0.00343915,10,-0.000196809,-2.29356,0.411115,0.143512,-28.4476,0.03869091,
2,0,0,1,0,12995.3,0.0315613,0.031193,-4.88819,7,0.00281436,10,-0.000152477,-2.31085,0.365831,0.161277,-30.71,0.031193,
2,0,0,1,0,12995.4,0.0240717,0.0237082,-4.65624,7,0.00221674,10,-0.000110391,-2.33196,0.372031,0.158589,-28.8401,0.0237082,
2,0,0,1,0,12995.5,0.0165781,0.0162626,-4.44196,7,0.00164619,10,-7.22377e-05,-2.35242,0.389438,0.151501,-26.3213,0.0162626,
2,0,0,1,0,12995.6,0.00909108,0.00872734,-4.27512,7,0.00110024,10,-3.73104e-05,-2.36905,0.470666,0.125354,-20.9272,0.00872734,
2,0,0,1,0,12995.8,0.00159616,0.00126228,-4.19158,7,0.000571664,10,-5.29094e-06,-2.37762, , , ,0.00126228,
2,0,0,1,0,12995.8,0.000199195,-0.000147811,-4.16656,7,0.000473913,10,6.15866e-07,-2.38022, , , ,-0.000147811,

File: 20221101_1-115_003_TrumpetPlot_ParaChange_from10_every3_07_CV_C01_7.csv
mode,ox/red,error,control changes,counter inc.,time/s,control/V,Ewe/V,<I>/mA,cycle number,(Q-Qo)/C,I Range,P/W,log(|I|),Tafel slope mV/dec,alpha_eff,dI/d(E-IR),E-IR/V,
2,0,0,0,0,14955.9,2.44065e-05,-0.000344411,-2.72939,8,0.0000000E+000,10,9.4003e-07,-2.56394, , , ,-0.000344411,
2,1,0,1,0,14956.1,0.007288,0.00697281,1.60817,8,4.06174e-05,10,1.12135e-05,-2.79367,0.0206281,2.86018,168.903,0.00697281,
2,1,0,1,0,14956.2,0.0147816,0.0144692,2.26936,8,0.000292601,10,3.28358e-05,-2.6441,0.0912177,0.646805,57.1699,0.0144692,
2,1,0,1,0,14956.3,0.0222712,0.0219728,2.60458,8,0.0006004,10,5.72299e-05,-2.58426,0.16296,0.362053,36.7748,0.0219728,
2,1,0,1,0,14956.4,0.0297648,0.0294647,2.89285,8,0.000945656,10,8.52369e-05,-2.53867,0.191438,0.308193,34.6319,0.0294647,
2,1,0,1,0,14956.6,0.0372518,0.0369301,3.15695,8,0.00132491,10,0.000116587,-2.50073,0.196741,0.299887,36.9518,0.0369301,
2,1,0,1,0,14956.7,0.0447467,0.0444561,3.4194,8,0.00173816,10,0.000152013,-2.46605,0.225083,0.262125,35.0372,0.0444561,
2,1,0,1,0,14956.8,0.052235,0.0519257,3.67643,8,0.0021837,10,0.000190901,-2.43457,0.257601,0.229037,32.9179,0.0519257,
2,1,0,1,0,14956.9,0.0597299,0.0594408,3.92632,8,0.00266073,10,0.000233384,-2.40601,0.285916,0.206354,31.5499,0.0594408,
2,1,0,1,0,14957.1,0.0672156,0.0669437,4.14859,8,0.00316634,10,0.000277722,-2.3821,0.326416,0.180751,29.2231,0.0669437,
2,1,0,1,0,14957.2,0.0747105,0.0744082,4.33928,8,0.00369886,10,0.000322878,-2.36258,0.394798,0.149444,25.3415,0.0744082,
2,1,0,1,0,14957.3,0.0821988,0.0818807,4.51183,8,0.00425408,10,0.000369432,-2.34565,0.531098,0.111091,19.5885,0.0818807,
2,1,0,1,0,14957.4,0.0896937,0.0894152,4.70173,8,0.00483146,10,0.000420406,-2.32774,0.44304,0.133171,24.4148,0.0894152,
2,1,0,1,0,14957.6,0.0971794,0.0968831,4.93888,8,0.00543377,10,0.000478494,-2.30637,0.282749,0.208665,40.219,0.0968831,
2,1,0,1,0,14957.7,0.104674,0.104378,5.30222,8,0.00607398,10,0.000553433,-2.27554,0.206625,0.285541,59.1248,0.104378,
2,1,0,1,0,14957.8,0.112163,0.111841,5.74441,8,0.00676525,10,0.000642461,-2.24075,0.21877,0.269689,60.466,0.111841,
2,1,0,1,0,14957.9,0.119657,0.119388,6.15667,8,0.00751183,10,0.000735032,-2.21065,0.340013,0.173523,41.6372,0.119388,
2,1,0,1,0,14958,0.127143,0.126822,6.42943,8,0.00830048,10,0.000815392,-2.19183,0.493852,0.119469,29.9706,0.126822,
2,1,0,1,0,14958.2,0.134638,0.134319,6.64764,8,0.00912018,10,0.000892906,-2.17733,0.588819,0.100201,26.0033,0.134319,
2,1,0,1,0,14958.3,0.142126,0.141822,6.73717,8,0.00996054,10,0.000955481,-2.17152,-1.88619,-0.0312799,-8.20584,0.141822,
2,1,0,1,0,14958.4,0.149621,0.14926,6.34016,8,0.0107867,10,0.000946335,-2.1979,-0.140409,-0.420202,-103.371,0.14926,
2,1,0,1,0,14958.5,0.157107,0.1568,5.29497,8,0.0115186,10,0.00083025,-2.27614,-0.0779571,-0.756826,-155.855,0.1568,
2,1,0,1,0,14958.7,0.164602,0.164269,4.2258,8,0.0121107,10,0.000694168,-2.37409,-0.0855446,-0.689699,-113.819,0.164269,
2,1,0,1,0,14958.8,0.17209,0.171786,3.55179,8,0.0125945,10,0.000610148,-2.44955,-0.126576,-0.466123,-65.0085,0.171786,
2,1,0,1,0,14958.9,0.179585,0.179269,3.17934,8,0.0130157,10,0.000569958,-2.49766,-0.18008,-0.327632,-40.7651,0.179269,
2,1,0,1,0,14959,0.187072,0.186758,2.95739,8,0.0133992,10,0.000552316,-2.52909,-0.291524,-0.202385,-23.3103,0.186758,
2,1,0,1,0,14959.2,0.194566,0.194223,2.80528,8,0.0137599,10,0.000544848,-2.55202,-0.431774,-0.136646,-14.9519,0.194223,
2,1,0,1,0,14959.3,0.202055,0.201745,2.70461,8,0.0141051,10,0.000545642,-2.56789,-0.579215,-0.101862,-10.7368,0.201745,
2,1,0,1,0,14959.4,0.209549,0.209238,2.63555,8,0.0144401,10,0.000551457,-2.57913,-0.55817,-0.105703,-10.8674,0.2092381,
2,1,0,1,0,14959.5,0.217036,0.216732,2.57741,8,0.0147673,10,0.000558608,-2.58882,-0.767812,-0.0768417,-7.74468,0.216732,
2,1,0,1,0,14959.7,0.224529,0.224264,2.54026,8,0.0150891,10,0.000569689,-2.59512,-1.76282,-0.0334691,-3.31763,0.224264,
2,1,0,1,0,14959.8,0.232019,0.231714,2.50846,8,0.0154061,10,0.000581246,-2.60059,-22.5254,-0.00261927,-0.256941,0.231714,
2,1,0,1,0,14959.9,0.239513,0.239197,2.48155,8,0.0157199,10,0.000593579,-2.60528,-1.92038,-0.0307231,-2.97993,0.239197,
2,1,0,1,0,14960,0.247001,0.24667,2.4643,8,0.0160304,10,0.00060787,-2.60831,-0.8942,-0.0659807,-6.32132,0.24667,
2,1,0,1,0,14960.2,0.254493,0.254219,2.4394,8,0.0163383,10,0.000620143,-2.61272,-1.07169,-0.0550534,-5.22964,0.254219,
2,1,0,1,0,14960.3,0.261983,0.261692,2.41524,8,0.0166432,10,0.000632047,-2.61704,-5.32443,-0.011081,-1.04723,0.261692,
2,1,0,1,0,14960.4,0.269477,0.269181,2.39255,8,0.0169459,10,0.000644027,-2.62114,-10.7577,-0.00548443,-0.513469,0.269181,
2,1,0,1,0,14960.5,0.276965,0.27669,2.37767,8,0.0172458,10,0.000657877,-2.62385,-0.882192,-0.0668788,-6.19996,0.27669,
2,1,0,1,0,14960.7,0.284457,0.284159,2.35928,8,0.0175433,10,0.000670409,-2.62722,-1.90031,-0.0310475,-2.85394,0.284159,
2,1,0,1,0,14960.8,0.291947,0.291624,2.33399,8,0.0178378,10,0.000680649,-2.6319,-2.89278,-0.0203956,-1.85668,0.291624,
2,1,0,1,0,14960.9,0.29944,0.299144,2.30444,8,0.0181297,10,0.00068936,-2.63743,-0.00512758,-11.5064,-718.346,0.299144,
2,0,0,1,0,14961,0.293742,0.293452,-0.630389,8,0.0181551,10,-0.000184989,-3.20039,-0.0167597,-3.52035,78.9298,0.293452,
2,0,0,1,0,14961.2,0.286254,0.285947,-0.947371,8,0.0180514,10,-0.000270898,-3.02348,-0.083714,-0.704781,25.8595,0.285947,
2,0,0,1,0,14961.3,0.278761,0.278462,-1.11517,8,0.0179198,10,-0.000310533,-2.95266,-0.120672,-0.488929,21.2487,0.278462,
2,0,0,1,0,14961.4,0.271272,0.270932,-1.23995,8,0.0177702,10,-0.000335941,-2.9066,-0.158285,-0.372744,18.062,0.270932,
2,0,0,1,0,14961.5,0.263778,0.263465,-1.34075,8,0.0176062,10,-0.000353242,-2.87265,-0.239341,-0.24651,12.9156,0.263465,
2,0,0,1,0,14961.7,0.25629,0.255905,-1.43837,8,0.0174304,10,-0.000368085,-2.84213,-0.41579,-0.141899,7.92633,0.255905,
2,0,0,1,0,14961.8,0.248797,0.248481,-1.51636,8,0.0172441,10,-0.000376787,-2.8192,-0.327281,-0.180273,10.6149,0.248481,
2,0,0,1,0,14961.9,0.241308,0.240984,-1.58071,8,0.0170487,10,-0.000380926,-2.80115,-0.370082,-0.159424,9.86986,0.240984,
2,0,0,1,0,14962,0.233814,0.23348,-1.64682,8,0.0168443,10,-0.0003845,-2.78335,-0.434534,-0.135778,8.75687,0.23348,
2,0,0,1,0,14962.2,0.226326,0.225986,-1.72219,8,0.0166317,10,-0.000389192,-2.76392,-0.637229,-0.0925884,6.20766,0.225986,
2,0,0,1,0,14962.3,0.218834,0.218511,-1.78881,8,0.0164109,10,-0.000390874,-2.74744,-0.435177,-0.135577,9.42425,0.218511,
2,0,0,1,0,14962.4,0.211344,0.211015,-1.84785,8,0.016182,10,-0.000389925,-2.73333,-0.510045,-0.115676,8.34312,0.211015,
2,0,0,1,0,14962.5,0.203856,0.203551,-1.90969,8,0.0159449,10,-0.000388719,-2.71904,-0.549534,-0.107364,8.04483,0.203551,
2,0,0,1,0,14962.7,0.196362,0.196058,-1.98417,8,0.0156992,10,-0.000389011,-2.70242,-0.589833,-0.100028,7.7509,0.196058,
2,0,0,1,0,14962.8,0.18887,0.188549,-2.07203,8,0.0154438,10,-0.000390678,-2.6836,-0.382408,-0.154285,12.4458,0.188549,
2,0,0,1,0,14962.9,0.18138,0.181035,-2.16295,8,0.0151779,10,-0.00039157,-2.66495,-0.319258,-0.184804,15.6133,0.181035,
2,0,0,1,0,14963,0.173892,0.173553,-2.27832,8,0.0148986,10,-0.00039541,-2.64239,-0.27293,-0.216173,19.2592,0.173553,
2,0,0,1,0,14963.2,0.166398,0.166085,-2.44248,8,0.014602,10,-0.00040566,-2.61217,-0.256859,-0.229698,21.8642,0.166085,
2,0,0,1,0,14963.3,0.158905,0.158573,-2.66655,8,0.0142818,10,-0.000422844,-2.57405,-0.172289,-0.342448,35.7143,0.158573,
2,0,0,1,0,14963.4,0.151417,0.151087,-3.02314,8,0.013926,10,-0.000456757,-2.51954,-0.116132,-0.508044,60.1154,0.151087,
2,0,0,1,0,14963.5,0.143927,0.1436,-3.59655,8,0.0135131,10,-0.000516464,-2.44411,-0.0846581,-0.696921,98.1679,0.1436,
2,0,0,1,0,14963.7,0.136435,0.136102,-4.43705,8,0.0130107,10,-0.000603889,-2.35291,-0.0830317,-0.710572,123.231,0.136102,
2,0,0,1,0,14963.8,0.128941,0.128589,-5.38533,8,0.0123946,10,-0.000692494,-2.26879,-0.104443,-0.564902,118.325,0.128589,
2,0,0,1,0,14963.9,0.121453,0.121129,-6.16988,8,0.0116689,10,-0.000747352,-2.20972,-0.16469,-0.358248,85.988,0.121129,
2,0,0,1,0,14964,0.113963,0.113659,-6.65884,8,0.0108629,10,-0.000756837,-2.1766,-0.31346,-0.188222,48.8879,0.113659,
2,0,0,1,0,14964.2,0.106471,0.106138,-6.86051,8,0.0100128,10,-0.000728164,-2.16364,-1.71109,-0.0344809,9.23391,0.106138,
2,0,0,1,0,14964.3,0.0989825,0.0986592,-6.78816,8,0.00915574,10,-0.000669715,-2.16825,0.564802,0.104461,-27.6345,0.09865924,
2,0,0,1,0,14964.4,0.0914889,0.0911571,-6.49627,8,0.00832298,10,-0.000592181,-2.18734,0.317357,0.185911,-47.0483,0.0911571,
2,0,0,1,0,14964.5,0.0839993,0.0836731,-6.11655,8,0.00753459,10,-0.00051179,-2.21349,0.304086,0.194024,-46.3233,0.08367306,
2,0,0,1,0,14964.7,0.076507,0.0761603,-5.83366,8,0.00678745,10,-0.000444293,-2.23406,0.455597,0.1295,-29.501,0.0761603,
2,0,0,1,0,14964.8,0.0690187,0.0686856,-5.64159,8,0.00606951,10,-0.000387496,-2.2486,0.522623,0.112892,-24.8953,0.0686856,
2,0,0,1,0,14964.9,0.0615251,0.0611879,-5.49883,8,0.00537137,10,-0.000336462,-2.25973,0.648922,0.09092,-19.5022,0.0611879,
2,0,0,1,0,14965,0.0540355,0.0537026,-5.3505,8,0.00469239,10,-0.000287336,-2.27161,0.74435,0.0792637,-16.5314,0.0537026,
2,0,0,1,0,14965.2,0.0465432,0.0462324,-5.18646,8,0.00403168,10,-0.000239782,-2.28513,0.581081,0.101535,-20.5811,0.04623241,
2,0,0,1,0,14965.3,0.0390549,0.0387409,-5.02448,8,0.00339206,10,-0.000194653,-2.29891,0.409344,0.144133,-28.2128,0.0387409,
2,0,0,1,0,14965.4,0.0315613,0.0312178,-4.82245,8,0.00277511,10,-0.000150546,-2.31673,0.388628,0.151816,-28.5622,0.0312178,
2,0,0,1,0,14965.5,0.0240717,0.0237409,-4.60348,8,0.00218454,10,-0.000109291,-2.33691,0.394983,0.149373,-26.8589,0.0237409,
2,0,0,1,0,14965.7,0.0165781,0.0162367,-4.40472,8,0.00161999,10,-7.15181e-05,-2.35608,0.463979,0.127161,-21.8862,0.0162367,
2,0,0,1,0,14965.8,0.00909108,0.00879666,-4.24483,8,0.0010784,10,-3.73403e-05,-2.37214,0.49807,0.118457,-19.6366,0.00879666,
2,0,0,1,0,14965.9,0.00159616,0.00123184,-4.17372,8,0.000552821,10,-5.14135e-06,-2.37948, , , ,0.00123184,
2,0,0,1,0,14965.9,0.000199195,-0.000197438,-4.1437,8,0.000455498,10,8.18126e-07,-2.38261, , , ,-0.000197438,