Folder: Figs_alphaMnO2_OER_Tafel_sleope/Figure_codes/Fig_3-5/rawdata_trumpetplot_data/after 10th (part 47)

File: 20221101_1-115_003_TrumpetPlot_ParaChange_from10_every3_04_CV_C01_23.csv
mode,ox/red,error,control changes,counter inc.,time/s,control/V,Ewe/V,<I>/mA,cycle number,(Q-Qo)/C,I Range,P/W,log(|I|),Tafel slope mV/dec,alpha_eff,dI/d(E-IR),E-IR/V,
2,0,0,1,0,46373,2.44065e-05,-0.000287149,-0.385608,24,0.0000000E+000,10,1.10727e-07,-3.41385, , , ,-0.0002871489,
2,1,0,1,0,46373.7,0.00729063,0.00696709,0.346776,24,0.000172388,10,2.41602e-06,-3.45995,0.056694,1.04067,13.8991,0.00696709,
2,1,0,1,0,46374.5,0.0147814,0.0144958,0.421917,24,0.000473677,10,6.11602e-06,-3.37477,0.112676,0.523623,8.57934,0.0144958,
2,1,0,1,0,46375.2,0.0222725,0.0219814,0.473032,24,0.000820663,10,1.03979e-05,-3.32511,0.171707,0.343608,6.34564,0.0219814,
2,1,0,1,0,46376,0.0297635,0.029436,0.526472,24,0.0012063,10,1.54972e-05,-3.27862,0.182594,0.32312,6.61989,0.029436,
2,1,0,1,0,46376.7,0.0372544,0.0369384,0.575318,24,0.00163007,10,2.12513e-05,-3.24009,0.19961,0.295576,6.65355,0.0369384,
2,1,0,1,0,46377.5,0.0447458,0.0444193,0.625911,24,0.00209164,10,2.78025e-05,-3.20349,0.22551,0.261629,6.39534,0.0444193,
2,1,0,1,0,46378.2,0.0522363,0.0519029,0.672342,24,0.0025898,10,3.48965e-05,-3.17241,0.249092,0.23686,6.21349,0.0519029,
2,1,0,1,0,46379,0.0597282,0.0594103,0.715228,24,0.00312132,10,4.24919e-05,-3.14556,0.315885,0.186777,5.20801,0.05941027,
2,1,0,1,0,46379.7,0.0672182,0.0669013,0.753183,24,0.00368229,10,5.03889e-05,-3.1231,0.36299,0.162539,4.76336,0.0669013,
2,1,0,1,0,46380.5,0.0747092,0.0743941,0.783034,24,0.00426877,10,5.82531e-05,-3.10622,0.453823,0.130007,3.96819,0.0743941,
2,1,0,1,0,46381.2,0.0822001,0.0818869,0.807958,24,0.00487698,10,6.61612e-05,-3.09261,0.467086,0.126315,3.99683,0.0818869,
2,1,0,1,0,46382,0.0896911,0.0893479,0.841892,24,0.00550702,10,7.52213e-05,-3.07474,0.345182,0.170924,5.63355,0.0893479,
2,1,0,1,0,46382.7,0.097182,0.0968376,0.897495,24,0.00616964,10,8.69112e-05,-3.04697,0.210123,0.280788,9.85219,0.0968376,
2,1,0,1,0,46383.5,0.104673,0.104335,0.97759,24,0.00688163,10,0.000101997,-3.00984,0.201096,0.293392,11.1574,0.104335,
2,1,0,1,0,46384.2,0.112164,0.111828,1.0532,24,0.00765371,10,0.000117776,-2.97749,0.294858,0.200096,8.2004,0.111828,
2,1,0,1,0,46385,0.119655,0.119338,1.10483,24,0.00847491,10,0.000131848,-2.95671,0.580279,0.101675,4.3874,0.119338,
2,1,0,1,0,46385.7,0.127146,0.1268,1.13237,24,0.00932696,10,0.000143585,-2.94601,0.840429,0.0702022,3.10909,0.1268,
2,1,0,1,0,46386.5,0.134637,0.134335,1.14179,24,0.010195,10,0.000153382,-2.94241,-0.577791,-0.102113,-4.54105,0.134335,
2,1,0,1,0,46387.2,0.142127,0.141834,1.05064,24,0.0110354,10,0.000149016,-2.97855,-0.125748,-0.469193,-19.1317,0.141834,
2,1,0,1,0,46388,0.149619,0.149249,0.856041,24,0.0117638,10,0.000127763,-3.06751,-0.0736269,-0.801338,-26.7974,0.149249,
2,1,0,1,0,46388.7,0.157109,0.1568,0.691737,24,0.0123494,10,0.000108464,-3.16006,-0.0997987,-0.59119,-16.0263,0.1568,
2,1,0,1,0,46389.5,0.164601,0.164303,0.612158,24,0.0128457,10,0.000100579,-3.21314,-0.195169,-0.302302,-7.24928,0.164303,
2,1,0,1,0,46390.2,0.172091,0.17178,0.571896,24,0.0132997,10,9.824e-05,-3.24268,-0.351051,-0.168067,-3.77378,0.17178,
2,1,0,1,0,46391,0.179582,0.179253,0.552006,24,0.013732,10,9.89489e-05,-3.25806,-0.695191,-0.0848688,-1.83631,0.179253,
2,1,0,1,0,46391.7,0.187074,0.186806,0.542673,24,0.0141525,10,0.000101375,-3.26546,-1.11609,-0.052863,-1.11353,0.186806,
2,1,0,1,0,46392.5,0.194564,0.194252,0.533472,24,0.0145654,10,0.000103628,-3.27289,-1.07552,-0.0548573,-1.14112,0.194252,
2,1,0,1,0,46393.2,0.202056,0.20174,0.527704,24,0.0149727,10,0.000106459,-3.27761,-0.923113,-0.0639142,-1.3125,0.20174,
2,1,0,1,0,46394,0.209546,0.209219,0.521715,24,0.0153758,10,0.000109153,-3.28257,-1.15225,-0.0512042,-1.04014,0.209219,
2,1,0,1,0,46394.7,0.217038,0.216724,0.515348,24,0.0157749,10,0.000111688,-3.2879,-3.18755,-0.0185095,-0.374714,0.216724,
2,1,0,1,0,46395.5,0.224528,0.224241,0.513137,24,0.0161714,10,0.000115066,-3.28977,-1.76104,-0.0335029,-0.670704,0.224241,
2,1,0,1,0,46396.2,0.232019,0.231693,0.509982,24,0.0165652,10,0.000118159,-3.29245,-2.64582,-0.0222993,-0.443753,0.231693,
2,1,0,1,0,46397,0.23951,0.239214,0.505587,24,0.0169565,10,0.000120944,-3.2962,-1.20627,-0.048911,-0.966224,0.239214,
2,1,0,1,0,46397.7,0.247001,0.246732,0.504297,24,0.0173452,10,0.000124426,-3.29731,-3.03459,-0.0194425,-0.381598,0.246732,
2,1,0,1,0,46398.5,0.254492,0.254161,0.499671,24,0.0177321,10,0.000126997,-3.30132,-3.3355,-0.0176885,-0.34483,0.254161,
2,1,0,1,0,46399.2,0.261983,0.261659,0.496441,24,0.0181158,10,0.000129898,-3.30413,-1.37757,-0.0428292,-0.828869,0.2616587,
2,1,0,1,0,46400,0.269474,0.269175,0.492601,24,0.0184968,10,0.000132596,-3.3075,7.93072,0.00743942,0.143241,0.269175,
2,1,0,1,0,46400.7,0.276965,0.276628,0.489427,24,0.0188752,10,0.000135389,-3.31031,-2.0368,-0.028967,-0.553128,0.276628,
2,1,0,1,0,46401.5,0.284456,0.284161,0.486904,24,0.0192509,10,0.000138359,-3.31256,-1.17905,-0.0500402,-0.946216,0.284161,
2,1,0,1,0,46402.2,0.291947,0.291643,0.481047,24,0.0196231,10,0.000140294,-3.31781,-1.75638,-0.0335918,-0.630763,0.291643,
2,1,0,1,0,46403,0.299437,0.299134,0.474926,24,0.0199922,10,0.000142067,-3.32337,-0.00290049,-20.3414,-200.783,0.299134,
2,0,0,1,0,46403.6,0.293745,0.293426,-0.0688439,24,0.0200185,10,-2.02006e-05,-4.16213,-0.0137367,-4.29507,10.6051,0.293426,
2,0,0,1,0,46404.4,0.286253,0.28593,-0.123297,24,0.0199326,10,-3.52543e-05,-3.90905,-0.0496064,-1.18936,5.82428,0.28593,
2,0,0,1,0,46405.1,0.278763,0.278404,-0.161917,24,0.0198135,10,-4.50781e-05,-3.79071,-0.0866157,-0.68117,4.30667,0.278404,
2,0,0,1,0,46405.9,0.271272,0.270921,-0.191224,24,0.0196706,10,-5.18067e-05,-3.71846,-0.116094,-0.508207,3.78146,0.270921,
2,0,0,1,0,46406.6,0.263781,0.263448,-0.213226,24,0.0195077,10,-5.61739e-05,-3.67116,-0.148838,-0.396403,3.32658,0.263448,
2,0,0,1,0,46407.4,0.25629,0.255995,-0.236977,24,0.0193282,10,-6.0665e-05,-3.62529,-0.221493,-0.266374,2.44404,0.255995,
2,0,0,1,0,46408.1,0.248799,0.248508,-0.254147,24,0.0191341,10,-6.31575e-05,-3.59491,-0.225546,-0.261588,2.59367,0.248508,
2,0,0,1,0,46408.9,0.241308,0.240986,-0.269176,24,0.018927,10,-6.48677e-05,-3.56996,-0.368648,-0.160044,1.687,0.240986,
2,0,0,1,0,46409.6,0.233817,0.233465,-0.283967,24,0.0187079,10,-6.62962e-05,-3.54673,-0.322345,-0.183033,2.0469,0.233465,
2,0,0,1,0,46410.4,0.226326,0.226036,-0.299629,24,0.0184774,10,-6.77271e-05,-3.52342,-0.348529,-0.169283,1.98598,0.226036,
2,0,0,1,0,46411.1,0.218835,0.218499,-0.316605,24,0.0182356,10,-6.91779e-05,-3.49948,-0.46484,-0.126925,1.5589,0.218499,
2,0,0,1,0,46411.9,0.211344,0.211034,-0.330995,24,0.0179826,10,-6.98512e-05,-3.48018,-0.528441,-0.111649,1.43865,0.211034,
2,0,0,1,0,46412.6,0.203854,0.203501,-0.344052,24,0.0177181,10,-7.00148e-05,-3.46338,-0.467304,-0.126256,1.70935,0.2035007,
2,0,0,1,0,46413.4,0.196362,0.196061,-0.361422,24,0.0174426,10,-7.08606e-05,-3.44199,-0.463165,-0.127384,1.79494,0.1960609,
2,0,0,1,0,46414.1,0.188872,0.188519,-0.37591,24,0.017155,10,-7.0866e-05,-3.42492,-0.283348,-0.208225,3.06627,0.188519,
2,0,0,1,0,46414.9,0.18138,0.18106,-0.397092,24,0.0168543,10,-7.18977e-05,-3.40111,-0.386775,-0.152543,2.36419,0.18106,
2,0,0,1,0,46415.6,0.17389,0.173566,-0.417363,24,0.0165388,10,-7.244e-05,-3.37949,-0.268973,-0.219353,3.56251,0.173566,
2,0,0,1,0,46416.4,0.166398,0.166072,-0.444812,24,0.0162049,10,-7.38707e-05,-3.35182,-0.268292,-0.21991,3.83641,0.166072,
2,0,0,1,0,46417.1,0.158907,0.158599,-0.481814,24,0.0158463,10,-7.64152e-05,-3.31712,-0.174553,-0.338005,6.39175,0.158599,
2,0,0,1,0,46417.9,0.151417,0.151099,-0.541263,24,0.0154524,10,-8.1784e-05,-3.26659,-0.127117,-0.464138,9.83498,0.151099,
2,0,0,1,0,46418.6,0.143925,0.14365,-0.641454,24,0.0150002,10,-9.2145e-05,-3.19283,-0.082678,-0.713612,17.9028,0.14365,
2,0,0,1,0,46419.4,0.136435,0.136111,-0.792628,24,0.0144539,10,-0.000107885,-3.10093,-0.0811569,-0.726987,22.4377,0.136111,
2,0,0,1,0,46420.1,0.128943,0.128626,-0.960308,24,0.0137857,10,-0.000123521,-3.01759,-0.108786,-0.542348,20.2029,0.128626,
2,0,0,1,0,46420.9,0.121453,0.121106,-1.08911,24,0.0130038,10,-0.000131898,-2.96293,-0.199931,-0.295102,12.4861,0.121106,
2,0,0,1,0,46421.6,0.113962,0.113638,-1.14865,24,0.0121488,10,-0.000130529,-2.93981,-0.860455,-0.0685684,3.07074,0.113638,
2,0,0,1,0,46422.4,0.106471,0.106167,-1.14933,24,0.0112727,10,-0.000122021,-2.93956,1.49149,0.0395577,-1.77523,0.106167,
2,0,0,1,0,46423.1,0.0989798,0.0986191,-1.12815,24,0.0104072,10,-0.000111257,-2.94763,0.914687,0.0645029,-2.83452,0.0986191,
2,0,0,1,0,46423.9,0.0914889,0.0911888,-1.09967,24,0.00956228,10,-0.000100278,-2.95874,0.744694,0.0792272,-3.39401,0.0911888,
2,0,0,1,0,46424.6,0.083998,0.0836833,-1.06762,24,0.00873926,10,-8.93422e-05,-2.97158,0.457426,0.128983,-5.36134,0.0836833,
2,0,0,1,0,46425.4,0.076507,0.0761618,-1.0367,24,0.00793992,10,-7.89566e-05,-2.98435,0.568791,0.103729,-4.18893,0.0761618,
2,0,0,1,0,46426.1,0.069016,0.0687018,-1.00332,24,0.00716403,10,-6.89297e-05,-2.99856,0.528365,0.111665,-4.38327,0.0687018,
2,0,0,1,0,46426.9,0.0615251,0.0612048,-0.974394,24,0.00641036,10,-5.96376e-05,-3.01127,0.618907,0.0953293,-3.63123,0.0612048,
2,0,0,1,0,46427.6,0.0540342,0.0536939,-0.942254,24,0.00568034,10,-5.05933e-05,-3.02583,0.613716,0.0961356,-3.53465,0.0536939,
2,0,0,1,0,46428.4,0.0465441,0.0462337,-0.9121,24,0.00497411,10,-4.21698e-05,-3.03996,0.527385,0.111873,-3.98122,0.0462337,
2,0,0,1,0,46429.1,0.0390523,0.038722,-0.875677,24,0.00429296,10,-3.3908e-05,-3.05766,0.388337,0.15193,-5.19112,0.038722,
2,0,0,1,0,46429.9,0.0315618,0.0312255,-0.844739,24,0.00363727,10,-2.63774e-05,-3.07328,0.405943,0.145341,-4.78467,0.0312255,
2,0,0,1,0,46430.6,0.0240704,0.0237671,-0.810693,24,0.00300622,10,-1.92678e-05,-3.09114,0.529045,0.111522,-3.53585,0.02376711,
2,0,0,1,0,46431.4,0.0165796,0.0162587,-0.78697,24,0.00239611,10,-1.27951e-05,-3.10404,0.877514,0.0672354,-2.06957,0.0162587,
2,0,0,1,0,46432.1,0.00908846,0.00880053,-0.77418,24,0.0018004,10,-6.81319e-06,-3.11116,1.56679,0.0376567,-1.13589,0.00880053,
2,0,0,1,0,46432.9,0.00159728,0.00122505,-0.779506,24,0.00121015,10,-9.54936e-07,-3.10818, , , ,0.00122505,
2,0,0,1,0,46433,0.000199195,-0.000199347,-0.773938,24,0.00109951,10,1.54282e-07,-3.11129, , , ,-0.000199347,

File: 20221101_1-115_003_TrumpetPlot_ParaChange_from10_every3_04_CV_C01_24.csv
mode,ox/red,error,control changes,counter inc.,time/s,control/V,Ewe/V,<I>/mA,cycle number,(Q-Qo)/C,I Range,P/W,log(|I|),Tafel slope mV/dec,alpha_eff,dI/d(E-IR),E-IR/V,
2,0,0,1,0,48343.1,2.44065e-05,-0.000344411,-0.388152,25,0.0000000E+000,10,1.33684e-07,-3.411, , , ,-0.000344411,
2,1,0,1,0,48343.9,0.00729063,0.00701163,0.348405,25,0.000171499,10,2.44288e-06,-3.45792,0.0567338,1.03994,13.931,0.00701163,
2,1,0,1,0,48344.6,0.0147814,0.0144663,0.420631,25,0.000473126,10,6.08497e-06,-3.3761,0.116777,0.505237,8.30341,0.0144663,
2,1,0,1,0,48345.4,0.0222725,0.0219793,0.473482,25,0.000819705,10,1.04068e-05,-3.3247,0.153319,0.384818,7.11141,0.0219793,
2,1,0,1,0,48346.1,0.0297635,0.0294511,0.525202,25,0.00120458,10,1.54677e-05,-3.27967,0.186074,0.317078,6.48006,0.0294511,
2,1,0,1,0,48346.9,0.0372544,0.0369268,0.575174,25,0.00162707,10,2.12393e-05,-3.2402,0.197286,0.299059,6.71446,0.0369268,
2,1,0,1,0,48347.6,0.0447458,0.0444295,0.624724,25,0.00208733,10,2.77562e-05,-3.20431,0.226537,0.260443,6.34668,0.0444295,
2,1,0,1,0,48348.4,0.0522363,0.0519018,0.670269,25,0.00258406,10,3.47882e-05,-3.17375,0.242436,0.243364,6.37533,0.0519018,
2,1,0,1,0,48349.1,0.0597282,0.0594389,0.714595,25,0.00311424,10,4.24748e-05,-3.14594,0.296368,0.199077,5.53986,0.0594389,
2,1,0,1,0,48349.9,0.0672182,0.0669394,0.750271,25,0.00367357,10,5.02227e-05,-3.12478,0.350449,0.168355,4.92432,0.0669394,
2,1,0,1,0,48350.6,0.0747092,0.0743782,0.781446,25,0.00425865,10,5.81226e-05,-3.1071,0.492068,0.119902,3.65219,0.0743782,
2,1,0,1,0,48351.4,0.0822001,0.0818466,0.80719,25,0.00486558,10,6.60658e-05,-3.09302,0.541012,0.109055,3.44577,0.08184664,
2,1,0,1,0,48352.1,0.0896911,0.0893713,0.842861,25,0.00549358,10,7.53275e-05,-3.07424,0.337564,0.174782,5.75525,0.0893713,
2,1,0,1,0,48352.9,0.097182,0.0968588,0.894712,25,0.00615432,10,8.66607e-05,-3.04832,0.198161,0.297737,10.4097,0.0968588,
2,1,0,1,0,48353.6,0.104673,0.104379,0.975143,25,0.0068641,10,0.000101785,-3.01093,0.208638,0.282787,10.7275,0.104379,
2,1,0,1,0,48354.4,0.112164,0.11186,1.0497,25,0.00763363,10,0.00011742,-2.97894,0.287674,0.205093,8.39384,0.11186,
2,1,0,1,0,48355.1,0.119655,0.119325,1.10316,25,0.00845253,10,0.000131634,-2.95736,0.583899,0.101045,4.34593,0.119325,
2,1,0,1,0,48355.9,0.127146,0.12685,1.13116,25,0.00930183,10,0.000143488,-2.94648,0.838335,0.0703776,3.11166,0.12685,
2,1,0,1,0,48356.6,0.134637,0.134319,1.136,25,0.0101663,10,0.000152586,-2.94462,-0.617888,-0.0954865,-4.22759,0.134319,
2,1,0,1,0,48357.4,0.142127,0.141811,1.0455,25,0.0110025,10,0.000148263,-2.98068,-0.12094,-0.487844,-19.7925,0.141811,
2,1,0,1,0,48358.1,0.149619,0.149242,0.850098,25,0.0117256,10,0.00012687,-3.07053,-0.0738164,-0.79928,-26.5035,0.149242,
2,1,0,1,0,48358.9,0.157109,0.156821,0.689651,25,0.0123065,10,0.000108152,-3.16137,-0.102047,-0.578164,-15.5879,0.156821,
2,1,0,1,0,48359.6,0.164601,0.164282,0.612994,25,0.0128009,10,0.000100704,-3.21254,-0.210874,-0.279788,-6.68871,0.164282,
2,1,0,1,0,48360.4,0.172091,0.171762,0.574244,25,0.013254,10,9.8633e-05,-3.2409,-0.40963,-0.144032,-3.24078,0.171762,
2,1,0,1,0,48361.1,0.179582,0.179285,0.554932,25,0.0136868,10,9.94912e-05,-3.25576,-0.600185,-0.098303,-2.13399,0.179285,
2,1,0,1,0,48361.9,0.187074,0.186772,0.543701,25,0.0141079,10,0.000101548,-3.26464,-1.66038,-0.0355341,-0.751947,0.186772,
2,1,0,1,0,48362.6,0.194564,0.194313,0.535003,25,0.0145212,10,0.000103958,-3.27164,-2.22021,-0.0265741,-0.554632,0.194313,
2,1,0,1,0,48363.3,0.202056,0.201789,0.529352,25,0.0149289,10,0.000106817,-3.27626,-1.10592,-0.0533492,-1.09699,0.201789,
2,1,0,1,0,48364.1,0.209546,0.209252,0.523361,25,0.0153326,10,0.000109514,-3.2812,-0.842808,-0.070004,-1.42888,0.209252,
2,1,0,1,0,48364.8,0.217038,0.216703,0.516916,25,0.0157323,10,0.000112018,-3.28658,-1.37569,-0.0428875,-0.867615,0.216703,
2,1,0,1,0,48365.6,0.224528,0.224213,0.515917,25,0.0161293,10,0.000115675,-3.28742,-2.16054,-0.0273079,-0.548702,0.224213,
2,1,0,1,0,48366.3,0.232019,0.231714,0.510335,25,0.0165234,10,0.000118252,-3.29214,-2.83921,-0.0207804,-0.4148,0.231714,
2,1,0,1,0,48367.1,0.23951,0.239211,0.507212,25,0.0169152,10,0.000121331,-3.29481,-14.5901,-0.00404384,-0.0802363,0.239211,
2,1,0,1,0,48367.8,0.247001,0.246688,0.505069,25,0.0173045,10,0.000124594,-3.29665,-1.94417,-0.0303471,-0.597017,0.246688,
2,1,0,1,0,48368.6,0.254492,0.254193,0.501102,25,0.0176915,10,0.000127377,-3.30007,-1.43869,-0.0410096,-0.802398,0.254193,
2,1,0,1,0,48369.3,0.261983,0.261645,0.497445,25,0.0180757,10,0.000130154,-3.30325,-2.51453,-0.0234636,-0.456447,0.2616449,
2,1,0,1,0,48370.1,0.269474,0.269172,0.494716,25,0.0184576,10,0.000133163,-3.30564,12.0703,0.00488804,0.0943081,0.269172,
2,1,0,1,0,48370.8,0.276965,0.276655,0.490802,25,0.0188368,10,0.000135783,-3.30909,-2.61888,-0.0225287,-0.432045,0.276655,
2,1,0,1,0,48371.6,0.284456,0.284146,0.486827,25,0.019213,10,0.00013833,-3.31263,-28.0522,-0.00210322,-0.0398904,0.284146,
2,1,0,1,0,48372.3,0.291947,0.29162,0.482864,25,0.0195858,10,0.000140813,-3.31618,-1.40356,-0.042036,-0.791837,0.29162,
2,1,0,1,0,48373.1,0.299437,0.299138,0.476888,25,0.0199556,10,0.000142655,-3.32158,-0.00296746,-19.8823,-198.782,0.299138,
2,0,0,1,0,48373.8,0.293745,0.293397,-0.0700954,25,0.0199828,10,-2.05657e-05,-4.15431,-0.0129504,-4.55583,11.2526,0.293397,
2,0,0,1,0,48374.5,0.286253,0.285975,-0.124792,25,0.0198977,10,-3.56875e-05,-3.90381,-0.0496443,-1.18845,5.80963,0.2859751,
2,0,0,1,0,48375.3,0.278763,0.278434,-0.162635,25,0.019779,10,-4.52832e-05,-3.78879,-0.0877596,-0.672291,4.26508,0.278434,
2,0,0,1,0,48376,0.271272,0.270939,-0.190529,25,0.0196366,10,-5.16219e-05,-3.72004,-0.116913,-0.504647,3.74852,0.270939,
2,0,0,1,0,48376.8,0.263781,0.263421,-0.21469,25,0.0194742,10,-5.65537e-05,-3.66819,-0.170152,-0.34675,2.89439,0.263421,
2,0,0,1,0,48377.5,0.25629,0.255976,-0.23635,25,0.0192951,10,-6.04999e-05,-3.62644,-0.213951,-0.275763,2.52678,0.255976,
2,0,0,1,0,48378.3,0.248799,0.248483,-0.254333,25,0.0191015,10,-6.31974e-05,-3.5946,-0.235572,-0.250454,2.47809,0.248483,
2,0,0,1,0,48379,0.241308,0.240979,-0.270369,25,0.0188949,10,-6.51531e-05,-3.56804,-0.270118,-0.218423,2.31029,0.240979,
2,0,0,1,0,48379.8,0.233817,0.233452,-0.284815,25,0.0186762,10,-6.64906e-05,-3.54544,-0.343618,-0.171702,1.91917,0.2334519,
2,0,0,1,0,48380.5,0.226326,0.226018,-0.301311,25,0.0184459,10,-6.81017e-05,-3.52099,-0.283589,-0.208048,2.44635,0.226018,
2,0,0,1,0,48381.3,0.218835,0.218533,-0.315595,25,0.0182043,10,-6.89679e-05,-3.50087,-0.323138,-0.182585,2.24457,0.218533,
2,0,0,1,0,48382,0.211344,0.211047,-0.330939,25,0.0179516,10,-6.98436e-05,-3.48025,-0.467753,-0.126135,1.62332,0.211047,
2,0,0,1,0,48382.8,0.203854,0.203525,-0.344896,25,0.0176875,10,-7.01949e-05,-3.46231,-0.343672,-0.171675,2.31475,0.203525,
2,0,0,1,0,48383.5,0.196362,0.19604,-0.361336,25,0.0174124,10,-7.08362e-05,-3.44209,-0.390627,-0.151039,2.1285,0.19604,
2,0,0,1,0,48384.3,0.188872,0.18854,-0.378013,25,0.0171249,10,-7.12706e-05,-3.42249,-0.305101,-0.193379,2.84277,0.18854,
2,0,0,1,0,48385,0.18138,0.181109,-0.39698,25,0.0168246,10,-7.18968e-05,-3.40123,-0.336754,-0.175202,2.7139,0.181109,
2,0,0,1,0,48385.8,0.17389,0.173585,-0.418159,25,0.0165094,10,-7.25859e-05,-3.37866,-0.285578,-0.206599,3.37026,0.173585,
2,0,0,1,0,48386.5,0.166398,0.166034,-0.444297,25,0.0161759,10,-7.37686e-05,-3.35233,-0.279313,-0.211232,3.68162,0.166034,
2,0,0,1,0,48387.3,0.158907,0.158545,-0.482981,25,0.0158183,10,-7.6574e-05,-3.31607,-0.179547,-0.328604,6.19425,0.158545,
2,0,0,1,0,48388,0.151417,0.151055,-0.541039,25,0.0154258,10,-8.17267e-05,-3.26677,-0.133826,-0.44087,9.31702,0.151055,
2,0,0,1,0,48388.8,0.143925,0.14359,-0.636931,25,0.0149766,10,-9.14571e-05,-3.19591,-0.0842039,-0.70068,17.4443,0.14359,
2,0,0,1,0,48389.5,0.136435,0.136086,-0.784554,25,0.014435,10,-0.000106767,-3.10538,-0.0831467,-0.709589,21.7193,0.136086,
2,0,0,1,0,48390.3,0.128943,0.128618,-0.949509,25,0.0137734,10,-0.000122124,-3.0225,-0.106348,-0.554782,20.4502,0.128618,
2,0,0,1,0,48391,0.121453,0.12114,-1.0812,25,0.012999,10,-0.000130977,-2.96609,-0.193863,-0.304338,12.8028,0.12114,
2,0,0,1,0,48391.7,0.113962,0.113636,-1.14123,25,0.0121504,10,-0.000129684,-2.94263,-0.808993,-0.0729301,3.24679,0.1136355,
2,0,0,1,0,48392.5,0.106471,0.106138,-1.14411,25,0.0112791,10,-0.000121435,-2.94153,1.24212,0.0474993,-2.12428,0.106138,
2,0,0,1,0,48393.2,0.0989798,0.0987029,-1.12329,25,0.0104175,10,-0.000110872,-2.94951,0.954043,0.0618421,-2.70888,0.0987029,
2,0,0,1,0,48394,0.0914889,0.0911421,-1.09553,25,0.00957557,10,-9.98491e-05,-2.96037,0.747203,0.0789612,-3.37579,0.0911421,
2,0,0,1,0,48394.7,0.083998,0.0836387,-1.06794,25,0.00875489,10,-8.9321e-05,-2.97145,0.508505,0.116026,-4.82289,0.08363872,
2,0,0,1,0,48395.5,0.076507,0.0761788,-1.0349,25,0.00795661,10,-7.88374e-05,-2.9851,0.548006,0.107663,-4.34755,0.0761788,
2,0,0,1,0,48396.2,0.069016,0.0687283,-1.00207,25,0.00718163,10,-6.88704e-05,-2.9991,0.56537,0.104356,-4.09624,0.0687283,
2,0,0,1,0,48397,0.0615251,0.0612292,-0.974627,25,0.00642891,10,-5.96756e-05,-3.01116,0.567386,0.103986,-3.95626,0.0612292,
2,0,0,1,0,48397.7,0.0540342,0.05373,-0.94408,25,0.00569947,10,-5.07254e-05,-3.02499,0.499542,0.118108,-4.34023,0.05373,
2,0,0,1,0,48398.5,0.0465441,0.0462011,-0.909961,25,0.00499388,10,-4.20412e-05,-3.04098,0.488319,0.120823,-4.2936,0.04620108,
2,0,0,1,0,48399.2,0.0390523,0.0387284,-0.876955,25,0.00431352,10,-3.3963e-05,-3.05702,0.380292,0.155144,-5.3033,0.0387284,
2,0,0,1,0,48400,0.0315618,0.0312264,-0.843887,25,0.00365878,10,-2.63516e-05,-3.07372,0.434198,0.135883,-4.47222,0.0312264,
2,0,0,1,0,48400.7,0.0240704,0.0237173,-0.81021,25,0.00302857,10,-1.9216e-05,-3.0914,0.484039,0.121891,-3.86391,0.0237173,
2,0,0,1,0,48401.5,0.0165796,0.0162427,-0.787608,25,0.00241944,10,-1.27929e-05,-3.10369,0.926239,0.0636984,-1.95913,0.0162427,
2,0,0,1,0,48402.2,0.00908846,0.0087719,-0.77362,25,0.00182407,10,-6.78612e-06,-3.11147,1.97276,0.0299073,-0.903798,0.0087719,
2,0,0,1,0,48403,0.00159728,0.00120899,-0.78095,25,0.00123402,10,-9.44161e-07,-3.10738, , , ,0.00120899,
2,0,0,1,0,48403.1,0.000199195,-0.000155446,-0.774367,25,0.00112335,10,1.20373e-07,-3.11105, , , ,-0.0001554464,