Folder: Figs_alphaMnO2_OER_Tafel_sleope/Figure_codes/Fig_3-5/rawdata_trumpetplot_data/after 10th (part 10)

File: 20221101_1-115_003_TrumpetPlot_ParaChange_from10_every3_02_CV_C01_19.csv
mode,ox/red,error,control changes,counter inc.,time/s,control/V,Ewe/V,<I>/mA,cycle number,(Q-Qo)/C,I Range,P/W,log(|I|),Tafel slope mV/dec,alpha_eff,dI/d(E-IR),E-IR/V,
2,0,0,1,0,37772.5,2.44065e-05,-0.000382585,-0.384972,20,0.0000000E+000,10,1.47285e-07,-3.41457, , , ,-0.000382585,
2,0,0,1,0,37779.8,0.00729061,0.00696388,-0.0944823,20,-0.000949895,10,-6.57963e-07,-4.02465,-0.0295626,-1.99577,7.48162,0.00696388,
2,0,0,1,0,37787.3,0.0147815,0.0144344,-0.0579612,20,-0.00142769,10,-8.36634e-07,-4.23686,-0.0379658,-1.55403,3.55782,0.0144344,
2,0,0,1,0,37794.8,0.0222725,0.0219802,-0.0377391,20,-0.00170367,10,-8.29515e-07,-4.42321,-0.0379367,-1.55522,2.29675,0.0219802,
2,0,0,1,0,37802.2,0.0297635,0.0294021,-0.022136,20,-0.00184778,10,-6.50845e-07,-4.6549,-0.0292129,-2.01966,1.7555,0.0294021,
2,0,0,1,0,37809.7,0.0372544,0.0369383,-0.00943824,20,-0.00188569,10,-3.48633e-07,-5.02511,-0.0130533,-4.51994,1.56049,0.0369383,
2,0,0,1,0,37817.2,0.0447454,0.0443708,0.00208899,20,-0.0018306,10,9.26903e-08,-5.68006,0.00600612,9.82332,1.3105,0.0443708,
2,1,0,1,0,37824.7,0.0522363,0.051923,0.0118395,20,-0.00169636,10,6.14744e-07,-4.92667,0.0157597,3.74374,1.60709,0.05192301,
2,1,0,1,0,37832.2,0.0597273,0.0593756,0.0215043,20,-0.00148689,10,1.27683e-06,-4.66747,0.04351,1.35601,1.11858,0.0593756,
2,1,0,1,0,37839.7,0.0672183,0.0668451,0.0294764,20,-0.00121169,10,1.97035e-06,-4.53053,0.072534,0.813411,0.919689,0.0668451,
2,1,0,1,0,37847.2,0.0747092,0.074392,0.0374834,20,-0.000876356,10,2.78846e-06,-4.42616,0.121235,0.48666,0.711459,0.074392,
2,1,0,1,0,37854.7,0.0822001,0.0818794,0.0435882,20,-0.000486865,10,3.56898e-06,-4.36063,0.101587,0.580782,0.998132,0.0818794,
2,1,0,1,0,37862.2,0.0896911,0.0893405,0.0529594,20,-3.92792e-05,10,4.73142e-06,-4.27606,0.079437,0.742727,1.54279,0.0893405,
2,1,0,1,0,37869.7,0.0971821,0.0968493,0.0628735,20,0.000481611,10,6.08926e-06,-4.20153,0.0967081,0.610083,1.48402,0.0968493,
2,1,0,1,0,37877.2,0.104673,0.104343,0.0740744,20,0.0010809,10,7.72915e-06,-4.13033,0.128551,0.458964,1.31173,0.104343,
2,1,0,1,0,37884.6,0.112164,0.111827,0.0827294,20,0.00175536,10,9.25142e-06,-4.08234,0.181482,0.3251,1.04559,0.111827,
2,1,0,1,0,37892.1,0.119655,0.119343,0.0915331,20,0.00249731,10,1.09238e-05,-4.03842,0.263993,0.22349,0.793866,0.119343,
2,1,0,1,0,37899.6,0.127146,0.126859,0.0970201,20,0.00329707,10,1.23079e-05,-4.01314,0.401592,0.146915,0.560145,0.126859,
2,1,0,1,0,37907.1,0.134637,0.134318,0.0971606,20,0.00412403,10,1.30504e-05,-4.01251,-0.188906,-0.312325,-1.1748,0.134318,
2,1,0,1,0,37914.6,0.142128,0.141782,0.0810668,20,0.00488483,10,1.14938e-05,-4.09116,-0.0687006,-0.858799,-2.71382,0.141782,
2,1,0,1,0,37922.1,0.149619,0.149312,0.0635954,20,0.00550432,10,9.49554e-06,-4.19657,-0.0889742,-0.663114,-1.6384,0.149312,
2,1,0,1,0,37929.6,0.15711,0.156765,0.0544709,20,0.00602157,10,8.53915e-06,-4.26384,-0.178448,-0.330629,-0.703232,0.156765,
2,1,0,1,0,37937.1,0.164601,0.164275,0.0519516,20,0.006496,10,8.53435e-06,-4.2844,-0.550727,-0.107131,-0.214907,0.164275,
2,1,0,1,0,37944.6,0.172091,0.17175,0.0505634,20,0.00695661,10,8.68427e-06,-4.29616,-0.456278,-0.129307,-0.257437,0.17175,
2,1,0,1,0,37952.1,0.179582,0.179276,0.0507021,20,0.00741262,10,9.08965e-06,-4.29497,3.29844,0.0178872,0.0353612,0.179276,
2,1,0,1,0,37959.6,0.187073,0.186776,0.0511422,20,0.00787003,10,9.55214e-06,-4.29122,2.5983,0.0227071,0.0453082,0.186776,
2,1,0,1,0,37967,0.194564,0.194222,0.051761,20,0.00833126,10,1.00531e-05,-4.286,1.79006,0.0329598,0.0668658,0.194222,
2,1,0,1,0,37974.5,0.202055,0.201745,0.0525175,20,0.00879576,10,1.05951e-05,-4.2797,1.21986,0.0483663,0.0988023,0.201745,
2,1,0,1,0,37982,0.209546,0.209204,0.053107,20,0.00926537,10,1.11102e-05,-4.27485,5.17776,0.0113949,0.0236241,0.209204,
2,1,0,1,0,37989.5,0.217037,0.2167,0.0536236,20,0.00973718,10,1.16202e-05,-4.27064,0.903011,0.0653369,0.136377,0.2167,
2,1,0,1,0,37997,0.224528,0.224182,0.0543864,20,0.0102135,10,1.21925e-05,-4.26451,2.39058,0.0246802,0.0521574,0.224182,
2,1,0,1,0,38004.5,0.232019,0.231677,0.0551509,20,0.0106953,10,1.27772e-05,-4.25845,0.416968,0.141498,0.305034,0.231677,
2,1,0,1,0,38012,0.23951,0.239195,0.0564984,20,0.0111851,10,1.35141e-05,-4.24796,0.955246,0.0617642,0.136177,0.239195,
2,1,0,1,0,38019.5,0.247001,0.246684,0.0573655,20,0.0116819,10,1.41511e-05,-4.24135,2.60824,0.0226206,0.0503026,0.246684,
2,1,0,1,0,38027,0.254492,0.254157,0.0585467,20,0.0121841,10,1.48801e-05,-4.2325,0.923607,0.06388,0.145528,0.254157,
2,1,0,1,0,38034.5,0.261983,0.261673,0.0597391,20,0.0126954,10,1.56321e-05,-4.22374,0.737375,0.0800135,0.185661,0.261673,
2,1,0,1,0,38042,0.269474,0.269166,0.0604769,20,0.0132132,10,1.62783e-05,-4.21841,0.573823,0.102819,0.241281,0.269166,
2,1,0,1,0,38049.4,0.276965,0.276646,0.0610126,20,0.0137374,10,1.68789e-05,-4.21458,1.50889,0.0391016,0.0933535,0.276646,
2,1,0,1,0,38056.9,0.284456,0.284135,0.0621476,20,0.0142687,10,1.76583e-05,-4.20658,1.40632,0.0419535,0.102007,0.2841351,
2,1,0,1,0,38064.4,0.291947,0.29167,0.0629596,20,0.0148031,10,1.83634e-05,-4.20094,2.1028,0.0280578,0.0687366,0.29167,
2,1,0,1,0,38071.9,0.299438,0.299115,0.0637584,20,0.0153431,10,1.90711e-05,-4.19546,-0.00446174,-13.2236,-21.3426,0.299115,
2,1,0,1,0,38078.8,0.293745,0.293427,0.00920472,20,0.015436,10,2.70092e-06,-5.03599,0.0135919,4.34082,1.57742,0.293427,
2,1,0,1,0,38086.3,0.286254,0.286003,0.000489104,20,0.0154025,10,1.39885e-07,-6.3106,0.0204801,2.88084,0.863157,0.286003,
2,0,0,1,0,38093.7,0.278763,0.278445,-0.00541384,20,0.0153175,10,-1.50746e-06,-5.26649,-0.0178332,-3.30844,0.656405,0.278445,
2,0,0,1,0,38101.2,0.271272,0.270962,-0.00962368,20,0.0151938,10,-2.60765e-06,-5.01666,-0.0403009,-1.46399,0.550324,0.270962,
2,0,0,1,0,38108.7,0.263781,0.263444,-0.0135724,20,0.0150381,10,-3.57558e-06,-4.86734,-0.0607258,-0.971581,0.517116,0.263444,
2,0,0,1,0,38116.2,0.25629,0.255984,-0.0171264,20,0.0148546,10,-4.3841e-06,-4.76633,-0.0879487,-0.670846,0.442137,0.255984,
2,0,0,1,0,38123.7,0.248799,0.248494,-0.0201558,20,0.0146448,10,-5.00858e-06,-4.6956,-0.110699,-0.532975,0.424313,0.248494,
2,0,0,1,0,38131.2,0.241308,0.240979,-0.0235039,20,0.0144094,10,-5.66393e-06,-4.62886,-0.223987,-0.263408,0.243184,0.240979,
2,0,0,1,0,38138.7,0.233817,0.233474,-0.0261323,20,0.0141525,10,-6.10121e-06,-4.58282,-0.162498,-0.363081,0.372363,0.233474,
2,0,0,1,0,38146.2,0.226326,0.226012,-0.0286772,20,0.0138739,10,-6.48138e-06,-4.54246,-0.205461,-0.287159,0.323518,0.226012,
2,0,0,1,0,38153.7,0.218835,0.218527,-0.0321572,20,0.0135728,10,-7.0272e-06,-4.49272,-0.200608,-0.294105,0.364347,0.218527,
2,0,0,1,0,38161.2,0.211344,0.211025,-0.0347629,20,0.0132505,10,-7.33586e-06,-4.45888,-0.220894,-0.267097,0.360227,0.2110254,
2,0,0,1,0,38168.7,0.203853,0.203575,-0.0372802,20,0.012907,10,-7.58932e-06,-4.42852,-0.276333,-0.21351,0.313113,0.203575,
2,0,0,1,0,38176.1,0.196362,0.195998,-0.0403895,20,0.0125408,10,-7.91627e-06,-4.39373,-0.2451,-0.240719,0.380153,0.1959983,
2,0,0,1,0,38183.6,0.188871,0.18859,-0.04325,20,0.0121498,10,-8.15652e-06,-4.36401,-0.258117,-0.228578,0.389439,0.18859,
2,0,0,1,0,38191.1,0.18138,0.181055,-0.0472563,20,0.0117346,10,-8.55598e-06,-4.32554,-0.251528,-0.234567,0.42815,0.181055,
2,0,0,1,0,38198.6,0.173889,0.173575,-0.0514085,20,0.0112901,10,-8.92323e-06,-4.28896,-0.198547,-0.297159,0.59073,0.173575,
2,0,0,1,0,38206.1,0.166398,0.16605,-0.0567026,20,0.0108089,10,-9.41548e-06,-4.2464,-0.186873,-0.315722,0.693895,0.16605,
2,0,0,1,0,38213.6,0.158907,0.158587,-0.0633471,20,0.0102823,10,-1.0046e-05,-4.19827,-0.150321,-0.392494,0.96948,0.158587,
2,0,0,1,0,38221.1,0.151417,0.151089,-0.0728025,20,0.00969348,10,-1.09997e-05,-4.13785,-0.123695,-0.476982,1.35545,0.151089,
2,0,0,1,0,38228.6,0.143926,0.143593,-0.0877633,20,0.00901285,10,-1.26022e-05,-4.05669,-0.0721875,-0.817316,2.79806,0.143593,
2,0,0,1,0,38236.1,0.136435,0.136111,-0.111182,20,0.00818238,10,-1.5133e-05,-3.95397,-0.083102,-0.709971,3.0445,0.136111,
2,0,0,1,0,38243.6,0.128944,0.128586,-0.130984,20,0.00718046,10,-1.68427e-05,-3.88278,-0.131198,-0.4497,2.28695,0.1285861,
2,0,0,1,0,38251.1,0.121453,0.121119,-0.141195,20,0.006058,10,-1.71014e-05,-3.85018,-0.764911,-0.0771332,0.424761,0.121119,
2,0,0,1,0,38258.5,0.113962,0.113622,-0.141445,20,0.004899,10,-1.60712e-05,-3.84941,5.04331,0.0116987,-0.0647943,0.113622,
2,0,0,1,0,38266,0.106471,0.106166,-0.141236,20,0.00374463,10,-1.49945e-05,-3.85005,2.7765,0.0212498,-0.117314,0.106166,
2,0,0,1,0,38273.5,0.0989798,0.0986689,-0.138625,20,0.00260387,10,-1.3678e-05,-3.85816,0.849556,0.0694481,-0.374188,0.0986689,
2,0,0,1,0,38281,0.0914889,0.0911474,-0.134493,20,0.00148987,10,-1.22587e-05,-3.8713,0.441222,0.133719,-0.69949,0.09114743,
2,0,0,1,0,38288.5,0.083998,0.0836717,-0.12848,20,0.000414173,10,-1.07501e-05,-3.89117,0.34317,0.171926,-0.862816,0.0836717,
2,0,0,1,0,38296,0.076507,0.0761841,-0.124793,20,-0.000625694,10,-9.5072e-06,-3.90381,0.590461,0.099922,-0.485228,0.0761841,
2,0,0,1,0,38303.5,0.069016,0.0687071,-0.120786,20,-0.00163506,10,-8.29882e-06,-3.91798,0.840588,0.0701889,-0.332156,0.0687071,
2,0,0,1,0,38311,0.0615251,0.061244,-0.118064,20,-0.00261981,10,-7.23069e-06,-3.92788,0.90623,0.0651048,-0.299216,0.061244,
2,0,0,1,0,38318.5,0.0540342,0.0537067,-0.115524,20,-0.0035817,10,-6.20439e-06,-3.93733,0.737241,0.0800281,-0.359451,0.0537067,
2,0,0,1,0,38326,0.0465432,0.0462159,-0.112564,20,-0.00452359,10,-5.20225e-06,-3.9486,1.12155,0.0526057,-0.231513,0.0462159,
2,0,0,1,0,38333.5,0.0390522,0.0387019,-0.110064,20,-0.00544573,10,-4.25967e-06,-3.95836,0.713309,0.0827132,-0.354296,0.0387019,
2,0,0,1,0,38340.9,0.0315613,0.0311561,-0.107832,20,-0.00634813,10,-3.35961e-06,-3.96725,0.606698,0.0972478,-0.408567,0.0311561,
2,0,0,1,0,38348.4,0.0240703,0.0236981,-0.105567,20,-0.00723281,10,-2.50173e-06,-3.97647,2.01949,0.0292153,-0.12088,0.0236981,
2,0,0,1,0,38355.9,0.0165794,0.0162563,-0.105007,20,-0.00810558,10,-1.70702e-06,-3.97878,-4.81831,-0.012245,0.0501524,0.0162563,
2,0,0,1,0,38363.4,0.00908843,0.00871359,-0.105688,20,-0.00897944,10,-9.20924e-07,-3.97597,-0.86942,-0.0678613,0.2809,0.00871359,
2,0,0,1,0,38370.9,0.00159744,0.00121432,-0.109519,20,-0.00986908,10,-1.32992e-07,-3.96051, , , ,0.00121432,
2,0,0,1,0,38372.3,0.000199235,-0.000199285,-0.111066,20,-0.0100383,10,2.21338e-08,-3.95442, , , ,-0.000199285,

File: 20221101_1-115_003_TrumpetPlot_ParaChange_from10_every3_02_CV_C01_20.csv
mode,ox/red,error,control changes,counter inc.,time/s,control/V,Ewe/V,<I>/mA,cycle number,(Q-Qo)/C,I Range,P/W,log(|I|),Tafel slope mV/dec,alpha_eff,dI/d(E-IR),E-IR/V,
2,0,0,1,0,39742.6,2.44065e-05,-0.000344411,-0.402145,21,0.0000000E+000,10,1.38503e-07,-3.39562, , , ,-0.000344411,
2,0,0,1,0,39749.9,0.00729061,0.00692145,-0.0952129,21,-0.000961097,10,-6.59012e-07,-4.0213,-0.0301615,-1.95613,7.34639,0.00692145,
2,0,0,1,0,39757.4,0.0147815,0.0144163,-0.0585038,21,-0.00144339,10,-8.43412e-07,-4.23282,-0.0387854,-1.52119,3.45696,0.0144163,
2,0,0,1,0,39764.9,0.0222725,0.0219347,-0.0369749,21,-0.0017242,10,-8.11033e-07,-4.43209,-0.0377403,-1.56332,2.29619,0.0219347,
2,0,0,1,0,39772.4,0.0297635,0.0294244,-0.0221568,21,-0.00187128,10,-6.5195e-07,-4.65449,-0.029313,-2.01276,1.6962,0.0294244,
2,0,0,1,0,39779.9,0.0372544,0.036879,-0.00910821,21,-0.00191133,10,-3.35902e-07,-5.04057,-0.0116046,-5.0842,1.66528,0.036879,
2,0,0,1,0,39787.4,0.0447454,0.0444164,0.0022061,21,-0.00185915,10,9.79872e-08,-5.65637,0.00369297,15.9763,1.14121,0.0444164,
2,1,0,1,0,39794.8,0.0522363,0.0518732,0.0113389,21,-0.00172846,10,5.88182e-07,-4.94543,0.0171191,3.44643,1.53217,0.05187317,
2,1,0,1,0,39802.3,0.0597273,0.0593724,0.0206852,21,-0.0015244,10,1.22813e-06,-4.68434,0.043258,1.36391,1.12593,0.0593724,
2,1,0,1,0,39809.8,0.0672183,0.0668557,0.0296222,21,-0.00125238,10,1.98041e-06,-4.52838,0.0550375,1.072,1.24017,0.0668557,
2,1,0,1,0,39817.3,0.0747092,0.0743708,0.0367462,21,-0.000919058,10,2.73284e-06,-4.43479,0.0891468,0.66183,0.956494,0.0743708,
2,1,0,1,0,39824.8,0.0822001,0.0818497,0.0441292,21,-0.00053228,10,3.61197e-06,-4.35527,0.100474,0.587215,1.0134,0.0818497,
2,1,0,1,0,39832.3,0.0896911,0.0893469,0.0532169,21,-8.57101e-05,10,4.75477e-06,-4.27395,0.108373,0.544415,1.13507,0.0893469,
2,1,0,1,0,39839.8,0.0971821,0.096844,0.0628466,21,0.000431581,10,6.08631e-06,-4.20172,0.0830596,0.710334,1.73942,0.096844,
2,1,0,1,0,39847.3,0.104673,0.104327,0.074274,21,0.00102936,10,7.7488e-06,-4.12916,0.133837,0.440833,1.26311,0.104327,
2,1,0,1,0,39854.8,0.112164,0.11183,0.083131,21,0.00170198,10,9.2965e-06,-4.08024,0.221911,0.265872,0.856701,0.11183,
2,1,0,1,0,39862.3,0.119655,0.119333,0.0908191,21,0.00243924,10,1.08377e-05,-4.04182,0.269257,0.219121,0.778977,0.119333,
2,1,0,1,0,39869.8,0.127146,0.12682,0.0964271,21,0.00323104,10,1.22288e-05,-4.0158,0.354844,0.16627,0.63153,0.12682,
2,1,0,1,0,39877.3,0.134637,0.134324,0.0957386,21,0.00404987,10,1.286e-05,-4.01891,-0.188108,-0.313649,-1.1686,0.134324,
2,1,0,1,0,39884.7,0.142128,0.141826,0.0807359,21,0.00480319,10,1.14505e-05,-4.09293,-0.0731986,-0.806026,-2.53335,0.141826,
2,1,0,1,0,39892.2,0.149619,0.149269,0.0629361,21,0.00541998,10,9.39444e-06,-4.2011,-0.087185,-0.676722,-1.6861,0.149269,
2,1,0,1,0,39899.7,0.15711,0.156798,0.0544203,21,0.00593541,10,8.533e-06,-4.26424,-0.207734,-0.284017,-0.610412,0.156798,
2,1,0,1,0,39907.2,0.164601,0.164279,0.0515673,21,0.00641015,10,8.47145e-06,-4.28763,-0.315729,-0.186869,-0.377573,0.164279,
2,1,0,1,0,39914.7,0.172091,0.171778,0.0510442,21,0.0068678,10,8.76825e-06,-4.29205,-2.67275,-0.0220747,-0.0440605,0.171778,
2,1,0,1,0,39922.2,0.179582,0.179303,0.0507902,21,0.00732388,10,9.10685e-06,-4.29422,-0.835372,-0.0706272,-0.140711,0.179303,
2,1,0,1,0,39929.7,0.187073,0.18673,0.0513088,21,0.00777893,10,9.58091e-06,-4.28981,0.89362,0.0660236,0.132132,0.18673,
2,1,0,1,0,39937.2,0.194564,0.19423,0.0506849,21,0.00823631,10,9.8445e-06,-4.29512,-5.02369,-0.0117444,-0.0237484,0.19423,
2,1,0,1,0,39944.7,0.202055,0.201747,0.0523189,21,0.00869601,10,1.05552e-05,-4.28134,0.78576,0.0750865,0.15312,0.201747,
2,1,0,1,0,39952.2,0.209546,0.209244,0.0527158,21,0.00916221,10,1.10304e-05,-4.27806,1.48881,0.0396289,0.08196,0.209244,
2,1,0,1,0,39959.7,0.217037,0.216687,0.0537785,21,0.00963274,10,1.16531e-05,-4.26939,0.475512,0.124077,0.260601,0.216687,
2,1,0,1,0,39967.1,0.224528,0.224234,0.0552123,21,0.0101108,10,1.23805e-05,-4.25796,2.17481,0.0271288,0.058139,0.2242339,
2,1,0,1,0,39974.6,0.232019,0.231693,0.0557979,21,0.0105955,10,1.2928e-05,-4.25338,1.0245,0.0575891,0.126483,0.231693,
2,1,0,1,0,39982.1,0.23951,0.239196,0.0572074,21,0.01109,10,1.36838e-05,-4.24255,0.935316,0.0630803,0.141152,0.239196,
2,1,0,1,0,39989.6,0.247001,0.246656,0.0584125,21,0.0115912,10,1.44078e-05,-4.23349,0.492647,0.119761,0.272231,0.246656,
2,1,0,1,0,39997.1,0.254492,0.254135,0.0587044,21,0.0120986,10,1.49188e-05,-4.23133,0.995915,0.059242,0.13665,0.254135,
2,1,0,1,0,40004.6,0.261983,0.261664,0.0595129,21,0.0126105,10,1.55724e-05,-4.22539,0.361375,0.163265,0.383275,0.261664,
2,1,0,1,0,40012.1,0.269474,0.269141,0.0608293,21,0.0131306,10,1.63717e-05,-4.21589,0.672598,0.0877196,0.208318,0.269141,
2,1,0,1,0,40019.6,0.276965,0.276661,0.0616434,21,0.013656,10,1.70543e-05,-4.21011,0.525153,0.112348,0.271613,0.276661,
2,1,0,1,0,40027.1,0.284456,0.284144,0.0625953,21,0.014188,10,1.77861e-05,-4.20346,398.249,0.000148148,0.000361058,0.284144,
2,1,0,1,0,40034.6,0.291947,0.291642,0.0630741,21,0.0147222,10,1.8395e-05,-4.20015,1.17691,0.0501312,0.123831,0.291642,
2,1,0,1,0,40042.1,0.299438,0.299095,0.0642142,21,0.0152626,10,1.92062e-05,-4.19237,-0.00418157,-14.1095,-22.7059,0.299095,
2,1,0,1,0,40048.9,0.293745,0.293413,0.00842689,21,0.0153548,10,2.47256e-06,-5.07433,0.0129086,4.57059,1.56936,0.293413,
2,1,0,1,0,40056.4,0.286254,0.285925,-1.77154e-05,21,0.0153219,10,-5.06528e-09,-7.75165,0.0330463,1.78538,0.939193,0.285925,
2,1,0,1,0,40063.9,0.278763,0.278468,-0.00578329,21,0.0152365,10,-1.61046e-06,-5.23783,-0.0199997,-2.95004,0.611271,0.278468,
2,0,0,1,0,40071.4,0.271272,0.270939,-0.0104417,21,0.0151118,10,-2.82908e-06,-4.98123,-0.0629891,-0.93667,0.386609,0.270939,
2,0,0,1,0,40078.9,0.263781,0.263462,-0.0145222,21,0.0149543,10,-3.82606e-06,-4.83797,-0.0691655,-0.853026,0.470296,0.263462,
2,0,0,1,0,40086.3,0.25629,0.255991,-0.0178962,21,0.0147682,10,-4.58127e-06,-4.74724,-0.108157,-0.545503,0.380188,0.255991,
2,0,0,1,0,40093.8,0.248799,0.248448,-0.0207199,21,0.0145572,10,-5.14782e-06,-4.68361,-0.115458,-0.511009,0.4151,0.248448,
2,0,0,1,0,40101.3,0.241308,0.241002,-0.0238458,21,0.014323,10,-5.74689e-06,-4.62259,-0.168482,-0.350187,0.322818,0.241002,
2,0,0,1,0,40108.8,0.233817,0.233489,-0.0262884,21,0.0140686,10,-6.13805e-06,-4.58024,-0.149744,-0.394006,0.403525,0.233489,
2,0,0,1,0,40116.3,0.226326,0.226036,-0.0298245,21,0.0137895,10,-6.74143e-06,-4.52543,-0.183271,-0.321928,0.374556,0.226036,
2,0,0,1,0,40123.8,0.218835,0.218495,-0.0323491,21,0.01349,10,-7.06812e-06,-4.49014,-0.155947,-0.378335,0.470227,0.218495,
2,0,0,1,0,40131.3,0.211344,0.210996,-0.0350969,21,0.0131677,10,-7.4053e-06,-4.45473,-0.21627,-0.272807,0.375268,0.210996,
2,0,0,1,0,40138.8,0.203853,0.203522,-0.037727,21,0.012824,10,-7.67828e-06,-4.42335,-0.191881,-0.307483,0.453232,0.203522,
2,0,0,1,0,40146.3,0.196362,0.195997,-0.0408605,21,0.0124581,10,-8.00854e-06,-4.3887,-0.29654,-0.198962,0.315354,0.195997,
2,0,0,1,0,40153.8,0.188871,0.188547,-0.0443195,21,0.0120692,10,-8.35629e-06,-4.35341,-0.16858,-0.349982,0.600816,0.188547,
2,0,0,1,0,40161.3,0.18138,0.181043,-0.0475192,21,0.0116533,10,-8.60305e-06,-4.32313,-0.286835,-0.205693,0.381553,0.181043,
2,0,0,1,0,40168.7,0.173889,0.173552,-0.0517153,21,0.0112093,10,-8.97527e-06,-4.28638,-0.214195,-0.27545,0.553709,0.173552,
2,0,0,1,0,40176.2,0.166398,0.166069,-0.0564684,21,0.0107286,10,-9.37768e-06,-4.24819,-0.210063,-0.280868,0.621656,0.166069,
2,0,0,1,0,40183.7,0.158907,0.15856,-0.0631741,21,0.0102057,10,-1.00169e-05,-4.19946,-0.120603,-0.489208,1.20356,0.15856,
2,0,0,1,0,40191.2,0.151417,0.151037,-0.072975,21,0.00961927,10,-1.10219e-05,-4.13683,-0.110599,-0.533457,1.51544,0.151037,
2,0,0,1,0,40198.7,0.143926,0.143548,-0.0876335,21,0.00894092,10,-1.25796e-05,-4.05733,-0.0734627,-0.803129,2.7467,0.143548,
2,0,0,1,0,40206.2,0.136435,0.136102,-0.109304,21,0.00812041,10,-1.48766e-05,-3.96136,-0.0802525,-0.73518,3.14208,0.136102,
2,0,0,1,0,40213.7,0.128944,0.128597,-0.131143,21,0.0071281,10,-1.68645e-05,-3.88226,-0.144104,-0.409428,2.08514,0.128597,
2,0,0,1,0,40221.2,0.121453,0.121129,-0.141483,21,0.00601308,10,-1.71378e-05,-3.84929,-0.552466,-0.106794,0.588511,0.121129,
2,0,0,1,0,40228.7,0.113962,0.113632,-0.141679,21,0.00486089,10,-1.60993e-05,-3.84869,3.9478,0.014945,-0.0828329,0.113632,
2,0,0,1,0,40236.2,0.106471,0.106119,-0.14152,21,0.00371075,10,-1.5018e-05,-3.84918,1.60692,0.0367163,-0.203401,0.106119,
2,0,0,1,0,40243.7,0.0989798,0.0986233,-0.140321,21,0.00257297,10,-1.38389e-05,-3.85288,1.20341,0.0490272,-0.266787,0.0986233,
2,0,0,1,0,40251.1,0.0914889,0.0911517,-0.135731,21,0.00145883,10,-1.23721e-05,-3.86732,0.413303,0.142752,-0.75606,0.0911517,
2,0,0,1,0,40258.6,0.083998,0.0837035,-0.130455,21,0.000381859,10,-1.09196e-05,-3.88454,0.379847,0.155326,-0.790905,0.0837035,
2,0,0,1,0,40266.1,0.076507,0.0761639,-0.126327,21,-0.00066116,10,-9.62158e-06,-3.8985,0.469915,0.125555,-0.618706,0.0761639,
2,0,0,1,0,40273.6,0.069016,0.0686827,-0.122298,21,-0.00167186,10,-8.39976e-06,-3.91258,1.37747,0.0428321,-0.205079,0.0686827,
2,0,0,1,0,40281.1,0.0615251,0.061226,-0.119982,21,-0.00266132,10,-7.34603e-06,-3.92088,0.834119,0.0707333,-0.33146,0.061226,
2,0,0,1,0,40288.6,0.0540342,0.0536993,-0.117188,21,-0.00362657,10,-6.29288e-06,-3.93112,0.679787,0.0867918,-0.395336,0.0536993,
2,0,0,1,0,40296.1,0.0465432,0.0462456,-0.113519,21,-0.00456891,10,-5.24976e-06,-3.94493,0.755466,0.0780975,-0.347437,0.0462456,
2,0,0,1,0,40303.6,0.0390522,0.0387401,-0.111068,21,-0.0054888,10,-4.30276e-06,-3.95441,0.623516,0.0946247,-0.410015,0.0387401,
2,0,0,1,0,40311.1,0.0315613,0.0312069,-0.108821,21,-0.00638953,10,-3.39596e-06,-3.96329,0.705795,0.0835937,-0.354546,0.0312069,
2,0,0,1,0,40318.6,0.0240703,0.0237448,-0.10643,21,-0.0072716,10,-2.52716e-06,-3.97294,1.65336,0.035685,-0.149197,0.0237448,
2,0,0,1,0,40326.1,0.0165794,0.0162435,-0.10652,21,-0.00814497,10,-1.73026e-06,-3.97257,-6.52643,-0.00904016,0.0375836,0.0162435,
2,0,0,1,0,40333.5,0.00908843,0.00880371,-0.107358,21,-0.0090206,10,-9.45146e-07,-3.96917,-0.730591,-0.0807565,0.339964,0.00880371,
2,0,0,1,0,40341,0.00159744,0.00120686,-0.111106,21,-0.00991439,10,-1.3409e-07,-3.95426, , , ,0.00120686,
2,0,0,1,0,40342.4,0.000199235,-0.000193607,-0.111497,21,-0.0100842,10,2.15867e-08,-3.95274, , , ,-0.000193607,