Folder: Figs_alphaMnO2_OER_Tafel_sleope/Figure_codes/Fig_3-5/rawdata_trumpetplot_data/after 10th (part 76)

File: 20221101_1-115_003_TrumpetPlot_ParaChange_from10_every3_06_CV_C01_12.csv
mode,ox/red,error,control changes,counter inc.,time/s,control/V,Ewe/V,<I>/mA,cycle number,(Q-Qo)/C,I Range,P/W,log(|I|),Tafel slope mV/dec,alpha_eff,dI/d(E-IR),E-IR/V,
2,0,0,0,0,24791.6,2.44065e-05,-0.000363498,-1.41471,13,0.0000000E+000,10,5.14244e-07,-2.84933, , , ,-0.000363498,
2,1,0,1,0,24791.8,0.00729063,0.00698239,1.23958,13,9.72518e-05,10,8.65523e-06,-2.90673,0.0316271,1.86549,87.0741,0.00698239,
2,1,0,1,0,24792,0.014778,0.0144876,1.60627,13,0.000372192,10,2.3271e-05,-2.79418,0.106929,0.551767,34.3832,0.0144876,
2,1,0,1,0,24792.1,0.0222743,0.0219559,1.81264,13,0.000696697,10,3.97982e-05,-2.74169,0.166993,0.353309,25.018,0.0219559,
2,1,0,1,0,24792.3,0.0297626,0.0294463,1.99638,13,0.00105655,10,5.87861e-05,-2.69976,0.195962,0.301078,23.4276,0.0294463,
2,1,0,1,0,24792.5,0.0372544,0.03691,2.17849,13,0.0014504,10,8.04081e-05,-2.66184,0.224166,0.263198,22.3367,0.03691,
2,1,0,1,0,24792.7,0.0447472,0.0444109,2.34787,13,0.00187783,10,0.000104271,-2.62933,0.225872,0.26121,24.0142,0.0444109,
2,1,0,1,0,24792.9,0.0522345,0.051908,2.52654,13,0.00233776,10,0.000131147,-2.59747,0.24326,0.242538,23.8575,0.051908,
2,1,0,1,0,24793.1,0.0597309,0.0594362,2.68504,13,0.00282912,10,0.000159589,-2.57105,0.298691,0.197529,20.6687,0.0594362,
2,1,0,1,0,24793.3,0.0672182,0.0669041,2.82873,13,0.00334833,10,0.000189254,-2.54841,0.339874,0.173594,19.1409,0.0669041,
2,1,0,1,0,24793.4,0.0747074,0.074415,2.95659,13,0.00389305,10,0.000220015,-2.52921,0.433355,0.136147,15.6598,0.074415,
2,1,0,1,0,24793.6,0.0822019,0.0818855,3.05412,13,0.00445989,10,0.000250088,-2.51511,0.553065,0.106678,12.7598,0.0818855,
2,1,0,1,0,24793.8,0.0896911,0.0893696,3.17017,13,0.00504582,10,0.000283317,-2.49892,0.452989,0.130246,16.1291,0.0893696,
2,1,0,1,0,24794,0.097182,0.0968661,3.32699,13,0.00565699,10,0.000322273,-2.47795,0.270266,0.218304,28.3764,0.0968661,
2,1,0,1,0,24794.2,0.104675,0.104351,3.58106,13,0.00630597,10,0.000373689,-2.44599,0.211952,0.278364,38.9429,0.1043514,
2,1,0,1,0,24794.4,0.112162,0.111828,3.88494,13,0.0070079,10,0.000434444,-2.41062,0.239409,0.24644,37.2878,0.111828,
2,1,0,1,0,24794.6,0.119655,0.119359,4.13855,13,0.00776365,10,0.000493974,-2.38315,0.36622,0.161105,25.9986,0.119359,
2,1,0,1,0,24794.8,0.127146,0.126829,4.291,13,0.00855838,10,0.000544225,-2.36744,0.525378,0.1123,18.8541,0.126829,
2,1,0,1,0,24794.9,0.134635,0.134334,4.42104,13,0.00937872,10,0.000593896,-2.35448,0.949982,0.0621064,10.7032,0.134334,
2,1,0,1,0,24795.1,0.14213,0.141819,4.40115,13,0.0102129,10,0.000624167,-2.35643,-0.465129,-0.126847,-21.7286,0.141819,
2,1,0,1,0,24795.3,0.149619,0.149298,3.9965,13,0.0110102,10,0.000596668,-2.39832,-0.108832,-0.542118,-84.2653,0.149298,
2,1,0,1,0,24795.5,0.157106,0.156793,3.26094,13,0.0116937,10,0.000511294,-2.48666,-0.0759853,-0.776466,-98.6052,0.156793,
2,1,0,1,0,24795.7,0.164602,0.164288,2.64258,13,0.0122452,10,0.000434144,-2.57797,-0.09569,-0.616574,-63.8283,0.164288,
2,1,0,1,0,24795.9,0.172091,0.171753,2.28173,13,0.0127061,10,0.000391893,-2.64174,-0.148542,-0.397193,-35.441,0.171753,
2,1,0,1,0,24796.1,0.179582,0.179294,2.07688,13,0.0131161,10,0.000372372,-2.68259,-0.247316,-0.238561,-19.3965,0.179294,
2,1,0,1,0,24796.3,0.187074,0.186776,1.96106,13,0.0134969,10,0.000366279,-2.70751,-0.416046,-0.141811,-10.8729,0.186776,
2,1,0,1,0,24796.4,0.194563,0.194274,1.89556,13,0.0138602,10,0.000368258,-2.72226,-0.494752,-0.119252,-8.78057,0.194274,
2,1,0,1,0,24796.6,0.202059,0.201718,1.84277,13,0.0142129,10,0.000371719,-2.73453,-0.647525,-0.0911161,-6.54409,0.201718,
2,1,0,1,0,24796.8,0.209546,0.209245,1.80929,13,0.0145577,10,0.000378584,-2.74249,-0.792953,-0.0744054,-5.25502,0.209245,
2,1,0,1,0,24797,0.217035,0.216711,1.77984,13,0.0148965,10,0.00038571,-2.74962,-1.07575,-0.0548455,-3.80941,0.216711,
2,1,0,1,0,24797.2,0.22453,0.224259,1.7549,13,0.0152312,10,0.000393553,-2.75575,-1.06948,-0.0551668,-3.79665,0.224259,
2,1,0,1,0,24797.4,0.232019,0.231726,1.74394,13,0.015562,10,0.000404116,-2.75847,-2.54735,-0.0231614,-1.57316,0.231726,
2,1,0,1,0,24797.6,0.23951,0.239201,1.72814,13,0.0158899,10,0.000413374,-2.76242,-1.56631,-0.037668,-2.5365,0.239201,
2,1,0,1,0,24797.8,0.247003,0.246619,1.70924,13,0.016215,10,0.000421532,-2.7672,-1.39547,-0.0422797,-2.8264,0.246619,
2,1,0,1,0,24797.9,0.25449,0.2542,1.6982,13,0.0165373,10,0.000431684,-2.77001,-1.91555,-0.0308006,-2.0386,0.2542,
2,1,0,1,0,24798.1,0.261983,0.261652,1.68363,13,0.0168571,10,0.000440525,-2.77375,-2.84623,-0.0207292,-1.36339,0.261652,
2,1,0,1,0,24798.3,0.269474,0.269181,1.66948,13,0.0171744,10,0.000449392,-2.77742,-3.25344,-0.0181346,-1.18377,0.269181,
2,1,0,1,0,24798.5,0.276963,0.276664,1.65833,13,0.0174891,10,0.0004588,-2.78033,-5.39549,-0.0109351,-0.705719,0.276664,
2,1,0,1,0,24798.7,0.284458,0.28415,1.64171,13,0.0178013,10,0.000466493,-2.7847,-4.5857,-0.0128661,-0.824682,0.28415,
2,1,0,1,0,24798.9,0.291947,0.291627,1.6278,13,0.0181103,10,0.000474711,-2.7884,-0.908899,-0.0649137,-4.1118,0.291627,
2,1,0,1,0,24799.1,0.299434,0.299133,1.61187,13,0.0184162,10,0.000482165,-2.79267,-0.0137983,-4.2759,-225.031,0.299133,
2,0,0,1,0,24799.2,0.294196,0.293891,-0.361408,13,0.0184484,10,-0.000106215,-3.442,-0.0123489,-4.77774,59.0907,0.293891,
2,0,0,1,0,24799.4,0.286701,0.286377,-0.59285,13,0.0183516,10,-0.000169778,-3.22706,-0.0636705,-0.926645,21.3291,0.286377,
2,0,0,1,0,24799.6,0.279212,0.278874,-0.721606,13,0.018224,10,-0.000201237,-3.1417,-0.12918,-0.456728,12.8654,0.278874,
2,0,0,1,0,24799.8,0.271725,0.271353,-0.808272,13,0.0180766,10,-0.000219327,-3.09244,-0.140502,-0.419924,13.3083,0.271353,
2,0,0,1,0,24800,0.264228,0.263955,-0.887784,13,0.0179135,10,-0.000234335,-3.05169,-0.202731,-0.291026,10.0478,0.263955,
2,0,0,1,0,24800.2,0.256741,0.256427,-0.947776,13,0.0177379,10,-0.000243035,-3.02329,-0.309078,-0.190891,7.09343,0.256427,
2,0,0,1,0,24800.4,0.249248,0.248937,-1.00743,13,0.017551,10,-0.000250786,-2.99679,-0.325939,-0.181016,7.10162,0.248937,
2,0,0,1,0,24800.5,0.241756,0.241408,-1.05441,13,0.017354,10,-0.000254543,-2.97699,-0.417963,-0.141161,5.83741,0.241408,
2,0,0,1,0,24800.7,0.234268,0.233952,-1.10285,13,0.0171476,10,-0.000258015,-2.95748,-0.429719,-0.137299,5.97066,0.233952,
2,0,0,1,0,24800.9,0.226772,0.226467,-1.16232,13,0.016932,10,-0.000263227,-2.93468,-0.341247,-0.172895,7.75653,0.226467,
2,0,0,1,0,24801.1,0.219284,0.218973,-1.20355,13,0.0167081,10,-0.000263545,-2.91954,-0.495706,-0.119022,5.57591,0.218973,
2,0,0,1,0,24801.3,0.211796,0.211481,-1.24689,13,0.0164755,10,-0.000263693,-2.90417,-0.52157,-0.11312,5.49322,0.211481,
2,0,0,1,0,24801.5,0.204301,0.203959,-1.29573,13,0.0162341,10,-0.000264275,-2.88749,-0.61587,-0.0957995,4.8314,0.203959,
2,0,0,1,0,24801.7,0.196812,0.196496,-1.33345,13,0.0159841,10,-0.000262017,-2.87502,-0.472231,-0.124939,6.55945,0.196496,
2,0,0,1,0,24801.8,0.189321,0.188961,-1.39445,13,0.0157244,10,-0.000263496,-2.8556,-0.436144,-0.135276,7.35817,0.188961,
2,0,0,1,0,24802,0.181828,0.181474,-1.45927,13,0.0154541,10,-0.00026482,-2.83586,-0.364105,-0.162041,9.20307,0.181474,
2,0,0,1,0,24802.2,0.174341,0.173977,-1.52947,13,0.0151713,10,-0.000266093,-2.81546,-0.316858,-0.186203,11.1524,0.173977,
2,0,0,1,0,24802.4,0.166848,0.166549,-1.63551,13,0.0148723,10,-0.000272393,-2.78635,-0.274323,-0.215075,13.6351,0.166549,
2,0,0,1,0,24802.6,0.159357,0.159032,-1.76835,13,0.0145514,10,-0.000281223,-2.75243,-0.191008,-0.308887,21.354,0.159032,
2,0,0,1,0,24802.8,0.151868,0.151556,-1.97958,13,0.0141984,10,-0.000300017,-2.70343,-0.125381,-0.470567,36.5956,0.151556,
2,0,0,1,0,24803,0.144373,0.144077,-2.34536,13,0.0137921,10,-0.000337913,-2.62979,-0.0880097,-0.67038,61.4013,0.144077,
2,0,0,1,0,24803.2,0.136884,0.136541,-2.88335,13,0.0133011,10,-0.000393695,-2.5401,-0.0816032,-0.723011,81.4704,0.136541,
2,0,0,1,0,24803.3,0.129393,0.12906,-3.51087,13,0.0126981,10,-0.000453115,-2.45458,-0.100901,-0.584731,79.899,0.12906,
2,0,0,1,0,24803.5,0.1219,0.121591,-4.0331,13,0.0119859,10,-0.000490389,-2.39436,-0.163453,-0.360959,56.5703,0.121591,
2,0,0,1,0,24803.7,0.114413,0.114108,-4.35937,13,0.0111937,10,-0.000497441,-2.36058,-0.341995,-0.172517,29.3557,0.114108,
2,0,0,1,0,24803.9,0.10692,0.106579,-4.49162,13,0.010358,10,-0.000478711,-2.3476,-2.14317,-0.0275293,4.81565,0.106579,
2,0,0,1,0,24804.1,0.0994284,0.0991452,-4.43036,13,0.00951637,10,-0.000439249,-2.35356,0.576709,0.102305,-17.6574,0.0991452,
2,0,0,1,0,24804.3,0.0919401,0.0916052,-4.24269,13,0.00870016,10,-0.000388653,-2.37236,0.352095,0.167568,-27.7687,0.0916052,
2,0,0,1,0,24804.5,0.0844447,0.0841337,-4.05472,13,0.00791995,10,-0.000341138,-2.39204,0.402353,0.146638,-23.1541,0.08413367,
2,0,0,1,0,24804.7,0.0769565,0.0766306,-3.91007,13,0.00717247,10,-0.000299631,-2.40782,0.510774,0.115511,-17.6147,0.0766306,
2,0,0,1,0,24804.8,0.0694682,0.0691593,-3.79896,13,0.00644768,10,-0.000262734,-2.42034,0.639077,0.0923206,-13.6923,0.0691593,
2,0,0,1,0,24805,0.0619728,0.0617011,-3.69877,13,0.0057412,10,-0.000228218,-2.43194,0.586649,0.100571,-14.5166,0.06170113,
2,0,0,1,0,24805.2,0.0544836,0.054163,-3.59304,13,0.00505463,10,-0.00019461,-2.44454,0.755008,0.0781449,-10.9742,0.054163,
2,0,0,1,0,24805.4,0.0469927,0.0466673,-3.48543,13,0.00438748,10,-0.000162656,-2.45774,0.514568,0.114659,-15.594,0.0466673,
2,0,0,1,0,24805.6,0.0394999,0.0391634,-3.37075,13,0.00374203,10,-0.00013201,-2.47227,0.468237,0.126005,-16.5287,0.0391634,
2,0,0,1,0,24805.8,0.0320125,0.0316925,-3.22798,13,0.00312065,10,-0.000102303,-2.49107,0.409583,0.144049,-18.1897,0.0316925,
2,0,0,1,0,24806,0.0245198,0.0242089,-3.09276,13,0.0025248,10,-7.48723e-05,-2.50965,0.377572,0.156262,-18.8536,0.0242089,
2,0,0,1,0,24806.2,0.0170289,0.0166813,-2.96836,13,0.00195394,10,-4.95161e-05,-2.52748,0.452759,0.130312,-15.1146,0.0166813,
2,0,0,1,0,24806.3,0.0095397,0.0092698,-2.87346,13,0.00140391,10,-2.66364e-05,-2.5416,0.663019,0.0889869,-9.98668,0.0092698,
2,0,0,1,0,24806.5,0.00204518,0.00165618,-2.85278,13,0.000867966,10,-4.72472e-06,-2.54473,1.96967,0.0299542,-3.29287,0.00165618,
2,0,0,1,0,24806.6,0.000177222,-0.000217671,-2.81031,13,0.00073494,10,6.11723e-07,-2.55125, , , ,-0.000217671,

File: 20221101_1-115_003_TrumpetPlot_ParaChange_from10_every3_06_CV_C01_13.csv
mode,ox/red,error,control changes,counter inc.,time/s,control/V,Ewe/V,<I>/mA,cycle number,(Q-Qo)/C,I Range,P/W,log(|I|),Tafel slope mV/dec,alpha_eff,dI/d(E-IR),E-IR/V,
2,0,0,0,0,26761.7,2.44065e-05,-0.000401673,-1.42043,14,0.0000000E+000,10,5.70549e-07,-2.84758, , , ,-0.000401673,
2,1,0,1,0,26761.9,0.00729063,0.0069674,1.2588,14,9.84759e-05,10,8.77058e-06,-2.90004,0.0314731,1.87462,89.0745,0.0069674,
2,1,0,1,0,26762.1,0.014778,0.0144396,1.62878,14,0.000377913,10,2.35189e-05,-2.78814,0.112287,0.525441,33.329,0.0144396,
2,1,0,1,0,26762.3,0.0222743,0.0219572,1.83335,14,0.000706243,10,4.02553e-05,-2.73676,0.168091,0.351,25.0078,0.0219572,
2,1,0,1,0,26762.5,0.0297626,0.0294517,2.01234,14,0.00106924,10,5.92671e-05,-2.6963,0.202022,0.292048,22.9287,0.0294517,
2,1,0,1,0,26762.6,0.0372544,0.0369321,2.1869,14,0.00146581,10,8.07668e-05,-2.66017,0.212227,0.278004,23.7739,0.0369321,
2,1,0,1,0,26762.8,0.0447472,0.0444164,2.36516,14,0.00189591,10,0.000105052,-2.62614,0.241823,0.24398,22.5601,0.0444164,
2,1,0,1,0,26763,0.0522345,0.0519306,2.53418,14,0.00235844,10,0.000131602,-2.59616,0.257277,0.229325,22.7362,0.0519306,
2,1,0,1,0,26763.2,0.0597309,0.0594458,2.69843,14,0.00285249,10,0.00016041,-2.56889,0.278269,0.212025,22.2916,0.0594458,
2,1,0,1,0,26763.4,0.0672182,0.0668615,2.84725,14,0.00337451,10,0.000190371,-2.54557,0.328361,0.17968,19.906,0.0668615,
2,1,0,1,0,26763.6,0.0747074,0.0743707,2.96455,14,0.00392215,10,0.000220476,-2.52804,0.477149,0.123651,14.3265,0.0743707,
2,1,0,1,0,26763.8,0.0822019,0.0818821,3.07381,14,0.00449195,10,0.00025169,-2.51232,0.544785,0.1083,12.9822,0.0818821,
2,1,0,1,0,26764,0.0896911,0.0893902,3.18196,14,0.00508039,10,0.000284436,-2.49731,0.402418,0.146614,18.2488,0.0893902,
2,1,0,1,0,26764.1,0.097182,0.0968912,3.33842,14,0.00569392,10,0.000323464,-2.47646,0.279056,0.211427,27.6219,0.0968912,
2,1,0,1,0,26764.3,0.104675,0.104372,3.60006,14,0.00634516,10,0.000375746,-2.44369,0.207217,0.284725,39.9016,0.104372,
2,1,0,1,0,26764.5,0.112162,0.111842,3.89331,14,0.00704946,10,0.000435438,-2.40968,0.233425,0.252758,38.4365,0.111842,
2,1,0,1,0,26764.7,0.119655,0.119341,4.16353,14,0.0078086,10,0.000496881,-2.38054,0.351402,0.167899,27.228,0.119341,
2,1,0,1,0,26764.9,0.127146,0.12682,4.31841,14,0.00860722,10,0.000547662,-2.36468,0.519612,0.113546,19.1395,0.12682,
2,1,0,1,0,26765.1,0.134635,0.1343,4.43377,14,0.00943125,10,0.000595455,-2.35323,0.896608,0.0658036,11.4027,0.1343,
2,1,0,1,0,26765.3,0.14213,0.141823,4.42216,14,0.0102687,10,0.000627166,-2.35437,-0.470078,-0.125511,-21.586,0.1418234,
2,1,0,1,0,26765.5,0.149619,0.149294,4.01368,14,0.0110691,10,0.000599219,-2.39646,-0.107565,-0.548508,-85.537,0.149294,
2,1,0,1,0,26765.6,0.157106,0.156759,3.26127,14,0.0117544,10,0.000511232,-2.48661,-0.0737417,-0.80009,-101.767,0.1567587,
2,1,0,1,0,26765.8,0.164602,0.164281,2.63852,14,0.0123051,10,0.000433459,-2.57864,-0.0913156,-0.646111,-66.525,0.164281,
2,1,0,1,0,26766,0.172091,0.171785,2.26591,14,0.0127638,10,0.000389249,-2.64476,-0.142924,-0.412808,-36.6629,0.171785,
2,1,0,1,0,26766.2,0.179582,0.179305,2.06653,14,0.0131714,10,0.000370539,-2.68476,-0.233015,-0.253203,-20.5104,0.179305,
2,1,0,1,0,26766.4,0.187074,0.186763,1.95926,14,0.0135506,10,0.000365917,-2.70791,-0.453201,-0.130185,-9.91102,0.186763,
2,1,0,1,0,26766.6,0.194563,0.194231,1.88436,14,0.0139127,10,0.000366002,-2.72484,-0.650663,-0.0906768,-6.68351,0.194231,
2,1,0,1,0,26766.8,0.202059,0.201784,1.84016,14,0.0142648,10,0.000371316,-2.73514,-0.727769,-0.0810697,-5.81007,0.201784,
2,1,0,1,0,26767,0.209546,0.209253,1.80935,14,0.0146092,10,0.000378612,-2.74248,-0.798249,-0.0739118,-5.21337,0.209253,
2,1,0,1,0,26767.1,0.217035,0.216734,1.77549,14,0.0149479,10,0.000384808,-2.75068,-1.38208,-0.0426892,-2.97482,0.216734,
2,1,0,1,0,26767.3,0.22453,0.224209,1.76271,14,0.0152828,10,0.000395215,-2.75382,-1.36541,-0.0432104,-2.96782,0.224209,
2,1,0,1,0,26767.5,0.232019,0.231726,1.74384,14,0.0156139,10,0.000404094,-2.75849,-3.88478,-0.0151875,-1.03309,0.231726,
2,1,0,1,0,26767.7,0.23951,0.239208,1.72634,14,0.0159421,10,0.000412953,-2.76287,-1.63334,-0.0361224,-2.44175,0.239208,
2,1,0,1,0,26767.9,0.247003,0.246712,1.71671,14,0.0162675,10,0.000423533,-2.7653,-1.4236,-0.0414443,-2.7608,0.246712,
2,1,0,1,0,26768.1,0.25449,0.254177,1.696,14,0.01659,10,0.000431085,-2.77057,-1.71094,-0.034484,-2.28663,0.254177,
2,1,0,1,0,26768.3,0.261983,0.261693,1.68184,14,0.0169102,10,0.000440124,-2.77422,-1.84673,-0.0319484,-2.10171,0.261693,
2,1,0,1,0,26768.4,0.269474,0.269133,1.67573,14,0.0172277,10,0.000450995,-2.7758,-27.8976,-0.00211488,-0.137952,0.269133,
2,1,0,1,0,26768.6,0.276963,0.276659,1.65629,14,0.0175426,10,0.000458229,-2.78086,-2.02366,-0.0291551,-1.8883,0.276659,
2,1,0,1,0,26768.8,0.284458,0.284183,1.64545,14,0.017855,10,0.000467609,-2.78371,-2.23804,-0.0263623,-1.6906,0.284183,
2,1,0,1,0,26769,0.291947,0.29163,1.62769,14,0.0181641,10,0.000474683,-2.78843,-1.31863,-0.0447433,-2.83755,0.29163,
2,1,0,1,0,26769.2,0.299434,0.29912,1.60607,14,0.0184704,10,0.000480409,-2.79423,-0.0135274,-4.36153,-230.808,0.29912,
2,0,0,1,0,26769.4,0.294196,0.293919,-0.380822,14,0.0185018,10,-0.000111931,-3.41928,-0.0122925,-4.79968,60.8143,0.2939193,
2,0,0,1,0,26769.5,0.286701,0.286409,-0.609418,14,0.0184019,10,-0.000174543,-3.21508,-0.0698803,-0.844301,20.0883,0.286409,
2,0,0,1,0,26769.7,0.279212,0.278928,-0.736643,14,0.0182714,10,-0.00020547,-3.13274,-0.121351,-0.486193,13.9551,0.278928,
2,0,0,1,0,26769.9,0.271725,0.271398,-0.828454,14,0.0181212,10,-0.000224841,-3.08173,-0.144025,-0.409651,13.1477,0.2713978,
2,0,0,1,0,26770.1,0.264228,0.263903,-0.90095,14,0.0179555,10,-0.000237763,-3.0453,-0.254564,-0.231769,8.14159,0.263903,
2,0,0,1,0,26770.3,0.256741,0.256432,-0.964853,14,0.0177774,10,-0.000247419,-3.01554,-0.273696,-0.215567,8.09479,0.256432,
2,0,0,1,0,26770.5,0.249248,0.248927,-1.01932,14,0.017588,10,-0.000253737,-2.99169,-0.4355,-0.135476,5.38482,0.248927,
2,0,0,1,0,26770.7,0.241756,0.2415,-1.06403,14,0.0173884,10,-0.000256963,-2.97305,-0.362798,-0.162625,6.83834,0.2415,
2,0,0,1,0,26770.9,0.234268,0.233944,-1.1199,14,0.0171796,10,-0.000261995,-2.95082,-0.429587,-0.137341,6.01905,0.233944,
2,0,0,1,0,26771,0.226772,0.226457,-1.17101,14,0.0169617,10,-0.000265183,-2.93144,-0.343133,-0.171945,7.80623,0.226457,
2,0,0,1,0,26771.2,0.219284,0.219023,-1.20971,14,0.0167355,10,-0.000264954,-2.91732,-0.461052,-0.127968,6.07061,0.219023,
2,0,0,1,0,26771.4,0.211796,0.211533,-1.26004,14,0.0165008,10,-0.00026654,-2.89962,-0.483566,-0.12201,5.97045,0.211533,
2,0,0,1,0,26771.6,0.204301,0.203981,-1.30463,14,0.0162572,10,-0.00026612,-2.88451,-0.634721,-0.0929542,4.7342,0.203981,
2,0,0,1,0,26771.8,0.196812,0.19651,-1.34798,14,0.0160052,10,-0.000264892,-2.87032,-0.47323,-0.124675,6.58552,0.1965099,
2,0,0,1,0,26772,0.189321,0.189012,-1.40611,14,0.0157434,10,-0.000265773,-2.85198,-0.413179,-0.142795,7.827,0.189012,
2,0,0,1,0,26772.2,0.181828,0.181535,-1.46999,14,0.015471,10,-0.000266855,-2.83268,-0.357407,-0.165078,9.458,0.181535,
2,0,0,1,0,26772.4,0.174341,0.173977,-1.54417,14,0.0151861,10,-0.00026865,-2.8113,-0.306982,-0.192193,11.5686,0.173977,
2,0,0,1,0,26772.5,0.166848,0.166494,-1.64148,14,0.0148851,10,-0.000273297,-2.78477,-0.271144,-0.217597,13.8987,0.166494,
2,0,0,1,0,26772.7,0.159357,0.159044,-1.77913,14,0.0145622,10,-0.00028296,-2.74979,-0.179968,-0.327836,22.8065,0.159044,
2,0,0,1,0,26772.9,0.151868,0.151543,-1.99264,14,0.0142072,10,-0.000301972,-2.70057,-0.127198,-0.463843,36.1289,0.151543,
2,0,0,1,0,26773.1,0.144373,0.144051,-2.35081,14,0.0137995,10,-0.000338638,-2.62878,-0.087598,-0.673531,61.8631,0.144051,
2,0,0,1,0,26773.3,0.136884,0.136581,-2.88818,14,0.0133075,10,-0.000394469,-2.53938,-0.0825258,-0.714928,80.7975,0.136581,
2,0,0,1,0,26773.5,0.129393,0.129107,-3.51671,14,0.0127038,10,-0.000454033,-2.45386,-0.0989856,-0.596046,81.4238,0.1291071,
2,0,0,1,0,26773.7,0.1219,0.121598,-4.03981,14,0.0119906,10,-0.000491232,-2.39364,-0.165232,-0.357073,56.0716,0.1215978,
2,0,0,1,0,26773.9,0.114413,0.114101,-4.37511,14,0.0111964,10,-0.000499206,-2.35901,-0.310973,-0.189727,32.3872,0.114101,
2,0,0,1,0,26774,0.10692,0.106621,-4.5141,14,0.0103572,10,-0.000481297,-2.34543,-2.62308,-0.0224926,3.95122,0.106621,
2,0,0,1,0,26774.2,0.0994284,0.0991365,-4.44967,14,0.00951161,10,-0.000441124,-2.35167,0.570105,0.10349,-17.9597,0.0991365,
2,0,0,1,0,26774.4,0.0919401,0.09162,-4.26165,14,0.0086918,10,-0.000390453,-2.37042,0.371711,0.158725,-26.4051,0.09162,
2,0,0,1,0,26774.6,0.0844447,0.0841081,-4.06452,14,0.00790892,10,-0.000341859,-2.39099,0.395033,0.149355,-23.6694,0.0841081,
2,0,0,1,0,26774.8,0.0769565,0.0766187,-3.91731,14,0.00715952,10,-0.000300139,-2.40701,0.534871,0.110307,-16.8768,0.0766187,
2,0,0,1,0,26775,0.0694682,0.0691638,-3.80607,14,0.00643326,10,-0.000263242,-2.41952,0.736634,0.080094,-11.9001,0.0691638,
2,0,0,1,0,26775.2,0.0619728,0.0616664,-3.70684,14,0.00572559,10,-0.000228587,-2.431,0.59116,0.0998039,-14.4297,0.0616664,
2,0,0,1,0,26775.4,0.0544836,0.054162,-3.59804,14,0.0050382,10,-0.000194877,-2.44393,0.676865,0.0871666,-12.2529,0.054162,
2,0,0,1,0,26775.5,0.0469927,0.0466489,-3.48887,14,0.00437052,10,-0.000162752,-2.45731,0.513954,0.114796,-15.6146,0.0466489,
2,0,0,1,0,26775.7,0.0394999,0.0391689,-3.3705,14,0.00372507,10,-0.000132019,-2.47231,0.475057,0.124196,-16.2972,0.0391689,
2,0,0,1,0,26775.9,0.0320125,0.0316816,-3.22338,14,0.00310424,10,-0.000102122,-2.49169,0.374237,0.157654,-19.8726,0.0316816,
2,0,0,1,0,26776.1,0.0245198,0.0241866,-3.09158,14,0.0025095,10,-7.4775e-05,-2.50982,0.376957,0.156516,-18.836,0.0241866,
2,0,0,1,0,26776.3,0.0170289,0.0166733,-2.96064,14,0.00193976,10,-4.93636e-05,-2.52861,0.439609,0.13421,-15.5366,0.0166733,
2,0,0,1,0,26776.5,0.0095397,0.00923333,-2.86556,14,0.00139097,10,-2.64586e-05,-2.54279,0.725698,0.081301,-9.10338,0.00923333,
2,0,0,1,0,26776.7,0.00204518,0.00166981,-2.85348,14,0.000856002,10,-4.76478e-06,-2.54462,4.98718,0.0118303,-1.29934,0.00166981,
2,0,0,1,0,26776.7,0.000177222,-0.000174152,-2.81166,14,0.000723085,10,4.89656e-07,-2.55104, , , ,-0.000174152,