Folder: Figs_alphaMnO2_OER_Tafel_sleope/Figure_codes/Fig_3-5/rawdata_trumpetplot_data/after 10th (part 32)

File: 20221101_1-115_003_TrumpetPlot_ParaChange_from10_every3_03_CV_C01_27.csv
mode,ox/red,error,control changes,counter inc.,time/s,control/V,Ewe/V,<I>/mA,cycle number,(Q-Qo)/C,I Range,P/W,log(|I|),Tafel slope mV/dec,alpha_eff,dI/d(E-IR),E-IR/V,
2,0,0,1,0,54133.5,2.44065e-05,-0.00042076,-0.0917617,28,0.0000000E+000,10,3.86096e-08,-4.03734, , , ,-0.00042076,
2,1,0,1,0,54135,0.00729041,0.00696998,0.19751,28,0.000247989,10,1.37664e-06,-3.70441,0.086163,0.684749,5.2647,0.00696998,
2,1,0,1,0,54136.5,0.0147815,0.0144165,0.228439,28,0.000590872,10,3.29328e-06,-3.64123,0.144132,0.409347,3.65006,0.0144165,
2,1,0,1,0,54138,0.0222725,0.021904,0.255333,28,0.000975403,10,5.59281e-06,-3.59289,0.168738,0.349654,3.47861,0.02190396,
2,1,0,1,0,54139.5,0.0297635,0.0294371,0.28074,28,0.00139843,10,8.26418e-06,-3.5517,0.194925,0.30268,3.30856,0.0294371,
2,1,0,1,0,54141,0.0372545,0.0368908,0.304806,28,0.00186001,10,1.12445e-05,-3.51598,0.23406,0.252073,3.01686,0.0368908,
2,1,0,1,0,54142.5,0.0447456,0.0443771,0.330674,28,0.00235924,10,1.46744e-05,-3.4806,0.249826,0.236165,3.04716,0.0443771,
2,1,0,1,0,54144,0.0522367,0.0518724,0.354416,28,0.00289423,10,1.83844e-05,-3.45049,0.222948,0.264635,3.65927,0.0518724,
2,1,0,1,0,54145.5,0.0597277,0.0593771,0.374326,28,0.00346215,10,2.22264e-05,-3.42675,0.351113,0.168037,2.4573,0.0593771,
2,1,0,1,0,54147,0.0672187,0.0668731,0.393858,28,0.00405968,10,2.63385e-05,-3.40466,0.480013,0.122913,1.88187,0.0668731,
2,1,0,1,0,54148.5,0.0747092,0.074357,0.408095,28,0.0046818,10,3.03447e-05,-3.38924,0.551947,0.106894,1.699,0.074357,
2,1,0,0,0,54150,0.0822001,0.0818275,0.420821,28,0.00532596,10,3.44348e-05,-3.3759,0.580202,0.101689,1.67869,0.0818275,
2,1,0,1,0,54151.5,0.0896911,0.0893342,0.440866,28,0.00599451,10,3.93844e-05,-3.35569,0.297779,0.198134,3.42136,0.08933416,
2,1,0,0,0,54153,0.097182,0.0968217,0.472321,28,0.00670059,10,4.57309e-05,-3.32576,0.197579,0.298614,5.49485,0.0968217,
2,1,0,1,0,54154.5,0.104673,0.104304,0.51484,28,0.00746024,10,5.36999e-05,-3.28833,0.200173,0.294744,5.88915,0.104304,
2,1,0,0,0,54156,0.112164,0.111829,0.548818,28,0.0082787,10,6.13735e-05,-3.26057,0.351884,0.167669,3.58487,0.111829,
2,1,0,1,0,54157.5,0.119655,0.119289,0.573021,28,0.00914279,10,6.83548e-05,-3.24183,0.721261,0.0818011,1.83075,0.119289,
2,1,0,0,0,54159,0.127146,0.126793,0.58472,28,0.010035,10,7.41384e-05,-3.23305,1.59843,0.0369113,0.844658,0.126793,
2,1,0,1,0,54160.5,0.134637,0.134282,0.578822,28,0.0109356,10,7.77251e-05,-3.23746,-0.317374,-0.1859,-4.19218,0.134282,
2,1,0,1,0,54162,0.142127,0.141773,0.51401,28,0.0117845,10,7.28726e-05,-3.28903,-0.0956491,-0.616838,-12.3408,0.141773,
2,1,0,1,0,54163.5,0.149618,0.149269,0.413728,28,0.0125013,10,6.17569e-05,-3.38329,-0.0812431,-0.726215,-11.7576,0.149269,
2,1,0,1,0,54165,0.157109,0.156779,0.349423,28,0.0130878,10,5.47821e-05,-3.45665,-0.135381,-0.435806,-5.94021,0.156779,
2,1,0,1,0,54166.5,0.1646,0.164199,0.32056,28,0.013607,10,5.26355e-05,-3.49409,-0.293196,-0.201231,-2.51694,0.164199,
2,1,0,1,0,54167.9,0.172091,0.171808,0.306457,28,0.0140956,10,5.26519e-05,-3.51363,-0.406354,-0.145194,-1.7358,0.171808,
2,1,0,1,0,54169.4,0.179582,0.17924,0.297565,28,0.0145686,10,5.33355e-05,-3.52642,-1.08419,-0.0544186,-0.633241,0.17924,
2,1,0,1,0,54170.9,0.187074,0.186739,0.293502,28,0.0150323,10,5.48083e-05,-3.53239,-2.26027,-0.026103,-0.298833,0.186739,
2,1,0,1,0,54172.4,0.194564,0.194216,0.290935,28,0.01549,10,5.65043e-05,-3.5362,-1.57917,-0.0373614,-0.423623,0.194216,
2,1,0,1,0,54173.9,0.202056,0.201719,0.287067,28,0.0159431,10,5.7907e-05,-3.54202,-1.21714,-0.0484744,-0.543457,0.201719,
2,1,0,1,0,54175.4,0.209547,0.209193,0.285355,28,0.0163925,10,5.96943e-05,-3.54461,-1.59541,-0.036981,-0.411789,0.209193,
2,1,0,1,0,54176.9,0.217038,0.216706,0.282337,28,0.0168382,10,6.11842e-05,-3.54923,-3.75437,-0.015715,-0.173934,0.216706,
2,1,0,1,0,54178.4,0.224529,0.224222,0.282455,28,0.0172813,10,6.33328e-05,-3.54905,-2.48626,-0.0237304,-0.261159,0.2242225,
2,1,0,1,0,54179.9,0.232019,0.231694,0.280088,28,0.0177216,10,6.48946e-05,-3.55271,-2.32523,-0.0253738,-0.277586,0.231694,
2,1,0,0,0,54181.4,0.23951,0.239157,0.277763,28,0.0181596,10,6.64288e-05,-3.55633,-3.09141,-0.0190852,-0.20735,0.239157,
2,1,0,1,0,54182.9,0.247001,0.246688,0.27726,28,0.0185952,10,6.83968e-05,-3.55711,-1.46177,-0.0403619,-0.435738,0.246688,
2,1,0,0,0,54184.4,0.254492,0.254134,0.275327,28,0.0190283,10,6.997e-05,-3.56015,-1.53365,-0.0384704,-0.413179,0.254134,
2,1,0,1,0,54185.9,0.261983,0.261652,0.272568,28,0.0194585,10,7.13181e-05,-3.56452,5.88538,0.0100248,0.107068,0.261652,
2,1,0,0,0,54187.4,0.269474,0.269143,0.271267,28,0.0198864,10,7.30095e-05,-3.5666,-4.40931,-0.0133808,-0.141919,0.269143,
2,1,0,1,0,54188.9,0.276965,0.276644,0.269448,28,0.0203115,10,7.45414e-05,-3.56952,-2.71347,-0.0217434,-0.229678,0.276644,
2,1,0,0,0,54190.4,0.284456,0.284156,0.26854,28,0.0207339,10,7.63073e-05,-3.57099,-8.33333,-0.00708001,-0.0741343,0.284156,
2,1,0,1,0,54191.9,0.291947,0.291626,0.267635,28,0.0211532,10,7.80491e-05,-3.57246,-2.83575,-0.0208058,-0.21654,0.291626,
2,1,0,1,0,54193.4,0.299437,0.299114,0.265146,28,0.02157,10,7.93087e-05,-3.57652,-0.00280892,-21.0045,-113.234,0.299114,
2,0,0,1,0,54194.8,0.293744,0.293434,-0.0159195,28,0.0216126,10,-4.67132e-06,-4.79807,-0.00394227,-14.966,5.63342,0.293434,
2,0,0,1,0,54196.3,0.286253,0.285908,-0.0453497,28,0.0215463,10,-1.29658e-05,-4.34343,-0.0301662,-1.95583,3.49553,0.2859076,
2,0,0,0,0,54197.8,0.278763,0.278436,-0.0672088,28,0.021442,10,-1.87134e-05,-4.17257,-0.0535998,-1.10075,2.88181,0.278436,
2,0,0,1,0,54199.3,0.271272,0.270912,-0.0837097,28,0.0213095,10,-2.26779e-05,-4.07722,-0.113189,-0.521254,1.68395,0.270912,
2,0,0,0,0,54200.8,0.263781,0.263405,-0.097087,28,0.0211544,10,-2.55732e-05,-4.01284,-0.110957,-0.531737,1.99473,0.263405,
2,0,0,1,0,54202.3,0.25629,0.255936,-0.108494,28,0.0209801,10,-2.77676e-05,-3.96459,-0.130472,-0.452206,1.91386,0.255936,
2,0,0,0,0,54203.8,0.248799,0.248427,-0.118915,28,0.0207887,10,-2.95417e-05,-3.92476,-0.205569,-0.287009,1.33964,0.248427,
2,0,0,1,0,54205.3,0.241308,0.240954,-0.129494,28,0.0205823,10,-3.1202e-05,-3.88775,-0.210587,-0.28017,1.41812,0.240954,
2,0,0,0,0,54206.8,0.233817,0.233486,-0.139848,28,0.0203615,10,-3.26526e-05,-3.85434,-0.237283,-0.248648,1.34145,0.233486,
2,0,0,1,0,54208.3,0.226326,0.22601,-0.148212,28,0.0201274,10,-3.34975e-05,-3.82912,-0.302158,-0.195262,1.12634,0.22601,
2,0,0,0,0,54209.8,0.218835,0.218483,-0.155796,28,0.0198801,10,-3.40389e-05,-3.80744,-0.354165,-0.166589,1.0097,0.218483,
2,0,0,1,0,54211.3,0.211344,0.211002,-0.163592,28,0.0196204,10,-3.45182e-05,-3.78624,-0.352748,-0.167258,1.07049,0.211002,
2,0,0,1,0,54212.8,0.203854,0.20347,-0.172459,28,0.0193473,10,-3.50903e-05,-3.76331,-0.336822,-0.175167,1.18094,0.20347,
2,0,0,1,0,54214.3,0.196363,0.195974,-0.182301,28,0.0190614,10,-3.57263e-05,-3.73921,-0.376394,-0.156751,1.11265,0.195974,
2,0,0,1,0,54215.8,0.188871,0.188533,-0.190726,28,0.018761,10,-3.59581e-05,-3.71959,-0.285972,-0.206314,1.54024,0.188533,
2,0,0,1,0,54217.3,0.181381,0.181016,-0.201314,28,0.0184452,10,-3.6441e-05,-3.69613,-0.235134,-0.25092,1.98028,0.181016,
2,0,0,1,0,54218.8,0.173889,0.173526,-0.215344,28,0.0181117,10,-3.73679e-05,-3.66687,-0.311804,-0.189221,1.58525,0.173526,
2,0,0,1,0,54220.3,0.166398,0.166008,-0.230293,28,0.0177566,10,-3.82305e-05,-3.63772,-0.227826,-0.25897,2.34237,0.166008,
2,0,0,1,0,54221.8,0.158907,0.158543,-0.249913,28,0.0173752,10,-3.96219e-05,-3.60221,-0.169622,-0.347832,3.41435,0.158543,
2,0,0,1,0,54223.3,0.151416,0.151031,-0.280848,28,0.0169568,10,-4.24166e-05,-3.55153,-0.129175,-0.456745,5.01248,0.151031,
2,0,0,1,0,54224.8,0.143925,0.143555,-0.329675,28,0.01648,10,-4.73263e-05,-3.48191,-0.0866562,-0.680852,8.76987,0.143555,
2,0,0,1,0,54226.2,0.136434,0.136048,-0.407829,28,0.0159081,10,-5.54843e-05,-3.38952,-0.0835148,-0.706461,11.2045,0.136048,
2,0,0,1,0,54227.7,0.128943,0.128532,-0.493969,28,0.0152105,10,-6.34907e-05,-3.3063,-0.105782,-0.557753,10.7147,0.128532,
2,0,0,0,0,54229.2,0.121453,0.121111,-0.559159,28,0.0143939,10,-6.77205e-05,-3.25247,-0.218949,-0.26947,5.87224,0.121111,
2,0,0,1,0,54230.7,0.113962,0.11363,-0.584011,28,0.0135061,10,-6.63612e-05,-3.23358,-1.24183,-0.0475104,1.08692,0.11363,
2,0,0,0,0,54232.2,0.106471,0.106194,-0.588118,28,0.0126007,10,-6.24544e-05,-3.23054,2.21878,0.0265912,-0.611125,0.106194,
2,0,0,1,0,54233.7,0.0989798,0.0986286,-0.579155,28,0.0117027,10,-5.71213e-05,-3.23721,1.15634,0.0510232,-1.14974,0.0986286,
2,0,0,0,0,54235.2,0.0914889,0.0911358,-0.568256,28,0.0108207,10,-5.17884e-05,-3.24546,0.744457,0.0792524,-1.7517,0.0911358,
2,0,0,1,0,54236.7,0.083998,0.0836631,-0.551801,28,0.00995931,10,-4.61654e-05,-3.25822,0.42479,0.138892,-2.98714,0.0836631,
2,0,0,0,0,54238.2,0.076507,0.0761576,-0.534936,28,0.00912307,10,-4.07394e-05,-3.2717,0.513886,0.114811,-2.39532,0.0761576,
2,0,0,1,0,54239.7,0.069016,0.0686828,-0.516294,28,0.00831279,10,-3.54605e-05,-3.2871,0.572281,0.103096,-2.08475,0.0686828,
2,0,0,0,0,54241.2,0.0615251,0.0611687,-0.502238,28,0.0075266,10,-3.07212e-05,-3.29909,0.589693,0.100052,-1.96126,0.0611687,
2,0,0,1,0,54242.7,0.0540342,0.0536589,-0.487368,28,0.00676441,10,-2.61516e-05,-3.31214,0.551153,0.107048,-2.02899,0.0536589,
2,0,0,1,0,54244.2,0.0465436,0.0462037,-0.467649,28,0.00602697,10,-2.16071e-05,-3.33008,0.497612,0.118566,-2.16993,0.0462037,
2,0,0,1,0,54245.7,0.0390526,0.0386833,-0.451582,28,0.00531531,10,-1.74687e-05,-3.34526,0.401484,0.146955,-2.5867,0.03868331,
2,0,0,1,0,54247.2,0.0315615,0.0311637,-0.436588,28,0.00462886,10,-1.36057e-05,-3.35993,0.453666,0.130052,-2.21235,0.0311637,
2,0,0,1,0,54248.7,0.0240706,0.023744,-0.421132,28,0.00396524,10,-9.99935e-06,-3.37558,0.592725,0.0995402,-1.64132,0.023744,
2,0,0,1,0,54250.2,0.0165795,0.016229,-0.413255,28,0.00331969,10,-6.7067e-06,-3.38378,1.32763,0.0444402,-0.715135,0.01622897,
2,0,0,1,0,54251.7,0.00908846,0.00874011,-0.407311,28,0.00268482,10,-3.55994e-06,-3.39007,3.43546,0.0171738,-0.2734,0.00874011,
2,0,0,1,0,54253.2,0.00159739,0.00116249,-0.41252,28,0.00205087,10,-4.79549e-07,-3.38456, , , ,0.00116249,
2,0,0,0,0,54253.5,0.000199195,-0.000161173,-0.410149,28,0.00193183,10,6.61047e-08,-3.38706, , , ,-0.0001611726,

File: 20221101_1-115_003_TrumpetPlot_ParaChange_from10_every3_03_CV_C01_28.csv
mode,ox/red,error,control changes,counter inc.,time/s,control/V,Ewe/V,<I>/mA,cycle number,(Q-Qo)/C,I Range,P/W,log(|I|),Tafel slope mV/dec,alpha_eff,dI/d(E-IR),E-IR/V,
2,0,0,1,0,56103.7,2.44065e-05,-0.000325324,-0.110843,29,0.0000000E+000,10,3.60597e-08,-3.95529, , , ,-0.000325324,
2,1,0,1,0,56105.1,0.00729041,0.00694554,0.196265,29,0.000238851,10,1.36316e-06,-3.70716,0.079863,0.738765,5.59963,0.00694554,
2,1,0,1,0,56106.6,0.0147815,0.0144112,0.22706,29,0.000576124,10,3.27221e-06,-3.64386,0.146176,0.403623,3.57953,0.0144112,
2,1,0,1,0,56108.1,0.0222725,0.0219187,0.253757,29,0.000955544,10,5.56204e-06,-3.59558,0.158408,0.372456,3.68762,0.0219187,
2,1,0,1,0,56109.6,0.0297635,0.0293853,0.279177,29,0.00137356,10,8.20369e-06,-3.55412,0.185689,0.317735,3.46046,0.0293853,
2,1,0,1,0,56111.1,0.0372545,0.0368802,0.304926,29,0.00183027,10,1.12457e-05,-3.51581,0.213626,0.276184,3.28929,0.03688015,
2,1,0,1,0,56112.6,0.0447456,0.0443827,0.33017,29,0.00232483,10,1.46538e-05,-3.48126,0.229318,0.257285,3.31181,0.0443827,
2,1,0,1,0,56114.1,0.0522367,0.0518893,0.351963,29,0.00285501,10,1.82631e-05,-3.4535,0.232663,0.253586,3.48416,0.05188933,
2,1,0,1,0,56115.6,0.0597277,0.0593526,0.373678,29,0.00341777,10,2.21788e-05,-3.4275,0.321516,0.183506,2.67136,0.0593526,
2,1,0,1,0,56117.1,0.0672187,0.0668371,0.392188,29,0.00400995,10,2.62127e-05,-3.40651,0.399299,0.147759,2.25201,0.0668371,
2,1,0,1,0,56118.6,0.0747092,0.0743634,0.406561,29,0.00462695,10,3.02333e-05,-3.39087,0.576631,0.102318,1.62121,0.0743634,
2,1,0,0,0,56120.1,0.0822001,0.0818477,0.419655,29,0.00526558,10,3.43478e-05,-3.37711,0.478005,0.12343,2.02665,0.0818477,
2,1,0,1,0,56121.6,0.0896911,0.0893575,0.440048,29,0.00592845,10,3.93216e-05,-3.3565,0.325689,0.181154,3.11596,0.0893575,
2,1,0,0,0,56123.1,0.097182,0.0968069,0.469885,29,0.00662795,10,4.54881e-05,-3.32801,0.19646,0.300315,5.50165,0.0968069,
2,1,0,1,0,56124.6,0.104673,0.104308,0.510128,29,0.00737973,10,5.32105e-05,-3.29232,0.224368,0.262961,5.21522,0.104308,
2,1,0,0,0,56126.1,0.112164,0.111811,0.543516,29,0.00818883,10,6.07709e-05,-3.26479,0.39058,0.151057,3.2025,0.111811,
2,1,0,1,0,56127.6,0.119655,0.119308,0.567936,29,0.00904205,10,6.77591e-05,-3.2457,0.720229,0.0819183,1.81593,0.119308,
2,1,0,0,0,56129.1,0.127146,0.126801,0.579674,29,0.00992269,10,7.35036e-05,-3.23682,1.67877,0.0351449,0.796719,0.126801,
2,1,0,1,0,56130.6,0.134637,0.134268,0.573769,29,0.0108119,10,7.70387e-05,-3.24126,-0.286861,-0.205675,-4.59503,0.134268,
2,1,0,1,0,56132.1,0.142127,0.141758,0.511682,29,0.0116511,10,7.25351e-05,-3.291,-0.102918,-0.573271,-11.3829,0.1417582,
2,1,0,1,0,56133.6,0.149618,0.149237,0.414848,29,0.0123634,10,6.19109e-05,-3.38211,-0.082922,-0.711512,-11.5557,0.149237,
2,1,0,1,0,56135.1,0.157109,0.156746,0.351735,29,0.0129503,10,5.5133e-05,-3.45378,-0.131652,-0.448151,-6.16466,0.156746,
2,1,0,1,0,56136.6,0.1646,0.16423,0.324311,29,0.013471,10,5.32617e-05,-3.48904,-0.306651,-0.192401,-2.43,0.16423,
2,1,0,1,0,56138.1,0.172091,0.171766,0.308138,29,0.0139615,10,5.29276e-05,-3.51125,-0.467967,-0.126077,-1.52601,0.1717657,
2,1,0,1,0,56139.6,0.179582,0.179223,0.301086,29,0.0144357,10,5.39615e-05,-3.52131,-1.04265,-0.0565864,-0.666204,0.179223,
2,1,0,1,0,56141.1,0.187074,0.186718,0.29672,29,0.0149009,10,5.54028e-05,-3.52765,-3.09201,-0.0190815,-0.220474,0.186718,
2,1,0,1,0,56142.6,0.194564,0.194255,0.292891,29,0.0153598,10,5.68955e-05,-3.53329,-5.40623,-0.0109133,-0.125052,0.194255,
2,1,0,1,0,56144.1,0.202056,0.201702,0.290248,29,0.0158137,10,5.85438e-05,-3.53723,-1.24916,-0.0472319,-0.533723,0.201702,
2,1,0,1,0,56145.6,0.209547,0.209214,0.287845,29,0.0162642,10,6.02213e-05,-3.54084,-0.820213,-0.0719325,-0.809599,0.209214,
2,1,0,1,0,56147.1,0.217038,0.216718,0.285299,29,0.0167105,10,6.18293e-05,-3.5447,-1.3317,-0.0443043,-0.494181,0.216718,
2,1,0,1,0,56148.6,0.224529,0.224169,0.283609,29,0.017154,10,6.35764e-05,-3.54728,-12.1744,-0.00484623,-0.0535743,0.224169,
2,1,0,1,0,56150.1,0.232019,0.231637,0.282322,29,0.0175947,10,6.53965e-05,-3.54925,-2.64425,-0.0223126,-0.245657,0.231637,
2,1,0,0,0,56151.6,0.23951,0.239178,0.281058,29,0.0180329,10,6.72228e-05,-3.5512,-3.85487,-0.0153053,-0.167755,0.239178,
2,1,0,1,0,56153.1,0.247001,0.246636,0.279235,29,0.018469,10,6.88693e-05,-3.55403,-2.00741,-0.0293912,-0.320385,0.246636,
2,1,0,0,0,56154.6,0.254492,0.254174,0.277571,29,0.0189027,10,7.05515e-05,-3.55663,-1.5666,-0.0376611,-0.408434,0.254174,
2,1,0,1,0,56156.1,0.261983,0.261616,0.276178,29,0.0193338,10,7.22527e-05,-3.55881,-1.63253,-0.0361401,-0.389493,0.261616,
2,1,0,0,0,56157.6,0.269474,0.269141,0.274055,29,0.0197623,10,7.37595e-05,-3.56216,10.1716,0.00580046,0.062097,0.269141,
2,1,0,1,0,56159.1,0.276965,0.27666,0.272191,29,0.0201883,10,7.53045e-05,-3.56513,22.8384,0.00258337,0.027489,0.27666,
2,1,0,0,0,56160.6,0.284456,0.284102,0.26993,29,0.0206115,10,7.66877e-05,-3.56875,-1.85938,-0.031731,-0.334666,0.284102,
2,1,0,1,0,56162.1,0.291947,0.291558,0.267978,29,0.0210316,10,7.8131e-05,-3.5719,-1.58417,-0.0372435,-0.391191,0.291558,
2,1,0,1,0,56163.5,0.299437,0.299094,0.266137,29,0.0214488,10,7.95999e-05,-3.57489,-0.00304434,-19.3802,-108.699,0.299094,
2,1,0,1,0,56164.9,0.293744,0.293329,-0.0146285,29,0.0214973,10,-4.29096e-06,-4.8348,-0.00286799,-20.5719,5.56343,0.293329,
2,0,0,1,0,56166.4,0.286253,0.285881,-0.0449088,29,0.021435,10,-1.28386e-05,-4.34767,-0.0330436,-1.78552,3.11699,0.285881,
2,0,0,0,0,56167.9,0.278763,0.278425,-0.0664683,29,0.0213342,10,-1.85064e-05,-4.17739,-0.0652611,-0.90406,2.33856,0.278425,
2,0,0,1,0,56169.4,0.271272,0.270916,-0.0833033,29,0.0212052,10,-2.25682e-05,-4.07934,-0.0750607,-0.786031,2.53523,0.270916,
2,0,0,0,0,56170.9,0.263781,0.263435,-0.0971297,29,0.0210528,10,-2.55873e-05,-4.01265,-0.140068,-0.421224,1.60144,0.263435,
2,0,0,1,0,56172.4,0.25629,0.255885,-0.109222,29,0.0208806,10,-2.79481e-05,-3.96169,-0.166317,-0.354744,1.50878,0.255885,
2,0,0,0,0,56173.9,0.248799,0.248411,-0.119553,29,0.0206916,10,-2.96982e-05,-3.92244,-0.195189,-0.302271,1.4159,0.248411,
2,0,0,1,0,56175.4,0.241308,0.240907,-0.129747,29,0.0204876,10,-3.12569e-05,-3.8869,-0.233253,-0.252945,1.28326,0.240907,
2,0,0,0,0,56176.9,0.233817,0.233419,-0.13933,29,0.0202695,10,-3.25223e-05,-3.85596,-0.250149,-0.235859,1.2737,0.233419,
2,0,0,1,0,56178.4,0.226326,0.225986,-0.146725,29,0.0200381,10,-3.31578e-05,-3.83349,-0.263586,-0.223836,1.29049,0.225986,
2,0,0,0,0,56179.9,0.218835,0.218483,-0.156385,29,0.0197938,10,-3.41675e-05,-3.8058,-0.306511,-0.192489,1.16678,0.218483,
2,0,0,1,0,56181.4,0.211344,0.210984,-0.164062,29,0.0195368,10,-3.46144e-05,-3.78499,-0.413979,-0.142519,0.912364,0.210984,
2,0,0,1,0,56182.9,0.203854,0.20349,-0.172151,29,0.0192666,10,-3.5031e-05,-3.76409,-0.326034,-0.180963,1.22175,0.20349,
2,0,0,1,0,56184.4,0.196363,0.195992,-0.181956,29,0.0189836,10,-3.56619e-05,-3.74003,-0.345928,-0.170556,1.21111,0.195992,
2,0,0,1,0,56185.9,0.188871,0.188515,-0.191354,29,0.0186863,10,-3.60731e-05,-3.71816,-0.302886,-0.194793,1.45103,0.1885151,
2,0,0,1,0,56187.4,0.181381,0.181025,-0.201719,29,0.0183737,10,-3.65161e-05,-3.69525,-0.325674,-0.181162,1.42942,0.181025,
2,0,0,1,0,56188.9,0.173889,0.173491,-0.214211,29,0.018044,10,-3.71637e-05,-3.66916,-0.285423,-0.206711,1.72498,0.173491,
2,0,0,1,0,56190.4,0.166398,0.166073,-0.229378,29,0.0176934,10,-3.80935e-05,-3.63945,-0.293165,-0.201252,1.80982,0.166073,
2,0,0,1,0,56191.9,0.158907,0.158507,-0.248408,29,0.0173167,10,-3.93743e-05,-3.60483,-0.199824,-0.295261,2.8765,0.158507,
2,0,0,1,0,56193.4,0.151416,0.151027,-0.277942,29,0.0169042,10,-4.19768e-05,-3.55605,-0.13297,-0.443709,4.82088,0.1510274,
2,0,0,1,0,56194.9,0.143925,0.143552,-0.325686,29,0.0164365,10,-4.6753e-05,-3.4872,-0.0873758,-0.675244,8.56128,0.143552,
2,0,0,1,0,56196.4,0.136434,0.136043,-0.398395,29,0.0158783,10,-5.41987e-05,-3.39969,-0.0825318,-0.714876,11.0853,0.136043,
2,0,0,1,0,56197.9,0.128943,0.12862,-0.483046,29,0.0151996,10,-6.21292e-05,-3.31601,-0.104616,-0.563968,10.5793,0.12862,
2,0,0,0,0,56199.4,0.121453,0.12111,-0.549869,29,0.0144025,10,-6.65949e-05,-3.25974,-0.195569,-0.301684,6.45387,0.12111,
2,0,0,1,0,56200.9,0.113962,0.113598,-0.577929,29,0.013531,10,-6.56518e-05,-3.23813,-0.735057,-0.0802659,1.8133,0.113598,
2,0,0,0,0,56202.4,0.106471,0.106127,-0.581845,29,0.0126373,10,-6.17493e-05,-3.23519,2.79182,0.0211332,-0.481585,0.106127,
2,0,0,1,0,56203.9,0.0989798,0.0986276,-0.575561,29,0.011748,10,-5.67662e-05,-3.23991,2.21575,0.0266275,-0.597324,0.09862756,
2,0,0,0,0,56205.4,0.0914889,0.0910891,-0.567274,29,0.0108725,10,-5.16725e-05,-3.24621,0.97816,0.0603173,-1.32876,0.0910891,
2,0,0,1,0,56206.9,0.083998,0.0836345,-0.551024,29,0.0100153,10,-4.60846e-05,-3.25883,0.434425,0.135812,-2.91749,0.0836345,
2,0,0,0,0,56208.4,0.076507,0.0761342,-0.5353,29,0.00918192,10,-4.07546e-05,-3.2714,0.521478,0.11314,-2.36359,0.07613422,
2,0,0,1,0,56209.9,0.069016,0.068687,-0.517535,29,0.00837314,10,-3.55479e-05,-3.28606,0.532024,0.110897,-2.24718,0.068687,
2,0,0,0,0,56211.4,0.0615251,0.0611825,-0.502996,29,0.00758803,10,-3.07745e-05,-3.29844,0.543152,0.108625,-2.13628,0.0611825,
2,0,0,1,0,56212.9,0.0540342,0.0536388,-0.486699,29,0.00682667,10,-2.61059e-05,-3.31274,0.61864,0.0953705,-1.81155,0.05363876,
2,0,0,1,0,56214.4,0.0465436,0.0461814,-0.470529,29,0.00608955,10,-2.17297e-05,-3.32741,0.544485,0.108359,-1.99293,0.0461814,
2,0,0,1,0,56215.9,0.0390526,0.038664,-0.454928,29,0.00537713,10,-1.75893e-05,-3.34206,0.376065,0.156888,-2.77654,0.038664,
2,0,0,1,0,56217.4,0.0315615,0.0312167,-0.437742,29,0.00469005,10,-1.36649e-05,-3.35878,0.478182,0.123384,-2.11087,0.0312167,
2,0,0,1,0,56218.9,0.0240706,0.0237154,-0.423711,29,0.00402582,10,-1.00485e-05,-3.37293,0.612383,0.0963449,-1.59575,0.0237154,
2,0,0,1,0,56220.4,0.0165795,0.0162245,-0.414611,29,0.00338042,10,-6.72686e-06,-3.38236,1.12292,0.0525415,-0.850314,0.0162245,
2,0,0,1,0,56221.8,0.00908846,0.0086956,-0.4097,29,0.00274631,10,-3.56259e-06,-3.38753,-27.2894,-0.00216201,0.0345681,0.0086956,
2,0,0,1,0,56223.3,0.00159739,0.00119949,-0.41363,29,0.00211397,10,-4.96147e-07,-3.38339, , , ,0.00119949,
2,0,0,0,0,56223.6,0.000199195,-0.000178351,-0.411267,29,0.00199529,10,7.335e-08,-3.38588, , , ,-0.000178351,