Folder: Figs_alphaMnO2_OER_Tafel_sleope/Figure_codes/Fig_3-5/rawdata_trumpetplot_data/after 10th (part 98)

File: 20221101_1-115_003_TrumpetPlot_ParaChange_from10_every3_07_CV_C01_22.csv
mode,ox/red,error,control changes,counter inc.,time/s,control/V,Ewe/V,<I>/mA,cycle number,(Q-Qo)/C,I Range,P/W,log(|I|),Tafel slope mV/dec,alpha_eff,dI/d(E-IR),E-IR/V,
2,0,0,0,0,44507.9,2.44065e-05,-0.000439847,-2.71985,23,0.0000000E+000,10,1.19632e-06,-2.56546, , , ,-0.000439847,
2,1,0,1,0,44508,0.007288,0.00698487,1.05657,23,-2.22113e-05,10,7.38002e-06,-2.9761,0.0108382,5.44371,199.67,0.00698487,
2,1,0,1,0,44508.1,0.0147816,0.0144501,1.93445,23,0.000175898,10,2.79529e-05,-2.71344,0.0623075,0.946917,70.8216,0.0144501,
2,1,0,1,0,44508.3,0.0222712,0.0219207,2.33679,23,0.000446359,10,5.12241e-05,-2.63138,0.120356,0.490212,44.5166,0.0219207,
2,1,0,1,0,44508.4,0.0297648,0.0294511,2.61359,23,0.000758135,10,7.69731e-05,-2.58276,0.167935,0.351326,35.8478,0.0294511,
2,1,0,1,0,44508.5,0.0372518,0.0369256,2.86954,23,0.00110285,10,0.00010596,-2.54219,0.216835,0.272096,30.5006,0.03692558,
2,1,0,1,0,44508.6,0.0447467,0.0443859,3.12063,23,0.00147899,10,0.000138512,-2.50576,0.228186,0.258561,31.4441,0.04438594,
2,1,0,1,0,44508.8,0.052235,0.0519107,3.36217,23,0.00188526,10,0.000174533,-2.47338,0.233782,0.252372,33.074,0.0519107,
2,1,0,1,0,44508.9,0.0597299,0.0593818,3.58667,23,0.00232118,10,0.000212983,-2.44531,0.265306,0.222385,31.1108,0.0593818,
2,1,0,1,0,44509,0.0672156,0.0669085,3.79524,23,0.00278417,10,0.000253934,-2.42076,0.325312,0.181364,26.8868,0.0669085,
2,1,0,1,0,44509.1,0.0747105,0.0743752,3.9874,23,0.00327269,10,0.000296564,-2.39931,0.431135,0.136848,21.2636,0.07437522,
2,1,0,1,0,44509.3,0.0821988,0.0818412,4.14783,23,0.00378253,10,0.000339464,-2.38218,0.515394,0.114476,18.5034,0.0818412,
2,1,0,1,0,44509.4,0.0896937,0.0893795,4.29265,23,0.00431173,10,0.000383675,-2.36727,0.473885,0.124503,20.8833,0.0893795,
2,1,0,1,0,44509.5,0.0971794,0.0968316,4.46562,23,0.00486013,10,0.000432414,-2.35012,0.345368,0.170832,29.8399,0.0968316,
2,1,0,1,0,44509.6,0.104674,0.104342,4.74321,23,0.00543645,10,0.000494918,-2.32393,0.258942,0.22785,42.1956,0.1043423,
2,1,0,1,0,44509.8,0.112163,0.111857,5.11293,23,0.00605235,10,0.000571918,-2.29133,0.221815,0.265988,52.9746,0.111857,
2,1,0,1,0,44509.9,0.119657,0.119322,5.48446,23,0.0067164,10,0.000654415,-2.26087,0.286245,0.206117,44.091,0.119322,
2,1,0,1,0,44510,0.127143,0.126801,5.74836,23,0.0074209,10,0.0007289,-2.24046,0.460451,0.128135,28.7779,0.126801,
2,1,0,1,0,44510.1,0.134638,0.134291,5.92555,23,0.00815368,10,0.000795745,-2.22727,0.961979,0.0613319,14.1903,0.134291,
2,1,0,1,0,44510.3,0.142126,0.141813,5.98798,23,0.00890082,10,0.00084917,-2.22272,-2.75006,-0.0214541,-4.99976,0.1418125,
2,1,0,1,0,44510.4,0.149621,0.14927,5.72862,23,0.00963932,10,0.000855109,-2.24195,-0.196277,-0.300595,-66.9687,0.14927,
2,1,0,1,0,44510.5,0.157107,0.156811,4.99355,23,0.0103146,10,0.000783046,-2.30159,-0.094016,-0.627553,-122.161,0.156811,
2,1,0,1,0,44510.6,0.164602,0.164277,4.12122,23,0.0108842,10,0.000677022,-2.38497,-0.0909569,-0.648659,-104.47,0.164277,
2,1,0,1,0,44510.8,0.17209,0.171763,3.48689,23,0.0113578,10,0.00059892,-2.45756,-0.120967,-0.487737,-66.5542,0.171763,
2,1,0,1,0,44510.9,0.179585,0.179274,3.10528,23,0.0117695,10,0.000556695,-2.5079,-0.183804,-0.320994,-38.9159,0.179274,
2,1,0,1,0,44511,0.187072,0.186787,2.86737,23,0.0121429,10,0.000535586,-2.54252,-0.290183,-0.20332,-22.779,0.186787,
2,1,0,1,0,44511.1,0.194566,0.194204,2.71751,23,0.0124932,10,0.000527752,-2.56583,-0.362248,-0.162872,-17.3091,0.194204,
2,1,0,1,0,44511.3,0.202055,0.201741,2.62899,23,0.0128281,10,0.000530375,-2.58021,-0.511615,-0.115321,-11.7981,0.201741,
2,1,0,1,0,44511.4,0.209549,0.209259,2.56218,23,0.0131535,10,0.00053616,-2.59139,-0.687157,-0.085861,-8.57234,0.209259,
2,1,0,1,0,44511.5,0.217036,0.2167,2.50298,23,0.0134715,10,0.000542395,-2.60154,-1.55055,-0.038051,-3.72882,0.2167,
2,1,0,1,0,44511.6,0.22453,0.22419,2.47064,23,0.0137846,10,0.000553894,-2.60719,-1.02604,-0.0575028,-5.56035,0.22419,
2,1,0,1,0,44511.8,0.232019,0.231688,2.44619,23,0.0140933,10,0.000566752,-2.61151,-1.41771,-0.0416163,-3.96473,0.231688,
2,1,0,1,0,44511.9,0.239513,0.2392,2.42485,23,0.0143991,10,0.000580026,-2.61531,-2.00938,-0.0293622,-2.77252,0.2392,
2,1,0,1,0,44512,0.247001,0.246691,2.40568,23,0.014702,10,0.00059346,-2.61876,-2.2159,-0.0266257,-2.49696,0.246691,
2,1,0,1,0,44512.1,0.254493,0.254189,2.38191,23,0.0150026,10,0.000605455,-2.62307,-1.63102,-0.0361738,-3.36789,0.254189,
2,1,0,1,0,44512.3,0.261983,0.261667,2.36342,23,0.0153009,10,0.000618428,-2.62646,-1.53111,-0.0385342,-3.5584,0.261667,
2,1,0,1,0,44512.4,0.269477,0.26914,2.34955,23,0.0155971,10,0.000632357,-2.62902,-5.21582,-0.0113117,-1.03498,0.26914,
2,1,0,1,0,44512.5,0.276965,0.276654,2.32906,23,0.0158911,10,0.000644344,-2.63282,-5.75976,-0.0102435,-0.931669,0.276654,
2,1,0,1,0,44512.6,0.284457,0.284171,2.30628,23,0.016183,10,0.000655379,-2.63709,-3.30562,-0.0178484,-1.61146,0.284171,
2,1,0,1,0,44512.8,0.291947,0.291619,2.29247,23,0.0164723,10,0.000668529,-2.6397,-1.07181,-0.055047,-4.92519,0.2916193,
2,1,0,1,0,44512.9,0.29944,0.299158,2.27837,23,0.0167594,10,0.000681594,-2.64238,-0.00829016,-7.11687,-495.423,0.299158,
2,0,0,1,0,44513,0.293742,0.293418,-0.391488,23,0.0168197,10,-0.00011487,-3.40728,-0.00463811,-12.7207,124.096,0.2934182,
2,0,0,1,0,44513.1,0.286254,0.285972,-0.855364,23,0.016734,10,-0.00024461,-3.06785,-0.0526051,-1.12156,37.2563,0.285972,
2,0,0,1,0,44513.2,0.278761,0.27846,-1.0578,23,0.0166108,10,-0.000294555,-2.9756,-0.12038,-0.490117,20.3408,0.27846,
2,0,0,1,0,44513.4,0.271272,0.270952,-1.20429,23,0.0164669,10,-0.000326305,-2.91927,-0.172666,-0.3417,15.999,0.270952,
2,0,0,1,0,44513.5,0.263778,0.263466,-1.31467,23,0.0163075,10,-0.000346371,-2.88118,-0.235074,-0.250985,12.7904,0.263466,
2,0,0,1,0,44513.6,0.25629,0.255983,-1.39831,23,0.0161362,10,-0.000357943,-2.8544,-0.268989,-0.21934,11.9599,0.255983,
2,0,0,1,0,44513.7,0.248797,0.248482,-1.47476,23,0.0159542,10,-0.000366451,-2.83128,-0.362834,-0.162609,9.38463,0.248482,
2,0,0,1,0,44513.9,0.241308,0.240969,-1.5481,23,0.015763,10,-0.000373043,-2.8102,-0.496646,-0.118797,7.18369,0.240969,
2,0,0,1,0,44514,0.233814,0.233478,-1.61468,23,0.0155632,10,-0.000376992,-2.79191,-0.4329,-0.13629,8.5836,0.233478,
2,0,0,1,0,44514.1,0.226326,0.225983,-1.67838,23,0.0153555,10,-0.000379285,-2.77511,-0.380234,-0.155168,10.174,0.225983,
2,0,0,1,0,44514.2,0.218834,0.218502,-1.73599,23,0.0151398,10,-0.000379317,-2.76045,-0.418277,-0.141055,9.59562,0.218502,
2,0,0,1,0,44514.4,0.211344,0.211005,-1.79952,23,0.0149166,10,-0.000379707,-2.74484,-0.781741,-0.0754725,5.30932,0.2110053,
2,0,0,1,0,44514.5,0.203856,0.203497,-1.86674,23,0.0146856,10,-0.000379875,-2.72892,-0.718845,-0.0820761,5.96125,0.203497,
2,0,0,1,0,44514.6,0.196362,0.196009,-1.92276,23,0.0144469,10,-0.000376878,-2.71608,-0.433779,-0.136014,10.2139,0.196009,
2,0,0,1,0,44514.7,0.18887,0.188528,-1.98686,23,0.0141999,10,-0.000374579,-2.70183,-0.410236,-0.14382,11.1991,0.1885282,
2,0,0,1,0,44514.9,0.18138,0.181074,-2.07081,23,0.0139441,10,-0.00037497,-2.68386,-0.467468,-0.126212,10.2161,0.1810741,
2,0,0,1,0,44515,0.173892,0.173525,-2.16914,23,0.0136779,10,-0.0003764,-2.66371,-0.412565,-0.143008,12.0509,0.1735248,
2,0,0,1,0,44515.1,0.166398,0.166062,-2.27858,23,0.0133989,10,-0.000378386,-2.64234,-0.310387,-0.190085,16.881,0.166062,
2,0,0,1,0,44515.2,0.158905,0.15856,-2.42264,23,0.0131035,10,-0.000384133,-2.61571,-0.212761,-0.277306,26.3284,0.15856,
2,0,0,1,0,44515.4,0.151417,0.151097,-2.65432,23,0.012785,10,-0.00040106,-2.57605,-0.157229,-0.37525,39.0478,0.151097,
2,0,0,1,0,44515.5,0.143927,0.143562,-3.02769,23,0.0124299,10,-0.00043466,-2.51889,-0.109575,-0.538442,63.7261,0.143562,
2,0,0,1,0,44515.6,0.136435,0.136087,-3.60695,23,0.0120152,10,-0.000490858,-2.44286,-0.0935044,-0.630987,88.7954,0.136087,
2,0,0,1,0,44515.7,0.128941,0.128572,-4.31853,23,0.0115186,10,-0.000555243,-2.36466,-0.104187,-0.566288,95.2557,0.128572,
2,0,0,1,0,44515.9,0.121453,0.121174,-4.98075,23,0.0109346,10,-0.000603536,-2.3027,-0.139536,-0.422831,82.2328,0.121174,
2,0,0,1,0,44516,0.113963,0.113645,-5.52265,23,0.0102742,10,-0.000627619,-2.25785,-0.220445,-0.267641,57.6798,0.113645,
2,0,0,1,0,44516.1,0.106471,0.106147,-5.88073,23,0.00955711,10,-0.000624221,-2.23057,-0.423061,-0.13946,31.9817,0.106147,
2,0,0,1,0,44516.2,0.0989825,0.098666,-6.00549,23,0.00881067,10,-0.000592538,-2.22145,-4.36604,-0.0135134,3.16141,0.09866602,
2,0,0,1,0,44516.4,0.0914889,0.0911463,-5.90797,23,0.00806254,10,-0.00053849,-2.22856,0.677062,0.0871411,-20.1027,0.0911463,
2,0,0,1,0,44516.5,0.0839993,0.0836679,-5.7159,23,0.00733424,10,-0.000478237,-2.24292,0.437195,0.134951,-30.106,0.0836679,
2,0,0,1,0,44516.6,0.076507,0.0761646,-5.54616,23,0.00662969,10,-0.000422421,-2.25601,0.594137,0.0993038,-21.452,0.0761646,
2,0,0,1,0,44516.7,0.0690187,0.0687107,-5.40093,23,0.00594523,10,-0.000371102,-2.26753,0.757365,0.0779017,-16.4324,0.0687107,
2,0,0,1,0,44516.9,0.0615251,0.061199,-5.27834,23,0.00527573,10,-0.00032303,-2.2775,0.844156,0.0698923,-14.4181,0.061199,
2,0,0,1,0,44517,0.0540355,0.0537147,-5.14927,23,0.00462223,10,-0.000276592,-2.28825,0.707268,0.0834195,-16.7734,0.0537147,
2,0,0,1,0,44517.1,0.0465432,0.0462332,-5.01169,23,0.00398486,10,-0.000231706,-2.30002,0.588002,0.10034,-19.6195,0.0462332,
2,0,0,1,0,44517.2,0.0390549,0.0387223,-4.85901,23,0.00336667,10,-0.000188152,-2.31345,0.500828,0.117805,-22.3181,0.0387223,
2,0,0,1,0,44517.4,0.0315613,0.0312203,-4.68035,23,0.00276869,10,-0.000146122,-2.32972,0.469945,0.125547,-22.9329,0.0312203,
2,0,0,1,0,44517.5,0.0240717,0.0238031,-4.48225,23,0.0021942,10,-0.000106691,-2.3485,0.409504,0.144077,-25.2805,0.0238031,
2,0,0,1,0,44517.6,0.0165781,0.0162251,-4.31955,23,0.00164216,10,-7.00853e-05,-2.36456,0.456772,0.129167,-21.7718,0.0162251,
2,0,0,1,0,44517.7,0.00909108,0.00873764,-4.18113,23,0.0011103,10,-3.65332e-05,-2.37871,0.629215,0.0937676,-15.285,0.00873764,
2,0,0,1,0,44517.9,0.00159616,0.00126176,-4.10109,23,0.000592768,10,-5.17459e-06,-2.3871, , , ,0.00126176,
2,0,0,1,0,44517.9,0.000199195,-0.000197438,-4.0766,23,0.000497042,10,8.04877e-07,-2.3897, , , ,-0.000197438,

File: 20221101_1-115_003_TrumpetPlot_ParaChange_from10_every3_07_CV_C01_23.csv
mode,ox/red,error,control changes,counter inc.,time/s,control/V,Ewe/V,<I>/mA,cycle number,(Q-Qo)/C,I Range,P/W,log(|I|),Tafel slope mV/dec,alpha_eff,dI/d(E-IR),E-IR/V,
2,0,0,0,0,46478,2.44065e-05,-0.000325324,-2.69949,24,0.0000000E+000,10,8.78208e-07,-2.56872, , , ,-0.000325324,
2,1,0,1,0,46478.1,0.007288,0.00700948,0.993033,24,-2.83566e-05,10,6.96064e-06,-3.00304,0.0100558,5.86725,199.099,0.00700948,
2,1,0,1,0,46478.3,0.0147816,0.0144673,1.87191,24,0.000161876,10,2.70815e-05,-2.72772,0.0581397,1.0148,73.5904,0.0144673,
2,1,0,1,0,46478.4,0.0222712,0.0219756,2.28497,24,0.000425681,10,5.02136e-05,-2.64112,0.123119,0.479211,42.5732,0.0219756,
2,1,0,1,0,46478.5,0.0297648,0.0294559,2.57802,24,0.000731493,10,7.59379e-05,-2.58871,0.168149,0.35088,35.1528,0.0294559,
2,1,0,1,0,46478.6,0.0372518,0.0369266,2.82767,24,0.00107061,10,0.000104416,-2.54857,0.184294,0.320141,35.3668,0.03692659,
2,1,0,1,0,46478.8,0.0447467,0.0444099,3.06348,24,0.00144131,10,0.000136049,-2.51379,0.229761,0.256788,30.8617,0.0444099,
2,1,0,1,0,46478.9,0.052235,0.0519337,3.31553,24,0.00184198,10,0.000172188,-2.47945,0.24865,0.237281,30.6886,0.0519337,
2,1,0,1,0,46479,0.0597299,0.0593635,3.54461,24,0.00227243,10,0.000210421,-2.45043,0.269956,0.218554,30.1902,0.0593635,
2,1,0,1,0,46479.1,0.0672156,0.0669509,3.75686,24,0.00272982,10,0.000251525,-2.42518,0.306292,0.192627,28.2185,0.06695094,
2,1,0,1,0,46479.3,0.0747105,0.0743928,3.94089,24,0.00321278,10,0.000293173,-2.40441,0.400411,0.147349,22.6725,0.0743928,
2,1,0,1,0,46479.4,0.0821988,0.0818525,4.10514,24,0.00371719,10,0.000336016,-2.38667,0.553405,0.106613,17.0842,0.0818525,
2,1,0,1,0,46479.5,0.0896937,0.0893675,4.25353,24,0.00424086,10,0.000380127,-2.37125,0.540837,0.10909,18.0975,0.0893675,
2,1,0,1,0,46479.6,0.0971794,0.0967975,4.41875,24,0.0047834,10,0.000427723,-2.3547,0.331846,0.177793,30.713,0.0967975,
2,1,0,1,0,46479.8,0.104674,0.104364,4.6847,24,0.00535292,10,0.000488913,-2.32932,0.252791,0.233394,42.6935,0.104364,
2,1,0,1,0,46479.9,0.112163,0.111838,5.03293,24,0.00596067,10,0.000562871,-2.29818,0.230517,0.255947,50.295,0.111838,
2,1,0,1,0,46480,0.119658,0.119376,5.41012,24,0.00661525,10,0.000645836,-2.26679,0.303895,0.194146,40.9133,0.119376,
2,1,0,1,0,46480.1,0.127143,0.126813,5.6784,24,0.00730995,10,0.000720096,-2.24577,0.409991,0.143905,31.8447,0.126813,
2,1,0,1,0,46480.3,0.134638,0.134332,5.84753,24,0.00803292,10,0.000785508,-2.23303,0.810077,0.0728326,16.6413,0.134332,
2,1,0,1,0,46480.4,0.142126,0.141813,5.91112,24,0.00877095,10,0.000838275,-2.22833,-2.86661,-0.0205818,-4.74506,0.141813,
2,1,0,1,0,46480.5,0.149621,0.149324,5.68866,24,0.00950204,10,0.000849453,-2.24499,-0.209675,-0.281388,-62.1842,0.149324,
2,1,0,1,0,46480.6,0.157107,0.156775,4.99169,24,0.010174,10,0.000782571,-2.30175,-0.100299,-0.588242,-114.277,0.156775,
2,1,0,1,0,46480.8,0.164602,0.164264,4.13259,24,0.0107444,10,0.000678837,-2.38378,-0.0937977,-0.629013,-101.658,0.164264,
2,1,0,1,0,46480.9,0.17209,0.171758,3.50042,24,0.0112202,10,0.000601226,-2.45588,-0.121443,-0.485825,-66.6208,0.171758,
2,1,0,1,0,46481,0.179585,0.179295,3.11231,24,0.0116333,10,0.000558023,-2.50692,-0.173731,-0.339606,-41.2995,0.179295,
2,1,0,1,0,46481.1,0.187072,0.186768,2.87351,24,0.0120075,10,0.000536679,-2.54159,-0.271315,-0.21746,-24.3456,0.186768,
2,1,0,1,0,46481.3,0.194566,0.194281,2.71896,24,0.0123578,10,0.000528241,-2.5656,-0.424366,-0.139031,-14.765,0.194281,
2,1,0,1,0,46481.4,0.202055,0.201709,2.61806,24,0.0126924,10,0.000528087,-2.58202,-0.528884,-0.111556,-11.4146,0.201709,
2,1,0,1,0,46481.5,0.209549,0.209266,2.55636,24,0.0130171,10,0.000534959,-2.59238,-0.605584,-0.0974266,-9.70326,0.209266,
2,1,0,1,0,46481.6,0.217036,0.216729,2.49993,24,0.0133342,10,0.000541807,-2.60207,-1.05387,-0.0559842,-5.46704,0.216729,
2,1,0,1,0,46481.8,0.224529,0.224221,2.46002,24,0.0136463,10,0.000551586,-2.60906,-1.76008,-0.0335212,-3.22847,0.224221,
2,1,0,1,0,46481.9,0.232019,0.231715,2.43493,24,0.013954,10,0.00056421,-2.61351,-1.79802,-0.0328139,-3.11933,0.2317148,
2,1,0,1,0,46482,0.239513,0.239257,2.41677,24,0.0142587,10,0.000578229,-2.61676,-1.12717,-0.0523433,-4.9243,0.239257,
2,1,0,1,0,46482.1,0.247001,0.246672,2.39531,24,0.0145603,10,0.000590856,-2.62064,-1.99562,-0.0295647,-2.75725,0.246672,
2,1,0,1,0,46482.3,0.254493,0.254205,2.37243,24,0.0148599,10,0.000603083,-2.62481,-2.12391,-0.027779,-2.57523,0.254205,
2,1,0,1,0,46482.4,0.261983,0.261697,2.35277,24,0.0151568,10,0.000615713,-2.62842,-2.01669,-0.0292558,-2.69282,0.261697,
2,1,0,1,0,46482.5,0.269477,0.269138,2.33847,24,0.0154518,10,0.000629371,-2.63107,-2.30726,-0.0255714,-2.33599,0.269138,
2,1,0,1,0,46482.6,0.276965,0.276685,2.32683,24,0.0157446,10,0.000643799,-2.63324,-1.77397,-0.0332588,-3.011,0.276685,
2,1,0,1,0,46482.8,0.284457,0.284181,2.30342,24,0.0160352,10,0.000654588,-2.63763,12.4885,0.00472435,0.424725,0.284181,
2,1,0,1,0,46482.9,0.291947,0.291639,2.28415,24,0.0163233,10,0.000666146,-2.64128,-1.53474,-0.038443,-3.42675,0.291639,
2,1,0,1,0,46483,0.29944,0.29911,2.26431,24,0.0166094,10,0.000677276,-2.64507,-0.00852761,-6.9187,-483.665,0.2991097,
2,0,0,1,0,46483.1,0.293742,0.293402,-0.354556,24,0.0166733,10,-0.000104027,-3.45032,-0.00360348,-16.3731,125.55,0.293402,
2,0,0,1,0,46483.2,0.286254,0.285926,-0.834672,24,0.0165916,10,-0.000238655,-3.07848,-0.0495768,-1.19007,38.189,0.285926,
2,0,0,1,0,46483.4,0.278761,0.278442,-1.03835,24,0.0164711,10,-0.00028912,-2.98366,-0.105791,-0.557702,22.6782,0.278442,
2,0,0,1,0,46483.5,0.271272,0.270974,-1.18019,24,0.0163294,10,-0.000319802,-2.92805,-0.173272,-0.340505,15.7535,0.270974,
2,0,0,1,0,46483.6,0.263778,0.263465,-1.29447,24,0.0161721,10,-0.000341048,-2.88791,-0.220822,-0.267183,13.4696,0.263465,
2,0,0,1,0,46483.7,0.25629,0.255976,-1.38895,24,0.0160026,10,-0.000355538,-2.85731,-0.272095,-0.216836,11.6785,0.255976,
2,0,0,1,0,46483.9,0.248797,0.248508,-1.46294,24,0.0158225,10,-0.000363552,-2.83477,-0.309967,-0.190343,10.8676,0.248508,
2,0,0,1,0,46484,0.241308,0.241019,-1.53258,24,0.0156331,10,-0.00036938,-2.81458,-0.363317,-0.162393,9.73981,0.241019,
2,0,0,1,0,46484.1,0.233814,0.233479,-1.60291,24,0.0154351,10,-0.000374245,-2.79509,-0.454349,-0.129856,8.12606,0.233479,
2,0,0,1,0,46484.2,0.226326,0.226049,-1.66821,24,0.015229,10,-0.000377097,-2.77775,-0.428488,-0.137693,8.93287,0.226049,
2,0,0,1,0,46484.4,0.218834,0.21851,-1.72557,24,0.015015,10,-0.000377054,-2.76307,-0.382131,-0.154397,10.4053,0.21851,
2,0,0,1,0,46484.5,0.211344,0.211045,-1.78704,24,0.0147936,10,-0.000377147,-2.74786,-0.477461,-0.12357,8.62938,0.2110453,
2,0,0,1,0,46484.6,0.203856,0.203523,-1.84886,24,0.0145643,10,-0.000376286,-2.7331,-0.814475,-0.0724393,5.23033,0.203523,
2,0,0,1,0,46484.7,0.196362,0.196032,-1.91329,24,0.0143274,10,-0.000375067,-2.71822,-0.63545,-0.0928476,6.9198,0.196032,
2,0,0,1,0,46484.9,0.18887,0.188544,-1.97551,24,0.0140823,10,-0.000372471,-2.70432,-0.362885,-0.162586,12.5661,0.188544,
2,0,0,1,0,46485,0.18138,0.181093,-2.05421,24,0.0138285,10,-0.000372003,-2.68736,-0.418861,-0.140858,11.3041,0.181093,
2,0,0,1,0,46485.1,0.173892,0.173576,-2.14603,24,0.0135645,10,-0.000372499,-2.66836,-0.377688,-0.156214,13.0636,0.173576,
2,0,0,1,0,46485.2,0.166398,0.166034,-2.26199,24,0.0132877,10,-0.000375567,-2.64551,-0.361553,-0.163185,14.3697,0.1660337,
2,0,0,1,0,46485.4,0.158905,0.158572,-2.40243,24,0.012995,10,-0.000380959,-2.61935,-0.237771,-0.248138,23.3004,0.158572,
2,0,0,1,0,46485.5,0.151417,0.151058,-2.6197,24,0.0126798,10,-0.000395726,-2.58175,-0.162828,-0.362345,37.2427,0.151058,
2,0,0,1,0,46485.6,0.143927,0.143672,-2.97817,24,0.0123291,10,-0.000427879,-2.52605,-0.111734,-0.528041,61.6711,0.143672,
2,0,0,1,0,46485.7,0.136435,0.136112,-3.54752,24,0.0119209,10,-0.00048286,-2.45008,-0.0947418,-0.622745,86.1746,0.136112,
2,0,0,1,0,46485.9,0.128941,0.128619,-4.24025,24,0.0114332,10,-0.000545374,-2.37261,-0.104342,-0.565446,93.2898,0.128619,
2,0,0,1,0,46486,0.121453,0.121198,-4.89088,24,0.01086,10,-0.000592764,-2.31061,-0.142056,-0.415328,79.3147,0.121198,
2,0,0,1,0,46486.1,0.113963,0.113635,-5.42594,24,0.0102117,10,-0.000616576,-2.26552,-0.212103,-0.278167,58.913,0.113635,
2,0,0,1,0,46486.2,0.106471,0.106183,-5.78794,24,0.00950656,10,-0.000614581,-2.23748,-0.422107,-0.139775,31.5464,0.106183,
2,0,0,1,0,46486.4,0.0989825,0.0986803,-5.92545,24,0.00877084,10,-0.000584726,-2.22728,-2.43721,-0.024208,5.58858,0.0986803,
2,0,0,1,0,46486.5,0.0914889,0.0911818,-5.8547,24,0.00803136,10,-0.000533842,-2.2325,0.821801,0.0717936,-16.3886,0.0911818,
2,0,0,1,0,46486.6,0.0839993,0.0836271,-5.67516,24,0.00730929,10,-0.000474597,-2.24602,0.458145,0.12878,-28.5369,0.0836271,
2,0,0,1,0,46486.7,0.076507,0.0761699,-5.51257,24,0.00660889,10,-0.000419891,-2.25865,0.559901,0.105376,-22.6623,0.0761699,
2,0,0,1,0,46486.9,0.0690187,0.0687148,-5.37894,24,0.00592753,10,-0.000369612,-2.2693,0.782412,0.0754078,-15.829,0.0687148,
2,0,0,1,0,46487,0.0615251,0.0612467,-5.2609,24,0.00526071,10,-0.000322213,-2.27894,0.807438,0.0730706,-15.0168,0.0612467,
2,0,0,1,0,46487.1,0.0540355,0.0537067,-5.13422,24,0.00460968,10,-0.000275742,-2.28953,0.696541,0.0847043,-16.9714,0.0537067,
2,0,0,1,0,46487.2,0.0465432,0.0462206,-4.99459,24,0.0039747,10,-0.000230853,-2.3015,0.578492,0.101989,-19.8722,0.0462206,
2,0,0,1,0,46487.4,0.0390549,0.0387507,-4.84715,24,0.00335873,10,-0.000187831,-2.31451,0.480662,0.122747,-23.1616,0.0387507,
2,0,0,1,0,46487.5,0.0315613,0.0312237,-4.66607,24,0.00276272,10,-0.000145692,-2.33105,0.453394,0.13013,-23.6923,0.0312237,
2,0,0,1,0,46487.6,0.0240717,0.0237371,-4.47166,24,0.0021901,10,-0.000106144,-2.34953,0.432239,0.136499,-23.8647,0.0237371,
2,0,0,1,0,46487.7,0.0165781,0.0162716,-4.30275,24,0.0016399,10,-7.00127e-05,-2.36625,0.455385,0.129561,-21.7694,0.0162716,
2,0,0,1,0,46487.9,0.00909108,0.00871554,-4.16661,24,0.00110992,10,-3.63142e-05,-2.38022,0.561008,0.105168,-17.0622,0.00871554,
2,0,0,1,0,46488,0.00159616,0.00119934,-4.0874,24,0.000594756,10,-4.90219e-06,-2.38855, , , ,0.00119934,
2,0,0,1,0,46488,0.000199195,-0.000143994,-4.0565,24,0.000499459,10,5.84111e-07,-2.39185, , , ,-0.000143994,