Folder: Figs_alphaMnO2_OER_Tafel_sleope/Figure_codes/Fig_3-5/rawdata_trumpetplot_data/after 10th (part 94)

File: 20221101_1-115_003_TrumpetPlot_ParaChange_from10_every3_07_CV_C01_14.csv
mode,ox/red,error,control changes,counter inc.,time/s,control/V,Ewe/V,<I>/mA,cycle number,(Q-Qo)/C,I Range,P/W,log(|I|),Tafel slope mV/dec,alpha_eff,dI/d(E-IR),E-IR/V,
2,0,0,0,0,28746.8,2.44065e-05,-0.000363498,-2.7491,15,0.0000000E+000,10,9.99294e-07,-2.56081, , , ,-0.000363498,
2,1,0,1,0,28747,0.007288,0.0069811,1.06334,15,-2.12304e-05,10,7.42328e-06,-2.97333,0.0112919,5.22499,193.898,0.0069811,
2,1,0,1,0,28747.1,0.0147816,0.0144124,1.90943,15,0.000175783,10,2.75195e-05,-2.7191,0.0624664,0.944507,70.0386,0.0144124,
2,1,0,1,0,28747.2,0.0222712,0.0219847,2.31693,15,0.000443456,10,5.09368e-05,-2.63509,0.123883,0.476256,42.9174,0.0219847,
2,1,0,1,0,28747.3,0.0297648,0.0294569,2.61836,15,0.000753483,10,7.71287e-05,-2.58197,0.162497,0.363083,36.9317,0.0294569,
2,1,0,1,0,28747.5,0.0372518,0.0369336,2.87932,15,0.00109834,10,0.000106344,-2.54071,0.182094,0.324009,36.4373,0.0369336,
2,1,0,1,0,28747.6,0.0447467,0.0444417,3.14076,15,0.00147651,10,0.00013958,-2.50297,0.215126,0.274257,33.6692,0.0444417,
2,1,0,1,0,28747.7,0.052235,0.0519205,3.3935,15,0.00188625,10,0.000176192,-2.46935,0.24074,0.245078,32.4172,0.0519205,
2,1,0,1,0,28747.8,0.0597299,0.0594019,3.63173,15,0.00232668,10,0.000215732,-2.43989,0.261665,0.225479,31.8916,0.0594019,
2,1,0,1,0,28748,0.0672156,0.0669253,3.84768,15,0.00279501,10,0.000257507,-2.4148,0.295767,0.199481,29.9325,0.0669253,
2,1,0,1,0,28748.1,0.0747105,0.0743917,4.0377,15,0.00328964,10,0.000300371,-2.39387,0.404975,0.145688,22.9808,0.0743917,
2,1,0,1,0,28748.2,0.0821988,0.0818879,4.20903,15,0.00380637,10,0.000344668,-2.37582,0.534475,0.110389,18.1111,0.0818879,
2,1,0,1,0,28748.3,0.0896937,0.0893728,4.35969,15,0.00434307,10,0.000389637,-2.36054,0.453945,0.129972,22.1129,0.0893728,
2,1,0,1,0,28748.5,0.0971794,0.0968379,4.54729,15,0.0049005,10,0.00044035,-2.34225,0.312644,0.188713,33.5347,0.0968379,
2,1,0,1,0,28748.6,0.104674,0.10439,4.83332,15,0.00548725,10,0.000504549,-2.31575,0.236269,0.249715,47.1824,0.10439,
2,1,0,1,0,28748.7,0.112163,0.111813,5.21738,15,0.00611598,10,0.000583369,-2.28255,0.235333,0.250709,51.0055,0.111813,
2,1,0,1,0,28748.8,0.119657,0.119319,5.59716,15,0.00679355,10,0.000667848,-2.25203,0.294603,0.20027,43.657,0.119319,
2,1,0,1,0,28749,0.127143,0.12686,5.8694,15,0.00751207,10,0.000744595,-2.23141,0.41293,0.142881,32.722,0.1268605,
2,1,0,1,0,28749.1,0.134638,0.134277,6.0595,15,0.00826036,10,0.000813651,-2.21756,0.669948,0.0880666,20.8611,0.134277,
2,1,0,1,0,28749.2,0.142126,0.141835,6.16348,15,0.00902726,10,0.0008742,-2.21017,-20.3233,-0.00290307,-0.697192,0.141835,
2,1,0,1,0,28749.3,0.149621,0.149326,5.94704,15,0.0097903,10,0.000888048,-2.2257,-0.206168,-0.286174,-66.0736,0.149326,
2,1,0,1,0,28749.5,0.157107,0.156758,5.17545,15,0.0104906,10,0.000811295,-2.28605,-0.0937045,-0.629639,-126.882,0.156758,
2,1,0,1,0,28749.6,0.164602,0.164261,4.2281,15,0.0110784,10,0.000694513,-2.37385,-0.0853131,-0.69157,-114.416,0.164261,
2,1,0,1,0,28749.7,0.17209,0.171757,3.5527,15,0.0115628,10,0.000610201,-2.44944,-0.116599,-0.506006,-70.4486,0.171757,
2,1,0,1,0,28749.8,0.179585,0.179269,3.15612,15,0.0119818,10,0.000565794,-2.50085,-0.180292,-0.327246,-40.3881,0.179269,
2,1,0,1,0,28750,0.187072,0.186782,2.91444,15,0.0123612,10,0.000544365,-2.53545,-0.304805,-0.193566,-22.0383,0.186782,
2,1,0,1,0,28750.1,0.194566,0.194221,2.76469,15,0.0127171,10,0.000536962,-2.55835,-0.419164,-0.140756,-15.2125,0.194221,
2,1,0,1,0,28750.2,0.202055,0.201757,2.66561,15,0.0130576,10,0.000537806,-2.5742,-0.468434,-0.125952,-13.1014,0.201757,
2,1,0,1,0,28750.3,0.209549,0.209254,2.60472,15,0.0133882,10,0.000545048,-2.58424,-0.63909,-0.0923188,-9.3661,0.209254,
2,1,0,1,0,28750.5,0.217036,0.216711,2.54866,15,0.0137113,10,0.000552323,-2.59369,-1.5056,-0.039187,-3.899,0.216711,
2,1,0,1,0,28750.6,0.224529,0.224224,2.511,15,0.0140294,10,0.000563025,-2.60015,-1.2175,-0.0484601,-4.76167,0.224224,
2,1,0,1,0,28750.7,0.232019,0.231758,2.48284,15,0.014343,10,0.000575419,-2.60505,-1.51666,-0.0389013,-3.77366,0.231758,
2,1,0,1,0,28750.8,0.239513,0.2392,2.46681,15,0.0146535,10,0.00059006,-2.60787,-2.06722,-0.0285407,-2.7383,0.2392,
2,1,0,1,0,28751,0.247001,0.246674,2.4423,15,0.0149608,10,0.00060245,-2.6122,-1.74035,-0.0339012,-3.22015,0.2466736,
2,1,0,1,0,28751.1,0.254493,0.254172,2.41472,15,0.0152657,10,0.000613755,-2.61713,-2.97568,-0.0198274,-1.87061,0.2541723,
2,1,0,1,0,28751.2,0.261983,0.261661,2.38999,15,0.0155678,10,0.000625367,-2.6216,-1.4567,-0.0405025,-3.79422,0.261661,
2,1,0,1,0,28751.3,0.269477,0.269152,2.37827,15,0.0158677,10,0.000640117,-2.62374,-1.60326,-0.0368001,-3.41521,0.269152,
2,1,0,1,0,28751.5,0.276965,0.276689,2.35829,15,0.0161651,10,0.000652512,-2.6274,-3.53815,-0.0166754,-1.53524,0.276689,
2,1,0,1,0,28751.6,0.284457,0.284127,2.33621,15,0.0164602,10,0.00066378,-2.63149,-4.70996,-0.0125267,-1.14363,0.284127,
2,1,0,1,0,28751.7,0.291947,0.291636,2.31534,15,0.0167523,10,0.000675234,-2.63539,-1.34056,-0.0440115,-3.97778,0.291636,
2,1,0,1,0,28751.8,0.29944,0.299159,2.2985,15,0.0170421,10,0.000687615,-2.63856,-0.00784397,-7.5217,-522.661,0.299159,
2,0,0,1,0,28751.9,0.293742,0.293416,-0.394534,15,0.0171,10,-0.000115763,-3.40392,-0.00554254,-10.6449,112.437,0.293416,
2,0,0,1,0,28752.1,0.286254,0.285942,-0.813959,15,0.0170177,10,-0.000232746,-3.0894,-0.0518759,-1.13733,35.9883,0.285942,
2,0,0,1,0,28752.2,0.278761,0.278465,-1.01132,15,0.0169,10,-0.000281617,-2.99511,-0.119146,-0.49519,19.6639,0.2784653,
2,0,0,1,0,28752.3,0.271272,0.270962,-1.16088,15,0.0167618,10,-0.000314556,-2.93521,-0.172122,-0.34278,15.4463,0.270962,
2,0,0,1,0,28752.4,0.263778,0.263436,-1.271,15,0.0166079,10,-0.000334826,-2.89586,-0.21812,-0.270493,13.3842,0.263436,
2,0,0,1,0,28752.6,0.25629,0.25597,-1.36167,15,0.0164415,10,-0.000348546,-2.86593,-0.240459,-0.245364,13.0088,0.25597,
2,0,0,1,0,28752.7,0.248797,0.248427,-1.44399,15,0.0162641,10,-0.000358726,-2.84044,-0.321002,-0.1838,10.3748,0.248427,
2,0,0,1,0,28752.8,0.241308,0.240999,-1.5171,15,0.0160771,10,-0.000365621,-2.81898,-0.412246,-0.143119,8.4788,0.240999,
2,0,0,1,0,28752.9,0.233814,0.233487,-1.58941,15,0.015881,10,-0.000371106,-2.79876,-0.394567,-0.149531,9.25677,0.233487,
2,0,0,1,0,28753.1,0.226326,0.226007,-1.65133,15,0.0156767,10,-0.000373213,-2.78217,-0.374232,-0.157656,10.1799,0.226007,
2,0,0,1,0,28753.2,0.218834,0.218512,-1.71485,15,0.0154641,10,-0.000374717,-2.76577,-0.413187,-0.142792,9.58504,0.2185123,
2,0,0,1,0,28753.3,0.211344,0.21105,-1.77873,15,0.0152438,10,-0.000375401,-2.74989,-0.741175,-0.0796033,5.52859,0.21105,
2,0,0,1,0,28753.4,0.203856,0.203485,-1.85022,15,0.0150154,10,-0.000376493,-2.73278,-0.596357,-0.0989341,7.12187,0.203485,
2,0,0,1,0,28753.6,0.196362,0.196036,-1.90989,15,0.0147789,10,-0.000374407,-2.71899,-0.484725,-0.121719,9.07616,0.196036,
2,0,0,1,0,28753.7,0.18887,0.188538,-1.97653,15,0.0145338,10,-0.000372652,-2.7041,-0.445446,-0.132452,10.2596,0.188538,
2,0,0,1,0,28753.8,0.18138,0.181056,-2.06344,15,0.0142793,10,-0.000373598,-2.68541,-0.452248,-0.130459,10.5124,0.181056,
2,0,0,1,0,28753.9,0.173892,0.173531,-2.16328,15,0.0140138,10,-0.000375396,-2.66489,-0.32763,-0.180081,15.1636,0.173531,
2,0,0,1,0,28754.1,0.166398,0.166057,-2.29212,15,0.0137343,10,-0.000380624,-2.63976,-0.273,-0.216117,19.2853,0.166057,
2,0,0,1,0,28754.2,0.158905,0.15862,-2.4502,15,0.0134367,10,-0.000388651,-2.6108,-0.202508,-0.291346,27.9682,0.15862,
2,0,0,1,0,28754.3,0.151417,0.151065,-2.71123,15,0.0131131,10,-0.000409574,-2.56683,-0.153973,-0.383185,40.6872,0.151065,
2,0,0,1,0,28754.4,0.143927,0.1436,-3.13527,15,0.0127483,10,-0.000450224,-2.50373,-0.100118,-0.589307,72.1303,0.1436,
2,0,0,1,0,28754.6,0.136435,0.136106,-3.77281,15,0.0123171,10,-0.0005135,-2.42334,-0.087266,-0.676094,99.4754,0.136106,
2,0,0,1,0,28754.7,0.128941,0.128641,-4.53463,15,0.0117966,10,-0.000583341,-2.34346,-0.100829,-0.585151,103.379,0.128641,
2,0,0,1,0,28754.8,0.121453,0.121144,-5.24769,15,0.0111826,10,-0.000635724,-2.28003,-0.146868,-0.401722,82.0883,0.121144,
2,0,0,1,0,28754.9,0.113963,0.113598,-5.78222,15,0.0104902,10,-0.00065685,-2.23791,-0.233317,-0.252875,56.9577,0.113598,
2,0,0,1,0,28755.1,0.106471,0.106168,-6.11263,15,0.0097433,10,-0.000648966,-2.21377,-0.458057,-0.128805,30.6747,0.106168,
2,0,0,1,0,28755.2,0.0989825,0.0986472,-6.20302,15,0.00897018,10,-0.00061191,-2.2074,9.65386,0.00611155,-1.47795,0.0986472,
2,0,0,1,0,28755.3,0.0914889,0.0911359,-6.08358,15,0.00819915,10,-0.000554432,-2.21584,0.535697,0.110137,-26.1294,0.0911359,
2,0,0,1,0,28755.4,0.0839993,0.083703,-5.85435,15,0.00745239,10,-0.000490026,-2.23252,0.39893,0.147895,-33.7332,0.083703,
2,0,0,1,0,28755.6,0.076507,0.0762188,-5.6391,15,0.00673389,10,-0.000429805,-2.24879,0.539933,0.109273,-24.04,0.0762188,
2,0,0,1,0,28755.7,0.0690187,0.0687374,-5.47276,15,0.00603889,10,-0.000376183,-2.26179,0.734536,0.0803229,-17.183,0.0687374,
2,0,0,1,0,28755.8,0.0615251,0.0612382,-5.34638,15,0.00536041,10,-0.000327403,-2.27194,0.674574,0.0874626,-18.2816,0.06123824,
2,0,0,1,0,28755.9,0.0540355,0.0537349,-5.22358,15,0.00469844,10,-0.000280688,-2.28203,0.690475,0.0854485,-17.4009,0.0537349,
2,0,0,1,0,28756.1,0.0465432,0.0462394,-5.08568,15,0.00405263,10,-0.000235159,-2.29365,0.661639,0.0891724,-17.684,0.0462394,
2,0,0,1,0,28756.2,0.0390549,0.0387542,-4.93087,15,0.00342568,10,-0.000191092,-2.30708,0.545535,0.108151,-20.7957,0.0387542,
2,0,0,1,0,28756.3,0.0315613,0.0312389,-4.75198,15,0.00281852,10,-0.000148447,-2.32312,0.427827,0.137906,-25.5997,0.0312389,
2,0,0,1,0,28756.4,0.0240717,0.023759,-4.56233,15,0.00223483,10,-0.000108396,-2.34081,0.378512,0.155873,-27.7646,0.023759,
2,0,0,1,0,28756.6,0.0165781,0.016296,-4.38696,15,0.00167434,10,-7.14897e-05,-2.35784,0.478463,0.123311,-21.0949,0.016296,
2,0,0,1,0,28756.7,0.00909108,0.00873889,-4.2274,15,0.00113535,10,-3.69428e-05,-2.37393,0.598556,0.0985705,-16.2672,0.00873889,
2,0,0,1,0,28756.8,0.00159616,0.00121817,-4.14578,15,0.000612125,10,-5.05026e-06,-2.38239, , , ,0.00121817,
2,0,0,1,0,28756.8,0.000199195,-0.0002108,-4.11988,15,0.000515413,10,8.68469e-07,-2.38512, , , ,-0.0002108,

File: 20221101_1-115_003_TrumpetPlot_ParaChange_from10_every3_07_CV_C01_15.csv
mode,ox/red,error,control changes,counter inc.,time/s,control/V,Ewe/V,<I>/mA,cycle number,(Q-Qo)/C,I Range,P/W,log(|I|),Tafel slope mV/dec,alpha_eff,dI/d(E-IR),E-IR/V,
2,0,0,0,0,30717,2.44065e-05,-0.000382585,-2.72557,16,0.0000000E+000,10,1.04276e-06,-2.56454, , , ,-0.000382585,
2,1,0,1,0,30717.1,0.007288,0.00698311,1.11531,16,-1.70796e-05,10,7.7883e-06,-2.95261,0.0116742,5.05386,196.965,0.00698311,
2,1,0,1,0,30717.2,0.0147816,0.0144178,1.97181,16,0.000187215,10,2.84292e-05,-2.70514,0.063045,0.93584,71.6602,0.0144178,
2,1,0,1,0,30717.3,0.0222712,0.0219578,2.3843,16,0.000463252,10,5.23541e-05,-2.62264,0.127356,0.463269,43.0146,0.0219578,
2,1,0,1,0,30717.5,0.0297648,0.0294961,2.6856,16,0.000781847,10,7.92146e-05,-2.57096,0.177786,0.331859,34.652,0.0294961,
2,1,0,1,0,30717.6,0.0372518,0.0369314,2.95059,16,0.00113527,10,0.000108969,-2.53009,0.194823,0.302839,34.8293,0.0369314,
2,1,0,1,0,30717.7,0.0447467,0.0444027,3.20164,16,0.00152178,10,0.000142161,-2.49463,0.209483,0.281646,35.3057,0.0444027,
2,1,0,1,0,30717.8,0.052235,0.0519342,3.45648,16,0.00193968,10,0.000179509,-2.46137,0.239733,0.246107,33.2025,0.0519342,
2,1,0,1,0,30718,0.0597299,0.0594464,3.697,16,0.00238817,10,0.000219773,-2.43215,0.280559,0.210294,30.259,0.0594464,
2,1,0,1,0,30718.1,0.0672156,0.06691,3.91426,16,0.00286457,10,0.000261903,-2.40735,0.31782,0.18564,28.2951,0.06691,
2,1,0,1,0,30718.2,0.0747105,0.0744147,4.10247,16,0.00336719,10,0.000305284,-2.38695,0.380884,0.154903,24.8152,0.0744147,
2,1,0,1,0,30718.3,0.0821988,0.081853,4.26661,16,0.00389191,10,0.000349235,-2.36992,0.541419,0.108973,18.1595,0.081853,
2,1,0,1,0,30718.5,0.0896937,0.0893665,4.42296,16,0.00443649,10,0.000395265,-2.35429,0.464837,0.126926,21.9148,0.0893665,
2,1,0,1,0,30718.6,0.0971794,0.0968457,4.61444,16,0.00500164,10,0.000446889,-2.33588,0.350515,0.168324,30.2845,0.0968457,
2,1,0,1,0,30718.7,0.104674,0.104349,4.8974,16,0.00559598,10,0.000511041,-2.31003,0.232323,0.253956,48.5695,0.104349,
2,1,0,1,0,30718.8,0.112163,0.111827,5.26846,16,0.00623186,10,0.000589155,-2.27832,0.232139,0.254158,52.2932,0.111827,
2,1,0,1,0,30719,0.119657,0.119326,5.65827,16,0.00691664,10,0.000675179,-2.24732,0.306409,0.192553,42.4346,0.119326,
2,1,0,1,0,30719.1,0.127143,0.126813,5.94061,16,0.00764316,10,0.000753346,-2.22617,0.443274,0.133101,30.8201,0.126813,
2,1,0,1,0,30719.2,0.134638,0.134301,6.13716,16,0.00839998,10,0.000824227,-2.21203,0.601947,0.0980153,23.4793,0.134301,
2,1,0,1,0,30719.3,0.142126,0.141831,6.23437,16,0.00917579,10,0.000884224,-2.20521,11.8935,0.00496068,1.20545,0.141831,
2,1,0,1,0,30719.5,0.149621,0.149264,6.01105,16,0.009948,10,0.000897237,-2.22105,-0.207822,-0.283896,-66.3787,0.149264,
2,1,0,1,0,30719.6,0.157107,0.156827,5.26121,16,0.0106579,10,0.000825098,-2.27891,-0.0956747,-0.616673,-126.118,0.156827,
2,1,0,1,0,30719.7,0.164602,0.164248,4.29766,16,0.0112551,10,0.00070588,-2.36677,-0.0868097,-0.679648,-114.173,0.164248,
2,1,0,1,0,30719.8,0.17209,0.171797,3.5989,16,0.0117467,10,0.00061828,-2.44383,-0.115009,-0.513001,-72.3992,0.171797,
2,1,0,1,0,30720,0.179585,0.179282,3.18098,16,0.0121702,10,0.000570292,-2.49744,-0.165354,-0.356811,-44.4282,0.179282,
2,1,0,1,0,30720.1,0.187072,0.186737,2.93678,16,0.0125524,10,0.000548407,-2.53213,-0.278391,-0.211932,-24.2726,0.186737,
2,1,0,1,0,30720.2,0.194566,0.194273,2.78541,16,0.0129103,10,0.000541128,-2.55511,-0.438975,-0.134404,-14.5873,0.1942727,
2,1,0,1,0,30720.3,0.202055,0.201782,2.67368,16,0.0132522,10,0.0005395,-2.57289,-0.617257,-0.0955842,-9.98308,0.201782,
2,1,0,1,0,30720.5,0.209549,0.209247,2.61145,16,0.0135839,10,0.00054644,-2.58312,-0.496243,-0.118893,-12.0986,0.209247,
2,1,0,1,0,30720.6,0.217036,0.216726,2.55383,16,0.0139077,10,0.000553482,-2.59281,-0.806279,-0.0731756,-7.29053,0.216726,
2,1,0,1,0,30720.7,0.224529,0.22418,2.51681,16,0.014226,10,0.000564218,-2.59915,-1.32908,-0.0443915,-4.35872,0.22418,
2,1,0,1,0,30720.8,0.232019,0.231711,2.4808,16,0.0145397,10,0.00057483,-2.60541,-5.68863,-0.0103716,-1.00588,0.231711,
2,1,0,1,0,30721,0.239513,0.2392,2.45575,16,0.01485,10,0.000587414,-2.60982,-1.23009,-0.0479642,-4.5961,0.2392,
2,1,0,1,0,30721.1,0.247001,0.246683,2.43894,16,0.015157,10,0.000601644,-2.6128,-1.01517,-0.0581183,-5.50819,0.2466829,
2,1,0,1,0,30721.2,0.254493,0.254217,2.41104,16,0.0154614,10,0.000612926,-2.6178,-4.6071,-0.0128063,-1.20512,0.254217,
2,1,0,1,0,30721.3,0.261983,0.261663,2.38899,16,0.015763,10,0.000625108,-2.62179,-2.34805,-0.0251272,-2.34535,0.261663,
2,1,0,1,0,30721.5,0.269477,0.269154,2.37005,16,0.0160624,10,0.000637906,-2.62524,-2.28011,-0.025876,-2.39641,0.269154,
2,1,0,1,0,30721.6,0.276965,0.276666,2.35493,16,0.0163593,10,0.000651529,-2.62802,-1.22928,-0.0479956,-4.40981,0.276666,
2,1,0,1,0,30721.7,0.284457,0.284133,2.33694,16,0.0166539,10,0.000664002,-2.63135,71.1038,0.000829773,0.0754225,0.284133,
2,1,0,1,0,30721.8,0.291947,0.291658,2.31029,16,0.0169457,10,0.000673814,-2.63633,-2.72507,-0.0216508,-1.95287,0.291658,
2,1,0,1,0,30722,0.29944,0.299137,2.29153,16,0.0172351,10,0.000685483,-2.63987,-0.0078407,-7.52484,-519.653,0.299137,
2,0,0,1,0,30722.1,0.293742,0.293412,-0.424942,16,0.0172908,10,-0.000124683,-3.37167,-0.00637083,-9.26095,112.802,0.293412,
2,0,0,1,0,30722.2,0.286254,0.285918,-0.867043,16,0.0172031,10,-0.000247903,-3.06196,-0.0553463,-1.06602,35.6259,0.285918,
2,0,0,1,0,30722.3,0.278761,0.278449,-1.06509,16,0.0170793,10,-0.000296572,-2.97261,-0.110643,-0.533244,22.1638,0.278449,
2,0,0,1,0,30722.5,0.271272,0.270955,-1.20219,16,0.0169352,10,-0.00032574,-2.92003,-0.164572,-0.358506,16.8621,0.270955,
2,0,0,1,0,30722.6,0.263778,0.263427,-1.31648,16,0.0167755,10,-0.000346798,-2.88058,-0.239311,-0.246541,12.6271,0.2634275,
2,0,0,1,0,30722.7,0.25629,0.255993,-1.40942,16,0.0166036,10,-0.000360802,-2.85096,-0.333732,-0.176788,9.67496,0.255993,
2,0,0,1,0,30722.8,0.248797,0.248471,-1.48377,16,0.016421,10,-0.000368673,-2.82863,-0.331451,-0.178005,10.3096,0.248471,
2,0,0,1,0,30723,0.241308,0.240976,-1.55303,16,0.016229,10,-0.000374244,-2.80882,-0.377504,-0.15629,9.50587,0.240976,
2,0,0,1,0,30723.1,0.233814,0.233462,-1.62952,16,0.0160282,10,-0.00038043,-2.78794,-0.536103,-0.110054,6.98542,0.233462,
2,0,0,1,0,30723.2,0.226326,0.226009,-1.69648,16,0.0158193,10,-0.00038342,-2.77045,-0.472766,-0.124798,8.22711,0.226009,
2,0,0,1,0,30723.3,0.218834,0.218525,-1.75498,16,0.0156022,10,-0.000383508,-2.75573,-0.429951,-0.137225,9.38991,0.218525,
2,0,0,1,0,30723.5,0.211344,0.211085,-1.81404,16,0.0153775,10,-0.000382917,-2.74135,-0.530709,-0.111172,7.87579,0.211085,
2,0,0,1,0,30723.6,0.203856,0.203542,-1.87724,16,0.0151449,10,-0.000382098,-2.72648,-0.704959,-0.0836928,6.14481,0.203542,
2,0,0,1,0,30723.7,0.196362,0.19605,-1.94648,16,0.0149043,10,-0.000381608,-2.71075,-0.572666,-0.103027,7.80603,0.19605,
2,0,0,1,0,30723.8,0.18887,0.188487,-2.01362,16,0.014655,10,-0.000379541,-2.69602,-0.373664,-0.157896,12.4255,0.188487,
2,0,0,1,0,30724,0.18138,0.181063,-2.09569,16,0.0143964,10,-0.000379453,-2.67867,-0.37061,-0.159197,13.0416,0.1810635,
2,0,0,1,0,30724.1,0.173892,0.173566,-2.19708,16,0.0141266,10,-0.000381338,-2.65815,-0.352832,-0.167218,14.3323,0.173566,
2,0,0,1,0,30724.2,0.166398,0.166061,-2.32518,16,0.0138429,10,-0.000386121,-2.63354,-0.325207,-0.181423,16.4487,0.166061,
2,0,0,1,0,30724.3,0.158905,0.158626,-2.4932,16,0.0135409,10,-0.000395486,-2.60324,-0.20537,-0.287286,27.9621,0.158626,
2,0,0,1,0,30724.4,0.151417,0.151069,-2.74496,16,0.0132126,10,-0.000414679,-2.56146,-0.143416,-0.411391,44.3709,0.151069,
2,0,0,1,0,30724.6,0.143927,0.143615,-3.17539,16,0.0128425,10,-0.000456034,-2.4982,-0.0999803,-0.590116,73.3179,0.143615,
2,0,0,1,0,30724.7,0.136435,0.136118,-3.82052,16,0.0124056,10,-0.000520042,-2.41788,-0.0897182,-0.657614,97.9666,0.136118,
2,0,0,1,0,30724.8,0.128941,0.128612,-4.59044,16,0.0118789,10,-0.000590387,-2.33815,-0.102375,-0.576315,102.989,0.128612,
2,0,0,1,0,30724.9,0.121453,0.121116,-5.29712,16,0.0112585,10,-0.000641565,-2.27596,-0.142374,-0.414401,85.5881,0.121116,
2,0,0,1,0,30725.1,0.113963,0.113623,-5.82997,16,0.0105593,10,-0.000662418,-2.23433,-0.234886,-0.251186,57.1622,0.113623,
2,0,0,1,0,30725.2,0.106471,0.106175,-6.16962,16,0.00980485,10,-0.000655059,-2.20974,-0.479663,-0.123003,29.5953,0.106175,
2,0,0,1,0,30725.3,0.0989825,0.0986645,-6.27335,16,0.00902373,10,-0.000618957,-2.2025,14.1261,0.00417668,-1.0205,0.0986645,
2,0,0,1,0,30725.4,0.0914889,0.0911434,-6.14785,16,0.00824441,10,-0.000560336,-2.21128,0.621252,0.0949695,-22.767,0.0911434,
2,0,0,1,0,30725.6,0.0839993,0.0836617,-5.91264,16,0.00748913,10,-0.000494661,-2.22822,0.414329,0.142399,-32.8748,0.0836617,
2,0,0,1,0,30725.7,0.076507,0.0761565,-5.70783,16,0.00676195,10,-0.000434688,-2.24353,0.50158,0.117628,-26.1919,0.0761565,
2,0,0,1,0,30725.8,0.0690187,0.0686477,-5.54594,16,0.00605827,10,-0.000380716,-2.25602,0.626643,0.0941524,-20.38,0.0686477,
2,0,0,1,0,30725.9,0.0615251,0.0611689,-5.41103,16,0.00537194,10,-0.000330986,-2.26672,0.753559,0.0782951,-16.5426,0.0611689,
2,0,0,1,0,30726.1,0.0540355,0.0537379,-5.26768,16,0.00470321,10,-0.000283074,-2.27838,0.703195,0.0839027,-17.2633,0.05373795,
2,0,0,1,0,30726.2,0.0465432,0.0462289,-5.12584,16,0.0040517,10,-0.000236962,-2.29023,0.559398,0.105471,-21.0939,0.0462289,
2,0,0,1,0,30726.3,0.0390549,0.0387555,-4.96864,16,0.0034199,10,-0.000192562,-2.30376,0.475962,0.12396,-23.9898,0.0387555,
2,0,0,1,0,30726.4,0.0315613,0.031274,-4.78425,16,0.00280903,10,-0.000149623,-2.32019,0.46717,0.126292,-23.5587,0.031274,
2,0,0,1,0,30726.6,0.0240717,0.0237608,-4.5742,16,0.00222242,10,-0.000108687,-2.33968,0.398585,0.148024,-26.5036,0.0237608,
2,0,0,1,0,30726.7,0.0165781,0.0162523,-4.39097,16,0.00166004,10,-7.13632e-05,-2.35744,0.411823,0.143266,-24.5802,0.0162523,
2,0,0,1,0,30726.8,0.00909108,0.00877681,-4.2389,16,0.00111985,10,-3.7204e-05,-2.37275,0.55731,0.105866,-17.5055,0.00877681,
2,0,0,1,0,30726.9,0.00159616,0.00124603,-4.15341,16,0.000595937,10,-5.17526e-06,-2.3816, , , ,0.00124603,
2,0,0,1,0,30727,0.000199195,-0.000203165,-4.11934,16,0.000499131,10,8.36904e-07,-2.38517, , , ,-0.000203165,