Folder: Figs_alphaMnO2_OER_Tafel_sleope/Figure_codes/Fig_3-5/rawdata_trumpetplot_data/after 10th (part 73)

File: 20221101_1-115_003_TrumpetPlot_ParaChange_from10_every3_06_CV_C01_6.csv
mode,ox/red,error,control changes,counter inc.,time/s,control/V,Ewe/V,<I>/mA,cycle number,(Q-Qo)/C,I Range,P/W,log(|I|),Tafel slope mV/dec,alpha_eff,dI/d(E-IR),E-IR/V,
2,0,0,0,0,12970.8,2.44065e-05,-0.000363498,-1.4217,7,0.0000000E+000,10,5.16787e-07,-2.84719, , , ,-0.000363498,
2,1,0,1,0,12971,0.00729063,0.00698461,1.30545,7,0.000111141,10,9.11803e-06,-2.88424,0.0365761,1.61308,79.7957,0.00698461,
2,1,0,1,0,12971.2,0.014778,0.0144477,1.65054,7,0.000395526,10,2.38466e-05,-2.78237,0.115748,0.509729,32.6698,0.0144477,
2,1,0,1,0,12971.4,0.0222743,0.0219699,1.86344,7,0.000727891,10,4.09394e-05,-2.72969,0.160635,0.367293,26.58,0.0219699,
2,1,0,1,0,12971.5,0.0297626,0.0294618,2.04475,7,0.0010964,10,6.0242e-05,-2.68936,0.190805,0.309217,24.7241,0.0294618,
2,1,0,1,0,12971.7,0.0372544,0.0369566,2.23485,7,0.00150008,10,8.25925e-05,-2.65075,0.216058,0.273075,23.737,0.03695656,
2,1,0,1,0,12971.9,0.0447472,0.0444213,2.41478,7,0.00193841,10,0.000107268,-2.61712,0.23204,0.254267,23.9805,0.0444213,
2,1,0,1,0,12972.1,0.0522345,0.0519204,2.58566,7,0.00241009,10,0.000134249,-2.58743,0.246888,0.238974,24.1701,0.0519204,
2,1,0,1,0,12972.3,0.0597309,0.0594267,2.75714,7,0.00291417,10,0.000163848,-2.55954,0.28122,0.2098,22.5085,0.0594267,
2,1,0,1,0,12972.5,0.0672182,0.0668941,2.90287,7,0.00344719,10,0.000194185,-2.53717,0.323717,0.182258,20.6647,0.0668941,
2,1,0,1,0,12972.7,0.0747074,0.0744066,3.04227,7,0.00400685,10,0.000226365,-2.5168,0.418024,0.14114,16.7375,0.0744066,
2,1,0,1,0,12972.9,0.0822019,0.0818972,3.15404,7,0.00459087,10,0.000258307,-2.50113,0.468709,0.125878,15.5154,0.0818972,
2,1,0,1,0,12973,0.0896911,0.0894094,3.28225,7,0.00519692,10,0.000293464,-2.48383,0.410591,0.143695,18.463,0.0894094,
2,1,0,1,0,12973.2,0.097182,0.0968639,3.4646,7,0.00583136,10,0.000335595,-2.46035,0.260664,0.226345,30.624,0.09686394,
2,1,0,1,0,12973.4,0.104675,0.104386,3.74005,7,0.00650726,10,0.000390409,-2.42712,0.20474,0.28817,42.002,0.104386,
2,1,0,1,0,12973.6,0.112162,0.111825,4.05086,7,0.00723939,10,0.000452986,-2.39245,0.23421,0.251911,39.8277,0.111825,
2,1,0,1,0,12973.8,0.119655,0.119363,4.31871,7,0.00802756,10,0.000515493,-2.36465,0.367829,0.1604,26.9787,0.119363,
2,1,0,1,0,12974,0.127146,0.126833,4.49131,7,0.00885675,10,0.000569645,-2.34763,0.468454,0.125946,22.1037,0.126833,
2,1,0,1,0,12974.2,0.134635,0.134321,4.65231,7,0.00971681,10,0.000624904,-2.33233,0.658124,0.0896488,16.2881,0.134321,
2,1,0,1,0,12974.4,0.14213,0.141839,4.67851,7,0.0105987,10,0.000663595,-2.32989,-0.606732,-0.0972423,-17.6957,0.141839,
2,1,0,1,0,12974.5,0.149619,0.149323,4.26706,7,0.0114479,10,0.000637172,-2.36987,-0.111606,-0.528646,-87.787,0.149323,
2,1,0,1,0,12974.7,0.157106,0.156824,3.48904,7,0.0121788,10,0.000547167,-2.45729,-0.0750379,-0.786269,-106.889,0.156824,
2,1,0,1,0,12974.9,0.164602,0.164289,2.8325,7,0.0127691,10,0.00046535,-2.54783,-0.09369,-0.629736,-69.738,0.164289,
2,1,0,1,0,12975.1,0.172091,0.171774,2.4302,7,0.0132617,10,0.000417445,-2.61436,-0.137681,-0.428526,-40.845,0.171774,
2,1,0,1,0,12975.3,0.179582,0.179286,2.19884,7,0.0136967,10,0.000394221,-2.65781,-0.206129,-0.286229,-24.6051,0.179286,
2,1,0,1,0,12975.5,0.187074,0.186793,2.05209,7,0.0140969,10,0.000383315,-2.6878,-0.350976,-0.168102,-13.4654,0.1867931,
2,1,0,1,0,12975.7,0.194563,0.19426,1.96367,7,0.0144751,10,0.000381463,-2.70693,-0.435394,-0.135509,-10.3823,0.19426,
2,1,0,1,0,12975.9,0.202059,0.201724,1.90221,7,0.0148394,10,0.000383722,-2.72074,-0.602016,-0.098004,-7.25162,0.201724,
2,1,0,1,0,12976,0.209546,0.209274,1.8545,7,0.0151939,10,0.000388098,-2.73177,-0.601346,-0.0981133,-7.12659,0.209274,
2,1,0,1,0,12976.2,0.217035,0.216741,1.82108,7,0.0155409,10,0.000394703,-2.73967,-0.887905,-0.0664485,-4.72074,0.2167411,
2,1,0,1,0,12976.4,0.22453,0.224212,1.79889,7,0.0158827,10,0.000403334,-2.74499,-1.17519,-0.0502048,-3.51633,0.224212,
2,1,0,1,0,12976.6,0.232019,0.231684,1.77162,7,0.0162196,10,0.000410456,-2.75163,-3.22854,-0.0182745,-1.26617,0.231684,
2,1,0,1,0,12976.8,0.23951,0.23925,1.75865,7,0.0165529,10,0.000420756,-2.75482,-2.33485,-0.0252693,-1.72652,0.23925,
2,1,0,1,0,12977,0.247003,0.246709,1.73545,7,0.0168828,10,0.000428152,-2.76059,-2.22125,-0.0265617,-1.79885,0.246709,
2,1,0,1,0,12977.2,0.25449,0.25419,1.71801,7,0.0172093,10,0.000436701,-2.76497,-1.41701,-0.0416369,-2.79318,0.25419,
2,1,0,1,0,12977.3,0.261983,0.261661,1.7034,7,0.0175328,10,0.000445713,-2.76868,-1.61696,-0.0364881,-2.42339,0.261661,
2,1,0,1,0,12977.5,0.269474,0.269157,1.68383,7,0.0178532,10,0.000453214,-2.7737,-2.4944,-0.023653,-1.55877,0.269157,
2,1,0,1,0,12977.7,0.276963,0.276647,1.67371,7,0.0181706,10,0.000463028,-2.77632,-1.06313,-0.0554963,-3.61582,0.276647,
2,1,0,1,0,12977.9,0.284458,0.284151,1.65673,7,0.018485,10,0.000470761,-2.78075,-2.14133,-0.027553,-1.77897,0.284151,
2,1,0,1,0,12978.1,0.291947,0.29169,1.63586,7,0.0187959,10,0.000477164,-2.78625,-0.927052,-0.0636426,-4.06663,0.29169,
2,1,0,1,0,12978.3,0.299434,0.299148,1.61912,7,0.0191036,10,0.000484357,-2.79072,-0.0127965,-4.61062,-240.637,0.299148,
2,0,0,1,0,12978.4,0.294196,0.293892,-0.38662,7,0.0191284,10,-0.000113625,-3.41272,-0.0160111,-3.68494,51.1578,0.293892,
2,0,0,1,0,12978.6,0.286701,0.286417,-0.602748,7,0.0190288,10,-0.000172637,-3.21986,-0.0658944,-0.895372,21.1507,0.286417,
2,0,0,1,0,12978.8,0.279212,0.278894,-0.73573,7,0.018899,10,-0.000205191,-3.13328,-0.126293,-0.467169,13.3714,0.278894,
2,0,0,1,0,12979,0.271725,0.271436,-0.82141,7,0.0187494,10,-0.00022296,-3.08544,-0.141872,-0.415869,13.4222,0.271436,
2,0,0,1,0,12979.2,0.264228,0.263944,-0.903619,7,0.018584,10,-0.000238505,-3.04401,-0.251389,-0.234696,8.20712,0.263944,
2,0,0,1,0,12979.4,0.256741,0.256411,-0.964406,7,0.018406,10,-0.000247284,-3.01574,-0.282638,-0.208747,7.85063,0.256411,
2,0,0,1,0,12979.6,0.249248,0.248907,-1.0204,7,0.0182166,10,-0.000253985,-2.99123,-0.343428,-0.171797,6.8503,0.248907,
2,0,0,1,0,12979.8,0.241756,0.24147,-1.074,7,0.0180169,10,-0.00025934,-2.96899,-0.406221,-0.145241,6.07206,0.24147,
2,0,0,1,0,12979.9,0.234268,0.234004,-1.11737,7,0.0178079,10,-0.000261468,-2.9518,-0.455461,-0.129539,5.70643,0.234004,
2,0,0,1,0,12980.1,0.226772,0.226486,-1.17168,7,0.0175897,10,-0.00026537,-2.93119,-0.334895,-0.176175,8.03075,0.226486,
2,0,0,1,0,12980.3,0.219284,0.218985,-1.22313,7,0.0173626,10,-0.000267848,-2.91253,-0.444056,-0.132866,6.30953,0.218985,
2,0,0,1,0,12980.5,0.211796,0.211484,-1.26474,7,0.0171268,10,-0.000267471,-2.898,-0.586897,-0.100529,4.96246,0.211484,
2,0,0,1,0,12980.7,0.204301,0.204002,-1.31825,7,0.0168817,10,-0.000268926,-2.88,-0.654253,-0.0901791,4.61904,0.2040015,
2,0,0,1,0,12980.9,0.196812,0.196531,-1.35735,7,0.0166278,10,-0.000266761,-2.86731,-0.431241,-0.136814,7.30593,0.196531,
2,0,0,1,0,12981.1,0.189321,0.188971,-1.42122,7,0.0163633,10,-0.00026857,-2.84734,-0.423263,-0.139393,7.74539,0.188971,
2,0,0,1,0,12981.3,0.181828,0.181509,-1.4942,7,0.0160872,10,-0.000271211,-2.82559,-0.291338,-0.202514,11.7669,0.181509,
2,0,0,1,0,12981.4,0.174341,0.174012,-1.57816,7,0.0157967,10,-0.000274619,-2.80185,-0.269132,-0.219223,13.5436,0.174012,
2,0,0,1,0,12981.6,0.166848,0.166542,-1.69786,7,0.0154873,10,-0.000282764,-2.7701,-0.224786,-0.262472,17.3668,0.1665417,
2,0,0,1,0,12981.8,0.159357,0.159044,-1.86627,7,0.0151516,10,-0.000296818,-2.72903,-0.170058,-0.346941,25.2509,0.159044,
2,0,0,1,0,12982,0.151868,0.151568,-2.12354,7,0.0147766,10,-0.000321861,-2.67294,-0.107548,-0.548592,45.7694,0.151568,
2,0,0,1,0,12982.2,0.144373,0.144021,-2.56452,7,0.014337,10,-0.000369345,-2.59099,-0.0802205,-0.735473,73.6041,0.144021,
2,0,0,1,0,12982.4,0.136884,0.13659,-3.19537,7,0.0137973,10,-0.000436454,-2.49548,-0.0793392,-0.743643,92.5666,0.13659,
2,0,0,1,0,12982.6,0.129393,0.12908,-3.87679,7,0.0131307,10,-0.000500414,-2.41153,-0.105865,-0.557312,84.1267,0.12908,
2,0,0,1,0,12982.8,0.1219,0.121583,-4.41772,7,0.0123477,10,-0.000537118,-2.3548,-0.185404,-0.318223,54.6165,0.121583,
2,0,0,1,0,12982.9,0.114413,0.114102,-4.71215,7,0.0114863,10,-0.000537668,-2.32678,-0.498274,-0.118409,21.7545,0.1141023,
2,0,0,1,0,12983.1,0.10692,0.106608,-4.78684,7,0.0105901,10,-0.000510316,-2.31995,2.91481,0.0202414,-3.77657,0.106608,
2,0,0,1,0,12983.3,0.0994284,0.0991549,-4.6719,7,0.00969826,10,-0.000463241,-2.33051,0.4229,0.139513,-25.4089,0.0991549,
2,0,0,1,0,12983.5,0.0919401,0.0916283,-4.43019,7,0.00884173,10,-0.000405931,-2.35358,0.316289,0.186538,-32.2973,0.0916283,
2,0,0,1,0,12983.7,0.0844447,0.0841064,-4.20097,7,0.00803082,10,-0.000353329,-2.37665,0.350571,0.168297,-27.5106,0.0841064,
2,0,0,1,0,12983.9,0.0769565,0.0766274,-4.02063,7,0.00726021,10,-0.000308091,-2.39571,0.469443,0.125681,-19.7078,0.0766274,
2,0,0,1,0,12984.1,0.0694682,0.0691501,-3.88766,7,0.00651697,10,-0.000268832,-2.41031,0.554731,0.106358,-16.1644,0.0691501,
2,0,0,1,0,12984.3,0.0619728,0.0616722,-3.78332,7,0.00579456,10,-0.000233326,-2.42213,0.550159,0.107242,-15.8133,0.0616722,
2,0,0,1,0,12984.4,0.0544836,0.0541523,-3.66742,7,0.00509349,10,-0.000198599,-2.43564,0.696324,0.0847307,-12.1496,0.0541523,
2,0,0,1,0,12984.6,0.0469927,0.0466819,-3.55853,7,0.00441298,10,-0.000166119,-2.44873,0.513048,0.114999,-15.9533,0.0466819,
2,0,0,1,0,12984.8,0.0394999,0.039168,-3.43269,7,0.00375555,10,-0.000134452,-2.46437,0.430566,0.137029,-18.3191,0.039168,
2,0,0,1,0,12985,0.0320125,0.0317206,-3.27779,7,0.00312409,10,-0.000103973,-2.48442,0.361919,0.16302,-20.8989,0.0317206,
2,0,0,1,0,12985.2,0.0245198,0.0242168,-3.131,7,0.00252026,10,-7.58226e-05,-2.50432,0.363387,0.162361,-19.846,0.0242168,
2,0,0,1,0,12985.4,0.0170289,0.0166752,-2.99522,7,0.00194343,10,-4.99459e-05,-2.52357,0.429099,0.137497,-16.1064,0.0166752,
2,0,0,1,0,12985.6,0.0095397,0.00920385,-2.88849,7,0.00138946,10,-2.65853e-05,-2.53933,0.640229,0.0921546,-10.4033,0.00920385,
2,0,0,1,0,12985.7,0.00204518,0.00171514,-2.87129,7,0.000850602,10,-4.92468e-06,-2.54192,4.02576,0.0146556,-1.62061,0.00171514,
2,0,0,1,0,12985.8,0.000177222,-0.0002066,-2.83021,7,0.000716811,10,5.84722e-07,-2.54818, , , ,-0.0002066,

File: 20221101_1-115_003_TrumpetPlot_ParaChange_from10_every3_06_CV_C01_7.csv
mode,ox/red,error,control changes,counter inc.,time/s,control/V,Ewe/V,<I>/mA,cycle number,(Q-Qo)/C,I Range,P/W,log(|I|),Tafel slope mV/dec,alpha_eff,dI/d(E-IR),E-IR/V,
2,0,0,0,0,14940.9,2.44065e-05,-0.000344411,-1.4058,8,0.0000000E+000,10,4.84174e-07,-2.85208, , , ,-0.000344411,
2,1,0,1,0,14941.1,0.00729063,0.00699552,1.35985,8,0.000124908,10,9.51285e-06,-2.86651,0.0422074,1.39786,72.171,0.00699552,
2,1,0,1,0,14941.3,0.014778,0.0144754,1.6678,8,0.00041574,10,2.4142e-05,-2.77786,0.129555,0.455405,29.6153,0.0144754,
2,1,0,1,0,14941.5,0.0222743,0.0219492,1.86892,8,0.000751464,10,4.10214e-05,-2.72841,0.167009,0.353274,25.8048,0.0219492,
2,1,0,1,0,14941.7,0.0297626,0.0294717,2.05448,8,0.00112233,10,6.05489e-05,-2.6873,0.207777,0.283959,22.711,0.0294717,
2,1,0,1,0,14941.9,0.0372544,0.0369127,2.23819,8,0.00152776,10,8.26177e-05,-2.6501,0.21676,0.27219,23.8082,0.0369127,
2,1,0,1,0,14942,0.0447472,0.0444465,2.42123,8,0.00196782,10,0.000107615,-2.61596,0.241503,0.244303,23.1266,0.0444465,
2,1,0,1,0,14942.2,0.0522345,0.0519042,2.59763,8,0.00244093,10,0.000134828,-2.58542,0.255888,0.23057,23.3204,0.0519042,
2,1,0,1,0,14942.4,0.0597309,0.0593873,2.75705,8,0.0029462,10,0.000163734,-2.55956,0.285222,0.206857,22.285,0.0593873,
2,1,0,1,0,14942.6,0.0672182,0.066892,2.90888,8,0.00347992,10,0.000194581,-2.53627,0.352584,0.167336,18.9666,0.066892,
2,1,0,1,0,14942.8,0.0747074,0.0743945,3.04012,8,0.00403971,10,0.000226168,-2.51711,0.477233,0.123629,14.6302,0.0743945,
2,1,0,1,0,14943,0.0822019,0.0819137,3.14886,8,0.0046233,10,0.000257935,-2.50185,0.52968,0.111388,13.7175,0.0819137,
2,1,0,1,0,14943.2,0.0896911,0.0893587,3.27885,8,0.00522787,10,0.000292993,-2.48428,0.396027,0.14898,19.0902,0.0893587,
2,1,0,1,0,14943.4,0.097182,0.0968286,3.46291,8,0.00586123,10,0.000335309,-2.46056,0.252776,0.233408,31.548,0.0968286,
2,1,0,1,0,14943.5,0.104675,0.104392,3.74485,8,0.00653751,10,0.000390933,-2.42657,0.197995,0.297987,43.5674,0.104392,
2,1,0,1,0,14943.7,0.112162,0.111854,4.06805,8,0.00727171,10,0.000455029,-2.39061,0.240031,0.245801,38.9137,0.111854,
2,1,0,1,0,14943.9,0.119655,0.119338,4.32672,8,0.00806183,10,0.000516341,-2.36384,0.388978,0.15168,25.5491,0.119338,
2,1,0,1,0,14944.1,0.127146,0.12684,4.48485,8,0.00889099,10,0.00056886,-2.34825,0.525919,0.112185,19.6777,0.12684,
2,1,0,1,0,14944.3,0.134635,0.134311,4.63169,8,0.00974873,10,0.000622088,-2.33426,0.840915,0.0701617,12.6681,0.134311,
2,1,0,1,0,14944.5,0.14213,0.141851,4.61018,8,0.0106233,10,0.00065396,-2.33628,-0.411327,-0.143438,-25.7335,0.1418515,
2,1,0,1,0,14944.7,0.149619,0.149279,4.13174,8,0.0114538,10,0.00061678,-2.38387,-0.0981976,-0.600829,-96.5722,0.149279,
2,1,0,1,0,14944.9,0.157106,0.156777,3.32695,8,0.0121554,10,0.00052159,-2.47795,-0.0730738,-0.807403,-104.678,0.1567771,
2,1,0,1,0,14945,0.164602,0.164316,2.69309,8,0.0127178,10,0.000442519,-2.56975,-0.0978752,-0.602809,-63.6297,0.164316,
2,1,0,1,0,14945.2,0.172091,0.171798,2.32685,8,0.0131888,10,0.00039975,-2.63323,-0.147421,-0.400213,-36.5841,0.171798,
2,1,0,1,0,14945.4,0.179582,0.179222,2.1275,8,0.013608,10,0.000381295,-2.67213,-0.229746,-0.256805,-21.3194,0.179222,
2,1,0,1,0,14945.6,0.187074,0.186784,1.99384,8,0.0139964,10,0.000372416,-2.70031,-0.374526,-0.157533,-12.3098,0.186784,
2,1,0,1,0,14945.8,0.194563,0.194234,1.92308,8,0.0143658,10,0.000373528,-2.716,-0.580911,-0.101565,-7.60433,0.194234,
2,1,0,1,0,14946,0.202059,0.201737,1.87091,8,0.0147233,10,0.000377433,-2.72795,-0.625934,-0.0942591,-6.84586,0.201737,
2,1,0,1,0,14946.2,0.209546,0.209271,1.82646,8,0.0150721,10,0.000382226,-2.73839,-0.676887,-0.0871637,-6.22987,0.209271,
2,1,0,1,0,14946.4,0.217035,0.216741,1.79517,8,0.0154143,10,0.000389086,-2.7459,-1.68088,-0.0351006,-2.4609,0.216741,
2,1,0,1,0,14946.5,0.22453,0.224204,1.77415,8,0.0157521,10,0.00039777,-2.75101,-1.4161,-0.0416636,-2.88616,0.224204,
2,1,0,1,0,14946.7,0.232019,0.231726,1.75305,8,0.0160857,10,0.000406227,-2.75621,-1.71966,-0.0343091,-2.35121,0.231726,
2,1,0,1,0,14946.9,0.23951,0.239178,1.74125,8,0.0164162,10,0.000416469,-2.75914,-2.90277,-0.0203254,-1.37748,0.239178,
2,1,0,1,0,14947.1,0.247003,0.246685,1.72345,8,0.0167437,10,0.000425148,-2.7636,-1.27531,-0.0462631,-3.11068,0.246685,
2,1,0,1,0,14947.3,0.25449,0.254157,1.70643,8,0.0170681,10,0.000433702,-2.76791,-1.77497,-0.03324,-2.21789,0.254157,
2,1,0,1,0,14947.5,0.261983,0.261738,1.69714,8,0.0173899,10,0.000444207,-2.77028,-2.79628,-0.0210995,-1.39062,0.261738,
2,1,0,1,0,14947.7,0.269474,0.269181,1.67698,8,0.0177089,10,0.000451411,-2.77547,-2.15526,-0.0273748,-1.79328,0.269181,
2,1,0,1,0,14947.9,0.276963,0.276645,1.66438,8,0.018025,10,0.000460442,-2.77875,-1.50971,-0.0390803,-2.5373,0.276645,
2,1,0,1,0,14948,0.284458,0.284164,1.65312,8,0.0183386,10,0.000469758,-2.78169,-1.84458,-0.0319855,-2.05243,0.2841638,
2,1,0,1,0,14948.2,0.291947,0.291624,1.62932,8,0.0186486,10,0.000475149,-2.78799,-1.55557,-0.0379281,-2.41714,0.291624,
2,1,0,1,0,14948.4,0.299434,0.299163,1.61351,8,0.0189557,10,0.000482703,-2.79223,-0.0119131,-4.95253,-252.95,0.299163,
2,0,0,1,0,14948.6,0.294196,0.293888,-0.410823,8,0.0189741,10,-0.000120736,-3.38635,-0.018366,-3.21246,47.7348,0.293888,
2,0,0,1,0,14948.8,0.286701,0.286382,-0.608889,8,0.018872,10,-0.000174375,-3.21546,-0.0690189,-0.854838,20.4567,0.286382,
2,0,0,1,0,14948.9,0.279212,0.278869,-0.738261,8,0.0187415,10,-0.000205878,-3.13179,-0.121472,-0.485709,13.8706,0.278869,
2,0,0,1,0,14949.1,0.271725,0.271359,-0.819743,8,0.0185918,10,-0.000222445,-3.08632,-0.149634,-0.394295,12.6571,0.271359,
2,0,0,1,0,14949.3,0.264228,0.26386,-0.895267,8,0.0184267,10,-0.000236225,-3.04805,-0.24665,-0.239206,8.37488,0.26386,
2,0,0,1,0,14949.5,0.256741,0.256411,-0.96469,8,0.0182492,10,-0.000247357,-3.01561,-0.274083,-0.215263,8.03533,0.256411,
2,0,0,1,0,14949.7,0.249248,0.248894,-1.01881,8,0.0180604,10,-0.000253575,-2.99191,-0.341287,-0.172875,6.85864,0.248894,
2,0,0,1,0,14949.9,0.241756,0.241449,-1.06227,8,0.0178614,10,-0.000256483,-2.97377,-0.382723,-0.154159,6.4426,0.2414493,
2,0,0,1,0,14950.1,0.234268,0.233955,-1.11759,8,0.0176532,10,-0.000261466,-2.95172,-0.433196,-0.136197,5.94561,0.233955,
2,0,0,1,0,14950.3,0.226772,0.226443,-1.16429,8,0.0174357,10,-0.000263645,-2.93394,-0.370034,-0.159445,7.256,0.226443,
2,0,0,1,0,14950.4,0.219284,0.218994,-1.21442,8,0.0172096,10,-0.00026595,-2.91563,-0.47445,-0.124355,5.87966,0.218994,
2,0,0,1,0,14950.6,0.211796,0.211444,-1.26285,8,0.0169748,10,-0.000267023,-2.89865,-0.470533,-0.12539,6.13059,0.211444,
2,0,0,1,0,14950.8,0.204301,0.203973,-1.30511,8,0.0167307,10,-0.000266206,-2.88435,-0.694547,-0.0849475,4.34704,0.203973,
2,0,0,1,0,14951,0.196812,0.196479,-1.35732,8,0.0164777,10,-0.000266685,-2.86732,-0.479712,-0.12299,6.53335,0.196479,
2,0,0,1,0,14951.2,0.189321,0.188999,-1.41656,8,0.0162143,10,-0.000267729,-2.84876,-0.376436,-0.156733,8.66409,0.188999,
2,0,0,1,0,14951.4,0.181828,0.181537,-1.47973,8,0.0159394,10,-0.000268626,-2.82982,-0.33813,-0.174489,10.1288,0.181537,
2,0,0,1,0,14951.6,0.174341,0.174032,-1.57117,8,0.0156505,10,-0.000273434,-2.80378,-0.243469,-0.242331,14.8254,0.174032,
2,0,0,1,0,14951.8,0.166848,0.166511,-1.68522,8,0.015343,10,-0.000280607,-2.77334,-0.220863,-0.267134,17.5445,0.1665107,
2,0,0,1,0,14951.9,0.159357,0.159024,-1.84704,8,0.0150097,10,-0.000293724,-2.73352,-0.151734,-0.388838,28.1224,0.159024,
2,0,0,1,0,14952.1,0.151868,0.151552,-2.10599,8,0.0146376,10,-0.000319168,-2.67654,-0.110207,-0.535356,44.1862,0.151552,
2,0,0,1,0,14952.3,0.144373,0.144069,-2.53832,8,0.0142014,10,-0.000365693,-2.59545,-0.0792477,-0.744501,74.1001,0.144069,
2,0,0,1,0,14952.5,0.136884,0.136578,-3.17361,8,0.0136648,10,-0.000433446,-2.49845,-0.0768452,-0.767778,95.1754,0.136578,
2,0,0,1,0,14952.7,0.129393,0.129068,-3.86503,8,0.013001,10,-0.000498852,-2.41285,-0.103299,-0.571155,85.7951,0.129068,
2,0,0,1,0,14952.9,0.1219,0.121604,-4.3897,8,0.0122209,10,-0.000533804,-2.35756,-0.187299,-0.315004,53.8568,0.121604,
2,0,0,1,0,14953.1,0.114413,0.114055,-4.68158,8,0.0113644,10,-0.000533958,-2.32961,-0.511547,-0.115336,21.0479,0.114055,
2,0,0,1,0,14953.3,0.10692,0.106614,-4.73914,8,0.0104757,10,-0.000505259,-2.3243,1.65711,0.0356041,-6.57109,0.106614,
2,0,0,1,0,14953.4,0.0994284,0.099099,-4.60132,8,0.00959462,10,-0.000455986,-2.33712,0.395724,0.149094,-26.7842,0.09909898,
2,0,0,1,0,14953.6,0.0919401,0.0916306,-4.36017,8,0.00875119,10,-0.000399525,-2.3605,0.312076,0.189057,-32.1752,0.0916306,
2,0,0,1,0,14953.8,0.0844447,0.0841122,-4.13099,8,0.00795318,10,-0.000347467,-2.38395,0.357787,0.164902,-26.5625,0.0841122,
2,0,0,1,0,14954,0.0769565,0.0765964,-3.95998,8,0.00719361,10,-0.000303321,-2.40231,0.466243,0.126543,-19.5842,0.0765964,
2,0,0,1,0,14954.2,0.0694682,0.0691503,-3.8486,8,0.00645969,10,-0.000266132,-2.4147,0.634156,0.0930371,-13.9596,0.0691503,
2,0,0,1,0,14954.4,0.0619728,0.0616469,-3.73618,8,0.00574525,10,-0.000230324,-2.42757,0.568341,0.103811,-15.1537,0.0616469,
2,0,0,1,0,14954.6,0.0544836,0.0542104,-3.62647,8,0.00505155,10,-0.000196592,-2.44052,0.707606,0.0833797,-11.8221,0.0542104,
2,0,0,1,0,14954.8,0.0469927,0.0466057,-3.52232,8,0.00437814,10,-0.00016416,-2.45317,0.53031,0.111256,-15.2557,0.0466057,
2,0,0,1,0,14954.9,0.0394999,0.0391609,-3.39321,8,0.00372712,10,-0.000132881,-2.46939,0.431181,0.136834,-18.1211,0.0391609,
2,0,0,1,0,14955.1,0.0320125,0.0317153,-3.24924,8,0.00310133,10,-0.000103051,-2.48822,0.360241,0.163779,-20.8007,0.0317153,
2,0,0,1,0,14955.3,0.0245198,0.0242178,-3.1105,8,0.00250209,10,-7.53295e-05,-2.50717,0.362674,0.162681,-19.7202,0.0242178,
2,0,0,1,0,14955.5,0.0170289,0.016707,-2.97669,8,0.00192874,10,-4.97316e-05,-2.52627,0.442394,0.133365,-15.5413,0.01670704,
2,0,0,1,0,14955.7,0.0095397,0.0091759,-2.87843,8,0.00137703,10,-2.64122e-05,-2.54084,0.642358,0.0918491,-10.3303,0.0091759,
2,0,0,1,0,14955.9,0.00204518,0.00167152,-2.86682,8,0.000839576,10,-4.79194e-06,-2.5426,5.42464,0.0108763,-1.2,0.00167152,
2,0,0,1,0,14955.9,0.000177222,-0.000175297,-2.82473,8,0.000705932,10,4.95167e-07,-2.54902, , , ,-0.000175297,