Folder: Figs_alphaMnO2_OER_Tafel_sleope/Figure_codes/Fig_3-5/rawdata_trumpetplot_data/after 10th (part 121)

File: 20221101_1-115_003_TrumpetPlot_ParaChange_from10_every3_08_CV_C01_33.csv
mode,ox/red,error,control changes,counter inc.,time/s,control/V,Ewe/V,<I>/mA,cycle number,(Q-Qo)/C,I Range,P/W,log(|I|),Tafel slope mV/dec,alpha_eff,dI/d(E-IR),E-IR/V,
2,0,0,0,0,66189.3,2.44065e-05,-0.000325324,-3.99,34,0.0000000E+000,10,1.29804e-06,-2.39903, , , ,-0.000325324,
2,1,0,1,0,66189.4,0.0072942,0.00699194,0.341643,34,-0.000114409,10,2.38875e-06,-3.46643,0.00993641,5.93776,297.554,0.00699194,
2,1,0,1,0,66189.5,0.0147816,0.0144598,1.81397,34,-2.90931e-06,10,2.62297e-05,-2.74137,0.031262,1.88727,131.441,0.0144598,
2,1,0,1,0,66189.6,0.0222707,0.0219724,2.56772,34,0.000206764,10,5.6419e-05,-2.59045,0.079536,0.741802,73.935,0.0219724,
2,1,0,1,0,66189.7,0.0297581,0.0293998,3.03924,34,0.000471165,10,8.9353e-05,-2.51723,0.129458,0.455747,53.887,0.0293998,
2,1,0,1,0,66189.8,0.0372544,0.0369278,3.39585,34,0.000774333,10,0.000125402,-2.46905,0.171032,0.344965,45.7818,0.0369278,
2,1,0,1,0,66189.9,0.0447507,0.0444365,3.7226,34,0.00110948,10,0.000165419,-2.42915,0.215945,0.273218,39.7168,0.0444365,
2,1,0,1,0,66190,0.0522381,0.0519235,4.02313,34,0.0014733,10,0.000208895,-2.39544,0.221594,0.266253,41.8087,0.05192348,
2,1,0,1,0,66190.1,0.0597273,0.059405,4.30184,34,0.00186446,10,0.000255551,-2.36635,0.26557,0.222164,37.3386,0.059405,
2,1,0,1,0,66190.2,0.0672146,0.0668965,4.57392,34,0.00228118,10,0.000305979,-2.33971,0.312656,0.188706,33.655,0.0668965,
2,1,0,1,0,66190.3,0.0747038,0.0743715,4.81467,34,0.00272163,10,0.000358074,-2.31743,0.35108,0.168053,31.5472,0.0743715,
2,1,0,1,0,66190.3,0.0822055,0.0818841,5.0215,34,0.00318429,10,0.000411181,-2.29917,0.437768,0.134775,26.4203,0.0818841,
2,1,0,1,0,66190.4,0.0896946,0.0893643,5.2072,34,0.00366461,10,0.000465338,-2.2834,0.535729,0.11013,22.4117,0.0893643,
2,1,0,1,0,66190.5,0.097182,0.0968755,5.41428,34,0.00416266,10,0.000524511,-2.26646,0.40967,0.144018,30.4031,0.0968755,
2,1,0,1,0,66190.6,0.104671,0.104346,5.68126,34,0.00468177,10,0.000592817,-2.24556,0.289247,0.203978,45.2352,0.104346,
2,1,0,1,0,66190.7,0.112159,0.111816,6.04182,34,0.00523094,10,0.000675573,-2.21883,0.267266,0.220754,52.0755,0.111816,
2,1,0,1,0,66190.8,0.119655,0.119304,6.46403,34,0.00581771,10,0.000771183,-2.1895,0.283028,0.20846,52.5124,0.119304,
2,1,0,1,0,66190.9,0.127149,0.126793,6.81336,34,0.00644172,10,0.000863889,-2.16664,0.36125,0.163322,43.4445,0.126793,
2,1,0,1,0,66191,0.134639,0.134308,7.07139,34,0.00709409,10,0.000949748,-2.15049,0.61436,0.096035,26.526,0.134308,
2,1,0,1,0,66191.1,0.142126,0.141792,7.22539,34,0.00776544,10,0.0010245,-2.14114,1.75548,0.0336091,9.4632,0.141792,
2,1,0,1,0,66191.2,0.149615,0.149335,7.15418,34,0.00844186,10,0.00106837,-2.14544,-0.517387,-0.114035,-31.7683,0.149335,
2,1,0,1,0,66191.3,0.157102,0.156807,6.67511,34,0.00909363,10,0.0010467,-2.17554,-0.17019,-0.346671,-90.0936,0.156807,
2,1,0,1,0,66191.4,0.164606,0.164315,5.85242,34,0.00968368,10,0.000961641,-2.23266,-0.113833,-0.518303,-118.262,0.164315,
2,1,0,1,0,66191.5,0.172095,0.171798,5.04375,34,0.0101932,10,0.000866507,-2.29725,-0.1245,-0.473897,-93.3686,0.171798,
2,1,0,1,0,66191.6,0.179582,0.179241,4.44321,34,0.0106366,10,0.000796404,-2.3523,-0.154944,-0.380783,-66.1821,0.179241,
2,1,0,1,0,66191.7,0.18707,0.186761,4.03798,34,0.0110334,10,0.000754139,-2.39384,-0.201903,-0.292219,-46.0724,0.186761,
2,1,0,1,0,66191.8,0.194559,0.194216,3.75946,34,0.0113982,10,0.000730148,-2.42487,-0.292403,-0.201776,-29.5972,0.194216,
2,1,0,1,0,66191.8,0.202062,0.201781,3.55018,34,0.0117413,10,0.00071636,-2.44975,-0.350781,-0.168196,-23.3284,0.201781,
2,1,0,1,0,66191.9,0.20955,0.209241,3.41122,34,0.0120679,10,0.000713768,-2.46709,-0.410419,-0.143755,-19.1375,0.209241,
2,1,0,1,0,66192,0.217039,0.216732,3.30483,34,0.0123828,10,0.000716262,-2.48085,-0.603828,-0.0977099,-12.6016,0.216732,
2,1,0,1,0,66192.1,0.224526,0.224216,3.22177,34,0.0126891,10,0.000722374,-2.49191,-0.919094,-0.0641936,-8.07815,0.224216,
2,1,0,1,0,66192.2,0.232016,0.231672,3.16029,34,0.012989,10,0.000732153,-2.50027,-1.04332,-0.0565504,-6.9816,0.231672,
2,1,0,1,0,66192.3,0.23951,0.239221,3.11725,34,0.0132843,10,0.000745713,-2.50623,-1.41121,-0.0418082,-5.08461,0.239221,
2,1,0,1,0,66192.4,0.247006,0.246719,3.07755,34,0.0135755,10,0.00075929,-2.51179,-1.39329,-0.042346,-5.08502,0.246719,
2,1,0,1,0,66192.5,0.254494,0.254171,3.04335,34,0.0138632,10,0.000773532,-2.51665,-1.32829,-0.0444181,-5.28006,0.254171,
2,1,0,1,0,66192.6,0.261983,0.261684,3.01995,34,0.014148,10,0.000790272,-2.52,-1.74962,-0.0337215,-3.97221,0.261684,
2,1,0,1,0,66192.7,0.26947,0.269148,2.99324,34,0.0144304,10,0.000805623,-2.52386,-5.06352,-0.011652,-1.36134,0.269148,
2,1,0,1,0,66192.8,0.276959,0.276649,2.97142,34,0.0147105,10,0.000822039,-2.52704,-2.29826,-0.0256715,-2.97502,0.2766487,
2,1,0,1,0,66192.9,0.284461,0.284145,2.94832,34,0.0149889,10,0.00083775,-2.53042,-1.87473,-0.0314712,-3.61723,0.284145,
2,1,0,1,0,66193,0.29195,0.291647,2.91847,34,0.0152644,10,0.000851161,-2.53484,-1.82984,-0.0322433,-3.67081,0.291647,
2,1,0,1,0,66193.1,0.299438,0.29915,2.89063,34,0.0155376,10,0.000864731,-2.53901,-0.0390799,-1.50973,-159.906,0.29915,
2,1,0,1,0,66193.1,0.29424,0.293906,0.00505717,34,0.0156309,10,1.48633e-06,-5.29609,0.0213001,2.76993,222.93,0.2939063,
2,0,0,1,0,66193.2,0.286753,0.286409,-0.911056,34,0.0155794,10,-0.000260935,-3.04045,-0.0280511,-2.1033,73.3376,0.286409,
2,0,0,1,0,66193.3,0.279264,0.27892,-1.29893,34,0.0154726,10,-0.000362297,-2.88642,-0.0821118,-0.718533,36.2681,0.27892,
2,0,0,1,0,66193.4,0.271776,0.271485,-1.52756,34,0.0153387,10,-0.00041471,-2.816,-0.127299,-0.463477,27.5401,0.271485,
2,0,0,1,0,66193.5,0.26428,0.263979,-1.6889,34,0.0151866,10,-0.000445836,-2.7724,-0.1738,-0.339471,22.3536,0.263979,
2,0,0,1,0,66193.6,0.256786,0.25647,-1.8202,34,0.0150211,10,-0.000466826,-2.73988,-0.2803,-0.210489,14.9237,0.25647,
2,0,0,1,0,66193.7,0.249296,0.248959,-1.9321,34,0.0148446,10,-0.000481015,-2.71397,-0.333892,-0.176704,13.2774,0.248959,
2,0,0,1,0,66193.8,0.241809,0.241492,-2.0165,34,0.0146587,10,-0.000486969,-2.6954,-0.3444,-0.171312,13.5242,0.241492,
2,0,0,1,0,66193.9,0.23432,0.233978,-2.10397,34,0.0144644,10,-0.000492282,-2.67696,-0.494502,-0.119312,9.82926,0.233978,
2,0,0,1,0,66194,0.226833,0.226516,-2.18859,34,0.0142623,10,-0.00049575,-2.65984,-0.442307,-0.133391,11.3823,0.226516,
2,0,0,1,0,66194.1,0.219329,0.219022,-2.26652,34,0.0140525,10,-0.00049642,-2.64464,-0.407143,-0.144912,12.7982,0.219022,
2,0,0,1,0,66194.2,0.21184,0.211507,-2.3392,34,0.0138359,10,-0.000494758,-2.63093,-0.623722,-0.0945934,8.63602,0.211507,
2,0,0,1,0,66194.3,0.204353,0.204003,-2.41947,34,0.0136125,10,-0.000493581,-2.61628,-0.660048,-0.0893874,8.42135,0.204003,
2,0,0,1,0,66194.4,0.196863,0.196526,-2.48689,34,0.0133821,10,-0.000488738,-2.60434,-0.529814,-0.11136,10.8185,0.1965259,
2,0,0,1,0,66194.5,0.189376,0.188999,-2.56619,34,0.0131444,10,-0.000485007,-2.59071,-0.615396,-0.0958732,9.62002,0.188999,
2,0,0,1,0,66194.5,0.18188,0.181508,-2.65657,34,0.0128988,10,-0.00048219,-2.57568,-0.480647,-0.122751,12.726,0.181508,
2,0,0,1,0,66194.6,0.174385,0.174043,-2.75201,34,0.0126445,10,-0.000478968,-2.56035,-0.379773,-0.155356,16.6823,0.174043,
2,0,0,1,0,66194.7,0.166896,0.166575,-2.87022,34,0.0123805,10,-0.000478106,-2.54209,-0.419654,-0.140592,15.7609,0.166575,
2,0,0,1,0,66194.8,0.159409,0.159123,-3.0237,34,0.0121041,10,-0.00048114,-2.51946,-0.313303,-0.188316,22.2143,0.159123,
2,0,0,1,0,66194.9,0.151919,0.151582,-3.23503,34,0.0118111,10,-0.000490373,-2.49012,-0.209682,-0.281379,35.5478,0.151582,
2,0,0,1,0,66195,0.144425,0.144086,-3.55197,34,0.0114933,10,-0.000511788,-2.44953,-0.150699,-0.391508,54.451,0.144086,
2,0,0,1,0,66195.1,0.136929,0.136565,-4.05935,34,0.0111369,10,-0.000554365,-2.39154,-0.113766,-0.518609,82.3915,0.136565,
2,0,0,1,0,66195.2,0.129441,0.129133,-4.76303,34,0.010724,10,-0.000615065,-2.32212,-0.108294,-0.544812,101.159,0.129133,
2,0,0,1,0,66195.3,0.121952,0.121596,-5.50234,34,0.0102424,10,-0.000669063,-2.25945,-0.131361,-0.449145,96.3353,0.121596,
2,0,0,1,0,66195.4,0.114465,0.114166,-6.1788,34,0.00969393,10,-0.000705408,-2.2091,-0.18075,-0.326418,78.6501,0.114166,
2,0,0,1,0,66195.5,0.106976,0.106678,-6.72656,34,0.00908807,10,-0.000717575,-2.17221,-0.238863,-0.247003,64.7616,0.106678,
2,0,0,1,0,66195.6,0.0994721,0.0991336,-7.09526,34,0.00843724,10,-0.000703378,-2.14903,-0.449955,-0.131124,36.2671,0.0991336,
2,0,0,1,0,66195.7,0.0919847,0.0916469,-7.23258,34,0.00776379,10,-0.000662844,-2.14071,-6.32945,-0.00932151,2.63095,0.09164691,
2,0,0,1,0,66195.8,0.0844973,0.0841466,-7.17992,34,0.0070871,10,-0.000604166,-2.14388,0.946519,0.0623337,-17.4483,0.0841466,
2,0,0,1,0,66195.9,0.0770082,0.0766753,-7.02239,34,0.00642144,10,-0.000538444,-2.15351,0.742106,0.0795034,-21.7992,0.0766753,
2,0,0,1,0,66196,0.0695208,0.0691992,-6.8729,34,0.00577029,10,-0.000475599,-2.16286,0.835913,0.0705815,-18.939,0.0691992,
2,0,0,1,0,66196,0.0620245,0.061669,-6.76279,34,0.00513077,10,-0.000417054,-2.16987,0.929072,0.0635043,-16.7549,0.061669,
2,0,0,1,0,66196.1,0.0545282,0.0542252,-6.63249,34,0.00450222,10,-0.000359648,-2.17832,1.09441,0.0539103,-13.9648,0.05422521,
2,0,0,1,0,66196.2,0.0470408,0.0467031,-6.50131,34,0.00388604,10,-0.000303631,-2.187,0.788899,0.0747878,-18.9797,0.0467031,
2,0,0,1,0,66196.3,0.0395517,0.0392069,-6.35792,34,0.00328341,10,-0.000249274,-2.19668,0.61723,0.0955883,-23.6676,0.0392069,
2,0,0,1,0,66196.4,0.0320643,0.0317564,-6.16923,34,0.00269629,10,-0.000195912,-2.20977,0.549741,0.107323,-25.8459,0.0317564,
2,0,0,1,0,66196.5,0.0245751,0.0242516,-5.96033,34,0.00212725,10,-0.000144548,-2.22473,0.471435,0.12515,-29.138,0.0242516,
2,0,0,1,0,66196.6,0.0170735,0.0167343,-5.75423,34,0.00157696,10,-9.6293e-05,-2.24001,0.458872,0.128576,-28.8653,0.0167343,
2,0,0,1,0,66196.7,0.00958428,0.00926162,-5.55702,34,0.00104706,10,-5.1467e-05,-2.25516,0.599934,0.0983441,-21.3165,0.00926162,
2,0,0,1,0,66196.8,0.0020969,0.00170679,-5.43053,34,0.000533712,10,-9.2688e-06,-2.26516,0.985202,0.0598862,-12.6475,0.00170679,
2,0,0,1,0,66196.8,0.000199195,-0.000151629,-5.3866,34,0.000405336,10,8.16764e-07,-2.26869, , , ,-0.000151629,

File: 20221101_1-115_003_TrumpetPlot_ParaChange_from10_every3_08_CV_C01_34.csv
mode,ox/red,error,control changes,counter inc.,time/s,control/V,Ewe/V,<I>/mA,cycle number,(Q-Qo)/C,I Range,P/W,log(|I|),Tafel slope mV/dec,alpha_eff,dI/d(E-IR),E-IR/V,
2,0,0,0,0,68159.5,2.44065e-05,-0.000401673,-3.93657,35,0.0000000E+000,10,1.58121e-06,-2.40488, , , ,-0.000401673,
2,1,0,1,0,68159.5,0.00729419,0.00694694,0.534508,35,-9.88135e-05,10,3.7132e-06,-3.27205,0.00454065,12.9937,298.627,0.00694694,
2,1,0,1,0,68159.6,0.0147816,0.0144564,1.9628,35,2.89461e-05,10,2.83751e-05,-2.70712,0.0354215,1.66566,125.69,0.0144564,
2,1,0,1,0,68159.7,0.0222707,0.0219731,2.6649,35,0.000250257,10,5.85561e-05,-2.57432,0.0879423,0.670895,69.611,0.0219731,
2,1,0,1,0,68159.8,0.0297581,0.0294253,3.11404,35,0.000522797,10,9.16316e-05,-2.50668,0.139618,0.42258,51.2303,0.02942533,
2,1,0,1,0,68159.9,0.0372544,0.0369338,3.45562,35,0.000831943,10,0.000127629,-2.46147,0.185163,0.318638,42.954,0.0369338,
2,1,0,1,0,68160,0.0447507,0.0444096,3.76803,35,0.00117187,10,0.000167336,-2.42389,0.228577,0.258119,37.9932,0.0444096,
2,1,0,1,0,68160.1,0.0522381,0.0519231,4.06494,35,0.00153982,10,0.000211065,-2.39095,0.248037,0.237868,37.7207,0.05192313,
2,1,0,1,0,68160.2,0.0597273,0.0594057,4.3443,35,0.00193478,10,0.000258076,-2.36208,0.259157,0.227661,38.6148,0.0594057,
2,1,0,1,0,68160.3,0.0672147,0.0669319,4.61272,35,0.00235527,10,0.000308738,-2.33604,0.315625,0.186931,33.6345,0.0669319,
2,1,0,1,0,68160.4,0.0747038,0.0743661,4.85676,35,0.0027994,10,0.000361179,-2.31365,0.391114,0.150851,28.5245,0.07436607,
2,1,0,1,0,68160.5,0.0822055,0.0819352,5.05377,35,0.00326544,10,0.000414082,-2.29638,0.416489,0.14166,27.972,0.0819352,
2,1,0,1,0,68160.6,0.0896946,0.0893612,5.23915,35,0.0037488,10,0.000468176,-2.28074,0.540372,0.109184,22.3546,0.0893612,
2,1,0,1,0,68160.7,0.097182,0.0968693,5.44717,35,0.00424992,10,0.000527664,-2.26383,0.416387,0.141695,30.0952,0.0968693,
2,1,0,1,0,68160.8,0.104671,0.104405,5.72673,35,0.00477274,10,0.000597897,-2.24209,0.276811,0.213142,47.6132,0.104405,
2,1,0,1,0,68160.9,0.112159,0.111843,6.1049,35,0.00532662,10,0.000682788,-2.21432,0.251529,0.234566,55.8756,0.111843,
2,1,0,1,0,68160.9,0.119655,0.119381,6.53417,35,0.00591976,10,0.000780059,-2.18481,0.308868,0.19102,48.627,0.119381,
2,1,0,1,0,68161,0.127149,0.12678,6.89133,35,0.00655031,10,0.000873684,-2.1617,0.384439,0.153471,41.2518,0.1267802,
2,1,0,1,0,68161.1,0.134639,0.134278,7.13204,35,0.00720868,10,0.000957679,-2.14679,0.696562,0.0847017,23.5776,0.134278,
2,1,0,1,0,68161.2,0.142126,0.141848,7.25572,35,0.00788437,10,0.00102921,-2.13932,4.81412,0.0122556,3.46503,0.141848,
2,1,0,1,0,68161.3,0.149615,0.149296,7.13395,35,0.00856143,10,0.00106507,-2.14667,-0.38817,-0.151995,-42.187,0.149296,
2,1,0,1,0,68161.4,0.157103,0.15682,6.56352,35,0.00920686,10,0.00102929,-2.18286,-0.146876,-0.4017,-102.617,0.15682,
2,1,0,1,0,68161.5,0.164606,0.164304,5.6828,35,0.00978332,10,0.000933706,-2.24544,-0.106978,-0.551518,-122.34,0.164304,
2,1,0,1,0,68161.6,0.172095,0.17178,4.87699,35,0.0102768,10,0.000837771,-2.31185,-0.122896,-0.480082,-91.4623,0.17178,
2,1,0,1,0,68161.7,0.179582,0.17928,4.29221,35,0.0107053,10,0.000769509,-2.36732,-0.162466,-0.363152,-61.0508,0.17928,
2,1,0,1,0,68161.8,0.18707,0.186776,3.91612,35,0.0110895,10,0.000731439,-2.40714,-0.207107,-0.284877,-43.5177,0.186776,
2,1,0,1,0,68161.9,0.194559,0.194225,3.65615,35,0.0114439,10,0.000710115,-2.43698,-0.314085,-0.187847,-26.805,0.194225,
2,1,0,1,0,68162,0.202062,0.20177,3.47351,35,0.0117785,10,0.000700849,-2.45923,-0.424077,-0.139126,-18.8497,0.20177,
2,1,0,1,0,68162.1,0.20955,0.209266,3.34764,35,0.0120985,10,0.000700548,-2.47526,-0.450182,-0.131058,-17.1321,0.209266,
2,1,0,1,0,68162.2,0.217039,0.216723,3.25266,35,0.0124083,10,0.000704925,-2.48776,-0.728048,-0.0810387,-10.3001,0.216723,
2,1,0,1,0,68162.3,0.224526,0.224255,3.18033,35,0.0127107,10,0.000713207,-2.49753,-0.973292,-0.060619,-7.53464,0.224255,
2,1,0,1,0,68162.4,0.232016,0.23168,3.13548,35,0.0130074,10,0.000726428,-2.5037,-0.855884,-0.0689346,-8.43686,0.23168,
2,1,0,1,0,68162.4,0.23951,0.239213,3.09695,35,0.0133002,10,0.000740832,-2.50907,-2.34896,-0.0251175,-3.03238,0.239213,
2,1,0,1,0,68162.5,0.247006,0.246727,3.05634,35,0.0135895,10,0.000754083,-2.5148,-1.62153,-0.0363854,-4.34145,0.246727,
2,1,0,1,0,68162.6,0.254494,0.254196,3.02879,35,0.0138756,10,0.000769905,-2.51873,-1.3902,-0.04244,-5.01569,0.254196,
2,1,0,1,0,68162.7,0.261983,0.261718,3.01115,35,0.0141592,10,0.000788073,-2.52127,-1.90672,-0.0309432,-3.63202,0.261718,
2,1,0,1,0,68162.8,0.26947,0.269176,2.97954,35,0.0144404,10,0.00080202,-2.52585,-6.05204,-0.00974878,-1.1358,0.269176,
2,1,0,1,0,68162.9,0.276959,0.276658,2.95425,35,0.0147195,10,0.000817314,-2.52955,-2.0524,-0.0287469,-3.31975,0.276658,
2,1,0,1,0,68163,0.284461,0.284209,2.94,35,0.0149969,10,0.000835574,-2.53165,-3.51445,-0.0167878,-1.92085,0.284209,
2,1,0,1,0,68163.1,0.29195,0.291673,2.90646,35,0.0152715,10,0.000847736,-2.53664,-3.49841,-0.0168648,-1.9149,0.291673,
2,1,0,1,0,68163.2,0.299438,0.299132,2.88639,35,0.015544,10,0.000863412,-2.53965,-0.0350829,-1.68173,-176.625,0.2991322,
2,0,0,1,0,68163.3,0.29424,0.293907,-0.0764458,35,0.0156314,10,-2.2468e-05,-4.11665,0.202068,0.291981,214.435,0.293907,
2,0,0,1,0,68163.4,0.286753,0.286443,-0.961972,35,0.0155736,10,-0.00027555,-3.01684,-0.030376,-1.94233,71.6868,0.286443,
2,0,0,1,0,68163.5,0.279264,0.278954,-1.32651,35,0.0154633,10,-0.000370035,-2.87729,-0.0886679,-0.665404,34.4342,0.278954,
2,0,0,1,0,68163.6,0.271776,0.271477,-1.54696,35,0.015327,10,-0.000419963,-2.81052,-0.134813,-0.437642,26.3611,0.271477,
2,0,0,1,0,68163.6,0.26428,0.263969,-1.69653,35,0.0151735,10,-0.000447832,-2.77044,-0.202693,-0.291081,19.3343,0.263969,
2,0,0,1,0,68163.7,0.256786,0.256439,-1.82943,35,0.0150068,10,-0.000469139,-2.73768,-0.306596,-0.192436,13.7167,0.2564393,
2,0,0,1,0,68163.8,0.249296,0.249006,-1.94101,35,0.0148296,10,-0.000483323,-2.71197,-0.367624,-0.16049,12.1137,0.249006,
2,0,0,1,0,68163.9,0.241809,0.241472,-2.02112,35,0.0146431,10,-0.000488045,-2.69441,-0.367277,-0.160642,12.7151,0.241472,
2,0,0,1,0,68164,0.23432,0.234003,-2.11074,35,0.0144483,10,-0.00049392,-2.67556,-0.522868,-0.112839,9.30979,0.234003,
2,0,0,1,0,68164.1,0.226833,0.226556,-2.19503,35,0.0142458,10,-0.000497298,-2.65856,-0.422026,-0.139802,11.9504,0.226556,
2,0,0,1,0,68164.2,0.219329,0.219045,-2.26669,35,0.0140356,10,-0.000496507,-2.64461,-0.464212,-0.127097,11.2699,0.219045,
2,0,0,1,0,68164.3,0.21184,0.211546,-2.34116,35,0.0138187,10,-0.000495263,-2.63057,-0.775736,-0.0760568,6.94914,0.211546,
2,0,0,1,0,68164.4,0.204353,0.203999,-2.42029,35,0.0135949,10,-0.000493737,-2.61613,-0.70299,-0.0839272,7.92346,0.203999,
2,0,0,1,0,68164.5,0.196863,0.196555,-2.48724,35,0.0133642,10,-0.000488879,-2.60428,-0.514809,-0.114606,11.1557,0.1965549,
2,0,0,1,0,68164.6,0.189376,0.18903,-2.57067,35,0.0131262,10,-0.000485935,-2.58995,-0.666802,-0.088482,8.89368,0.18903,
2,0,0,1,0,68164.7,0.18188,0.181568,-2.66716,35,0.0128801,10,-0.000484271,-2.57395,-0.440296,-0.134001,13.9054,0.181568,
2,0,0,1,0,68164.8,0.174385,0.174059,-2.76139,35,0.0126253,10,-0.000480645,-2.55887,-0.38711,-0.152411,16.4154,0.174059,
2,0,0,1,0,68164.9,0.166896,0.166602,-2.87506,35,0.0123606,10,-0.000478992,-2.54135,-0.418328,-0.141038,15.8387,0.166602,
2,0,0,1,0,68165,0.159409,0.159089,-3.04184,35,0.0120834,10,-0.000483921,-2.51686,-0.30124,-0.195857,23.1947,0.159089,
2,0,0,1,0,68165.1,0.151919,0.151596,-3.24462,35,0.0117889,10,-0.00049187,-2.48884,-0.208431,-0.283068,35.9898,0.151596,
2,0,0,1,0,68165.1,0.144425,0.144085,-3.58494,35,0.0114689,10,-0.000516538,-2.44552,-0.145498,-0.405505,56.906,0.144085,
2,0,0,1,0,68165.2,0.136929,0.136582,-4.12534,35,0.0111081,10,-0.000563445,-2.38454,-0.112801,-0.523047,84.2745,0.136582,
2,0,0,1,0,68165.3,0.129441,0.129107,-4.84592,35,0.0106884,10,-0.000625642,-2.31462,-0.107535,-0.548656,103.662,0.129107,
2,0,0,1,0,68165.4,0.121952,0.121669,-5.59897,35,0.0101983,10,-0.00068122,-2.25189,-0.135009,-0.437008,95.3837,0.121669,
2,0,0,1,0,68165.5,0.114465,0.114118,-6.28264,35,0.00964034,10,-0.000716963,-2.20186,-0.181051,-0.325875,79.8116,0.114118,
2,0,0,1,0,68165.6,0.106976,0.106629,-6.81622,35,0.00902488,10,-0.000726807,-2.16646,-0.257862,-0.228805,60.8361,0.1066291,
2,0,0,1,0,68165.7,0.0994721,0.0991377,-7.15598,35,0.00836628,10,-0.000709427,-2.14533,-0.544698,-0.108317,30.2352,0.0991377,
2,0,0,1,0,68165.8,0.0919847,0.0916149,-7.26435,35,0.00768846,10,-0.000665522,-2.1388,19.3338,0.00305166,-0.864159,0.0916149,
2,0,0,1,0,68165.9,0.0844974,0.0841609,-7.16935,35,0.00701095,10,-0.00060338,-2.14452,0.872244,0.0676416,-18.9115,0.0841609,
2,0,0,1,0,68166,0.0770082,0.0766678,-6.99495,35,0.00634709,10,-0.000536287,-2.15522,0.675842,0.0872985,-23.8288,0.0766678,
2,0,0,1,0,68166.1,0.0695208,0.0691811,-6.84579,35,0.00569865,10,-0.0004736,-2.16458,0.768804,0.0767425,-20.5008,0.0691811,
2,0,0,1,0,68166.2,0.0620245,0.0617061,-6.7281,35,0.00506222,10,-0.000415165,-2.17211,1.01459,0.0581514,-15.2551,0.0617061,
2,0,0,1,0,68166.3,0.0545282,0.0542255,-6.59465,35,0.00443719,10,-0.000357598,-2.18081,0.94492,0.0624392,-16.0762,0.0542255,
2,0,0,1,0,68166.4,0.0470408,0.0467253,-6.45356,35,0.00382524,10,-0.000301544,-2.1902,0.653612,0.0902676,-22.7234,0.0467253,
2,0,0,1,0,68166.5,0.0395516,0.0391963,-6.29845,35,0.00322773,10,-0.000246876,-2.20077,0.675641,0.0873245,-21.4314,0.0391963,
2,0,0,1,0,68166.6,0.0320643,0.0317594,-6.0988,35,0.00264654,10,-0.000193694,-2.21476,0.519562,0.113557,-27.0334,0.03175943,
2,0,0,1,0,68166.6,0.0245751,0.0242625,-5.88434,35,0.00208438,10,-0.000142769,-2.2303,0.43639,0.1352,-31.046,0.0242625,
2,0,0,1,0,68166.7,0.0170735,0.0167261,-5.66907,35,0.00154143,10,-9.48216e-05,-2.24649,0.509528,0.115793,-25.6524,0.0167261,
2,0,0,1,0,68166.8,0.00958428,0.00924253,-5.48374,35,0.00101876,10,-5.06837e-05,-2.26092,0.6525,0.0904215,-19.3445,0.00924253,
2,0,0,1,0,68166.9,0.0020969,0.00171463,-5.3726,35,0.000511927,10,-9.21204e-06,-2.26982,1.03134,0.0572072,-11.9333,0.00171463,
2,0,0,1,0,68166.9,0.000199195,-0.000178351,-5.3216,35,0.000384994,10,9.49113e-07,-2.27396, , , ,-0.000178351,