Folder: Figs_alphaMnO2_OER_Tafel_sleope/Figure_codes/Fig_3-5/rawdata_trumpetplot_data/after 10th (part 41)

File: 20221101_1-115_003_TrumpetPlot_ParaChange_from10_every3_04_CV_C01_10.csv
mode,ox/red,error,control changes,counter inc.,time/s,control/V,Ewe/V,<I>/mA,cycle number,(Q-Qo)/C,I Range,P/W,log(|I|),Tafel slope mV/dec,alpha_eff,dI/d(E-IR),E-IR/V,
2,0,0,1,0,20761.3,2.44065e-05,-0.000344411,-0.394513,11,0.0000000E+000,10,1.35875e-07,-3.40394, , , ,-0.000344411,
2,1,0,1,0,20762,0.00729063,0.00700845,0.363996,11,0.000191764,10,2.55105e-06,-3.4389,0.0598451,0.985878,13.8112,0.00700845,
2,1,0,1,0,20762.8,0.0147814,0.0144821,0.440128,11,0.000506731,10,6.37398e-06,-3.35642,0.122105,0.48319,8.28824,0.0144821,
2,1,0,1,0,20763.5,0.0222725,0.0219591,0.498794,11,0.000870482,10,1.09531e-05,-3.30208,0.138659,0.425505,8.26007,0.02195912,
2,1,0,1,0,20764.3,0.0297635,0.0294234,0.551856,11,0.00127591,10,1.62375e-05,-3.25817,0.189795,0.310862,6.68649,0.0294234,
2,1,0,1,0,20765,0.0372544,0.0369458,0.604422,11,0.00172144,10,2.23309e-05,-3.21866,0.217002,0.271887,6.42584,0.0369458,
2,1,0,1,0,20765.8,0.0447458,0.0444422,0.655867,11,0.00220685,10,2.91482e-05,-3.18318,0.211922,0.278404,7.13825,0.0444422,
2,1,0,1,0,20766.5,0.0522363,0.0519188,0.702189,11,0.00272928,10,3.64568e-05,-3.15355,0.22628,0.260739,7.15199,0.0519188,
2,1,0,1,0,20767.3,0.0597282,0.05937,0.74868,11,0.0032859,10,4.44491e-05,-3.1257,0.289854,0.203551,5.95031,0.05937,
2,1,0,1,0,20768,0.0672182,0.0669267,0.788657,11,0.00387398,10,5.27822e-05,-3.10311,0.402486,0.146589,4.50092,0.0669267,
2,1,0,1,0,20768.8,0.0747092,0.0743899,0.821293,11,0.00448857,10,6.10959e-05,-3.0855,0.480849,0.1227,3.92779,0.07438986,
2,1,0,1,0,20769.5,0.0822001,0.0819516,0.846153,11,0.00512606,10,6.93436e-05,-3.07255,0.503561,0.117166,3.88125,0.0819516,
2,1,0,1,0,20770.3,0.0896911,0.0893628,0.887442,11,0.00578806,10,7.93043e-05,-3.05186,0.293912,0.20074,6.97005,0.0893628,
2,1,0,1,0,20771,0.097182,0.096844,0.948442,11,0.00648736,10,9.18509e-05,-3.02299,0.194959,0.302628,11.2095,0.096844,
2,1,0,1,0,20771.8,0.104673,0.104322,1.03834,11,0.00724245,10,0.000108321,-2.98366,0.205103,0.28766,11.6164,0.104322,
2,1,0,1,0,20772.5,0.112164,0.111873,1.11377,11,0.00806153,10,0.000124601,-2.9532,0.275982,0.213782,9.27877,0.111873,
2,1,0,1,0,20773.3,0.119655,0.119327,1.16965,11,0.00893121,10,0.00013957,-2.93195,0.617459,0.0955528,4.362,0.119327,
2,1,0,1,0,20774,0.127146,0.126882,1.21074,11,0.00983648,10,0.000153621,-2.91695,0.529258,0.111477,5.28276,0.126882,
2,1,0,1,0,20774.8,0.134637,0.134333,1.23534,11,0.0107712,10,0.000165947,-2.90821,-1.01502,-0.0581268,-2.79802,0.134333,
2,1,0,1,0,20775.5,0.142127,0.141765,1.14316,11,0.0116845,10,0.000162061,-2.94189,-0.121908,-0.483972,-21.4752,0.141765,
2,1,0,1,0,20776.3,0.149619,0.149284,0.930027,11,0.0124766,10,0.000138838,-3.0315,-0.0718477,-0.821182,-29.8019,0.149284,
2,1,0,1,0,20777,0.157109,0.15675,0.74852,11,0.0131115,10,0.00011733,-3.1258,-0.0941764,-0.626484,-18.3536,0.15675,
2,1,0,1,0,20777.8,0.164601,0.164283,0.656418,11,0.013645,10,0.000107838,-3.18282,-0.168651,-0.349835,-8.95441,0.164283,
2,1,0,1,0,20778.5,0.172091,0.171816,0.605025,11,0.0141278,10,0.000103953,-3.21823,-0.328396,-0.179661,-4.25944,0.171816,
2,1,0,1,0,20779.3,0.179582,0.179271,0.578816,11,0.0145828,10,0.000103765,-3.23746,-0.424227,-0.139076,-3.14916,0.179271,
2,1,0,1,0,20780,0.187074,0.186755,0.562231,11,0.0150214,10,0.000104999,-3.25009,-0.619236,-0.0952787,-2.08672,0.186755,
2,1,0,1,0,20780.8,0.194564,0.194226,0.55036,11,0.0154491,10,0.000106894,-3.25935,-0.790136,-0.0746707,-1.60278,0.1942264,
2,1,0,1,0,20781.5,0.202056,0.201726,0.540583,11,0.0158687,10,0.00010905,-3.26714,-1.15133,-0.0512452,-1.07943,0.201726,
2,1,0,1,0,20782.3,0.209546,0.209228,0.534032,11,0.0162824,10,0.000111734,-3.27243,-0.870831,-0.0677514,-1.41103,0.209228,
2,1,0,1,0,20783,0.217038,0.216729,0.525404,11,0.0166904,10,0.00011387,-3.27951,-2.66535,-0.022136,-0.454123,0.216729,
2,1,0,1,0,20783.8,0.224528,0.224189,0.520195,11,0.0170939,10,0.000116622,-3.28383,-1.91274,-0.0308458,-0.625165,0.224189,
2,1,0,1,0,20784.5,0.232019,0.231696,0.515363,11,0.017493,10,0.000119407,-3.28789,-1.23219,-0.0478823,-0.962244,0.231696,
2,1,0,1,0,20785.3,0.23951,0.239212,0.512183,11,0.0178886,10,0.00012252,-3.29057,-1.31969,-0.0447076,-0.888642,0.239212,
2,1,0,1,0,20786,0.247001,0.246676,0.506138,11,0.0182806,10,0.000124852,-3.29573,-0.972544,-0.0606656,-1.19671,0.246676,
2,1,0,1,0,20786.8,0.254492,0.254164,0.500673,11,0.0186693,10,0.000127253,-3.30045,-1.3653,-0.043214,-0.844306,0.254164,
2,1,0,1,0,20787.5,0.261983,0.261695,0.496786,11,0.0190544,10,0.000130006,-3.30383,-2.53274,-0.0232949,-0.452429,0.261695,
2,1,0,1,0,20788.3,0.269474,0.269183,0.491818,11,0.0194365,10,0.000132389,-3.3082,-8.82975,-0.00668195,-0.128202,0.269183,
2,1,0,1,0,20789,0.276965,0.276631,0.488497,11,0.0198152,10,0.000135133,-3.31114,-1.04096,-0.0566783,-1.0813,0.276631,
2,1,0,1,0,20789.8,0.284456,0.284124,0.483768,11,0.0201908,10,0.00013745,-3.31536,-3.40577,-0.0173235,-0.326275,0.284124,
2,1,0,1,0,20790.5,0.291947,0.29161,0.479404,11,0.0205627,10,0.000139799,-3.3193,-1.17775,-0.0500956,-0.935231,0.29161,
2,1,0,1,0,20791.3,0.299437,0.299155,0.473036,11,0.0209313,10,0.000141511,-3.32511,-0.00226449,-26.0544,-223.442,0.299155,
2,0,0,1,0,20791.9,0.293745,0.293423,-0.0739793,11,0.0209479,10,-2.17072e-05,-4.13089,-0.0150573,-3.91836,10.6647,0.293423,
2,0,0,1,0,20792.7,0.286253,0.285983,-0.129763,11,0.0208573,10,-3.71101e-05,-3.88685,-0.0490473,-1.20292,6.06302,0.285983,
2,0,0,1,0,20793.4,0.278763,0.278438,-0.166136,11,0.0207337,10,-4.62585e-05,-3.77954,-0.0933284,-0.632176,4.08375,0.278438,
2,0,0,1,0,20794.2,0.271272,0.27097,-0.19413,11,0.0205866,10,-5.26036e-05,-3.71191,-0.124455,-0.474068,3.58447,0.27097,
2,0,0,1,0,20794.9,0.263781,0.263477,-0.217343,11,0.02042,10,-5.72649e-05,-3.66286,-0.153977,-0.383174,3.25528,0.263477,
2,0,0,1,0,20795.7,0.25629,0.256007,-0.23832,11,0.020237,10,-6.10115e-05,-3.62284,-0.229044,-0.257593,2.3958,0.256007,
2,0,0,1,0,20796.4,0.248799,0.24846,-0.256827,11,0.02004,10,-6.38111e-05,-3.59036,-0.25937,-0.227475,2.274,0.24846,
2,0,0,1,0,20797.2,0.241308,0.24101,-0.271432,11,0.0198303,10,-6.54179e-05,-3.56634,-0.285494,-0.206659,2.20103,0.24101,
2,0,0,1,0,20797.9,0.233817,0.233478,-0.28836,11,0.0196085,10,-6.73259e-05,-3.54006,-0.289031,-0.204131,2.29729,0.2334784,
2,0,0,1,0,20798.7,0.226326,0.226039,-0.304055,11,0.0193752,10,-6.87282e-05,-3.51705,-0.285788,-0.206447,2.44338,0.226039,
2,0,0,1,0,20799.4,0.218835,0.21851,-0.317803,11,0.0191302,10,-6.94431e-05,-3.49784,-0.300612,-0.196266,2.43081,0.21851,
2,0,0,1,0,20800.2,0.211344,0.211006,-0.333625,11,0.0188739,10,-7.03969e-05,-3.47674,-0.339195,-0.173941,2.27211,0.211006,
2,0,0,1,0,20800.9,0.203854,0.203546,-0.346845,11,0.0186058,10,-7.05989e-05,-3.45986,-0.404611,-0.145819,1.99358,0.203546,
2,0,0,1,0,20801.7,0.196362,0.19602,-0.365632,11,0.018326,10,-7.16711e-05,-3.43696,-0.445401,-0.132465,1.89265,0.19602,
2,0,0,1,0,20802.4,0.188872,0.188566,-0.384943,11,0.0180331,10,-7.25871e-05,-3.4146,-0.263769,-0.223681,3.34938,0.188566,
2,0,0,1,0,20803.2,0.18138,0.181066,-0.406274,11,0.0177258,10,-7.35622e-05,-3.39118,-0.303641,-0.194308,3.07299,0.181066,
2,0,0,1,0,20803.9,0.17389,0.173541,-0.431419,11,0.0174013,10,-7.4869e-05,-3.3651,-0.263346,-0.22404,3.76577,0.173541,
2,0,0,1,0,20804.7,0.166398,0.166113,-0.463849,11,0.0170545,10,-7.70513e-05,-3.33362,-0.230817,-0.255614,4.63966,0.166113,
2,0,0,1,0,20805.4,0.158907,0.158575,-0.512826,11,0.016677,10,-8.13216e-05,-3.29003,-0.150902,-0.390983,7.84412,0.158575,
2,0,0,1,0,20806.2,0.151417,0.15109,-0.593002,11,0.0162525,10,-8.95968e-05,-3.22694,-0.0972393,-0.60675,14.0828,0.15109,
2,0,0,1,0,20806.9,0.143925,0.143653,-0.727067,11,0.0157497,10,-0.000104445,-3.13843,-0.0693229,-0.851089,24.176,0.143653,
2,0,0,1,0,20807.7,0.136435,0.136067,-0.918824,11,0.0151225,10,-0.000125022,-3.03677,-0.0781269,-0.755182,26.9955,0.136067,
2,0,0,1,0,20808.4,0.128943,0.128651,-1.1102,11,0.0143471,10,-0.000142829,-2.9546,-0.121094,-0.487223,21.0136,0.128651,
2,0,0,1,0,20809.2,0.121453,0.121138,-1.22882,11,0.0134539,10,-0.000148857,-2.91051,-0.308949,-0.19097,9.11561,0.121138,
2,0,0,1,0,20809.9,0.113962,0.113634,-1.25595,11,0.0125057,10,-0.00014272,-2.90103,3.51328,0.0167934,-0.824297,0.113634,
2,0,0,1,0,20810.7,0.106471,0.106113,-1.23395,11,0.011557,10,-0.000130938,-2.9087,0.604415,0.097615,-4.70911,0.106113,
2,0,0,1,0,20811.4,0.0989799,0.0986615,-1.19057,11,0.0106352,10,-0.000117464,-2.92424,0.46865,0.125893,-5.83925,0.0986615,
2,0,0,1,0,20812.2,0.0914889,0.091174,-1.1472,11,0.00974828,10,-0.000104595,-2.94036,0.47031,0.125449,-5.60456,0.091174,
2,0,0,1,0,20812.9,0.083998,0.0836674,-1.10444,11,0.00889483,10,-9.24053e-05,-2.95686,0.464626,0.126984,-5.45677,0.08366736,
2,0,0,1,0,20813.7,0.076507,0.076166,-1.06609,11,0.00807058,10,-8.11998e-05,-2.97221,0.479648,0.123007,-5.11079,0.076166,
2,0,0,1,0,20814.4,0.0690161,0.0686902,-1.02906,11,0.00727311,10,-7.06862e-05,-2.98756,0.515092,0.114543,-4.61623,0.0686902,
2,0,0,1,0,20815.2,0.0615251,0.0612154,-0.997557,11,0.00649954,10,-6.10658e-05,-3.00106,0.612714,0.0962929,-3.75981,0.0612154,
2,0,0,1,0,20815.9,0.0540342,0.0537565,-0.968882,11,0.00575015,10,-5.20837e-05,-3.01373,0.549822,0.107307,-4.04859,0.0537565,
2,0,0,1,0,20816.7,0.0465441,0.0461901,-0.933369,11,0.00502517,10,-4.31125e-05,-3.02995,0.481952,0.122419,-4.46312,0.0461901,
2,0,0,1,0,20817.4,0.0390523,0.0387263,-0.898521,11,0.00432633,10,-3.47964e-05,-3.04647,0.36172,0.16311,-5.71283,0.03872627,
2,0,0,1,0,20818.2,0.0315618,0.031218,-0.865042,11,0.00365414,10,-2.70048e-05,-3.06296,0.455867,0.129424,-4.3683,0.031218,
2,0,0,1,0,20818.9,0.0240704,0.0237767,-0.826649,11,0.00300763,10,-1.9655e-05,-3.08268,0.425725,0.138587,-4.49348,0.0237767,
2,0,0,1,0,20819.7,0.0165796,0.016282,-0.802831,11,0.00238423,10,-1.30717e-05,-3.09538,0.780035,0.0756376,-2.37181,0.016282,
2,0,0,1,0,20820.4,0.00908846,0.00878675,-0.784642,11,0.00177776,10,-6.89445e-06,-3.10533,1.70382,0.034628,-1.06109,0.00878675,
2,0,0,1,0,20821.2,0.00159728,0.00119906,-0.789315,11,0.00117877,10,-9.46438e-07,-3.10275, , , ,0.001199063,
2,0,0,1,0,20821.3,0.000199195,-0.000140177,-0.779847,11,0.00106689,10,1.09316e-07,-3.10799, , , ,-0.000140177,

File: 20221101_1-115_003_TrumpetPlot_ParaChange_from10_every3_04_CV_C01_11.csv
mode,ox/red,error,control changes,counter inc.,time/s,control/V,Ewe/V,<I>/mA,cycle number,(Q-Qo)/C,I Range,P/W,log(|I|),Tafel slope mV/dec,alpha_eff,dI/d(E-IR),E-IR/V,
2,0,0,1,0,22731.5,2.44065e-05,-0.000306236,-0.376068,12,0.0000000E+000,10,1.15166e-07,-3.42473, , , ,-0.000306236,
2,1,0,1,0,22732.2,0.00729063,0.00697133,0.378369,12,0.000207104,10,2.63774e-06,-3.42208,0.0653579,0.902722,13.1418,0.00697133,
2,1,0,1,0,22732.9,0.0147814,0.0144868,0.450169,12,0.000533311,10,6.5215e-06,-3.34662,0.124932,0.472256,8.28233,0.0144868,
2,1,0,1,0,22733.7,0.0222725,0.0219623,0.507354,12,0.00090611,10,1.11427e-05,-3.29469,0.164175,0.359372,7.10749,0.0219623,
2,1,0,1,0,22734.4,0.0297635,0.0294574,0.559148,12,0.00131898,10,1.64711e-05,-3.25247,0.190374,0.309917,6.74536,0.0294574,
2,1,0,1,0,22735.2,0.0372544,0.0369193,0.611071,12,0.00177147,10,2.25603e-05,-3.21391,0.206215,0.28611,6.85193,0.0369193,
2,1,0,1,0,22735.9,0.0447458,0.0444444,0.663395,12,0.00226366,10,2.94842e-05,-3.17823,0.235462,0.250572,6.4781,0.0444444,
2,1,0,1,0,22736.7,0.0522363,0.0518965,0.710124,12,0.00279285,10,3.6853e-05,-3.14867,0.23576,0.250255,6.94397,0.0518965,
2,1,0,1,0,22737.4,0.0597282,0.0593975,0.755954,12,0.00335663,10,4.49018e-05,-3.1215,0.30816,0.191459,5.64198,0.0593975,
2,1,0,1,0,22738.2,0.0672182,0.0669055,0.797417,12,0.00395173,10,5.33516e-05,-3.09831,0.397053,0.148595,4.60396,0.0669055,
2,1,0,1,0,22738.9,0.0747092,0.0744111,0.828858,12,0.00457348,10,6.16762e-05,-3.08152,0.606254,0.0973189,3.13981,0.0744111,
2,1,0,1,0,22739.7,0.0822001,0.0818594,0.85372,12,0.00521769,10,6.9885e-05,-3.06868,0.508032,0.116134,3.88069,0.0818594,
2,1,0,1,0,22740.4,0.0896911,0.089384,0.895027,12,0.00588673,10,8.00011e-05,-3.04816,0.308954,0.190967,6.69283,0.089384,
2,1,0,1,0,22741.2,0.097182,0.0968641,0.955447,12,0.00659314,10,9.25485e-05,-3.01979,0.187044,0.315434,11.7702,0.0968641,
2,1,0,1,0,22741.9,0.104673,0.104321,1.04805,12,0.00735589,10,0.000109334,-2.97962,0.206946,0.285099,11.6178,0.104321,
2,1,0,1,0,22742.7,0.112164,0.111847,1.12562,12,0.00818443,10,0.000125896,-2.94861,0.287569,0.205168,8.9971,0.1118466,
2,1,0,1,0,22743.4,0.119655,0.119362,1.18489,12,0.00906494,10,0.000141431,-2.92632,0.517188,0.114079,5.2706,0.119362,
2,1,0,1,0,22744.2,0.127146,0.126834,1.22306,12,0.00998204,10,0.000155126,-2.91255,0.52639,0.112084,5.36181,0.126834,
2,1,0,1,0,22744.9,0.134637,0.134299,1.24707,12,0.0109275,10,0.000167479,-2.90411,-0.839941,-0.0702431,-3.41727,0.134299,
2,1,0,1,0,22745.7,0.142127,0.141807,1.1506,12,0.0118499,10,0.000163163,-2.93908,-0.121954,-0.48379,-21.6285,0.141807,
2,1,0,1,0,22746.4,0.149619,0.14929,0.934405,12,0.0126479,10,0.000139497,-3.02946,-0.0702788,-0.839513,-30.5847,0.14929,
2,1,0,1,0,22747.2,0.157109,0.15683,0.743463,12,0.0132843,10,0.000116597,-3.12874,-0.0904216,-0.652499,-19.0159,0.15683,
2,1,0,1,0,22747.9,0.164601,0.164267,0.649121,12,0.0138152,10,0.000106629,-3.18767,-0.15201,-0.388132,-9.84953,0.164267,
2,1,0,1,0,22748.7,0.172091,0.171781,0.595985,12,0.0142935,10,0.000102379,-3.22476,-0.27079,-0.217881,-5.09063,0.171781,
2,1,0,1,0,22749.4,0.179582,0.179278,0.569231,12,0.0147434,10,0.000102051,-3.24471,-0.524204,-0.112552,-2.50918,0.179278,
2,1,0,1,0,22750.2,0.187074,0.186794,0.554474,12,0.015177,10,0.000103573,-3.25612,-1.06028,-0.0556454,-1.19918,0.186794,
2,1,0,1,0,22750.9,0.194564,0.194238,0.54205,12,0.0156002,10,0.000105287,-3.26596,-1.06888,-0.055198,-1.16719,0.194238,
2,1,0,1,0,22751.7,0.202056,0.201764,0.532593,12,0.0160158,10,0.000107458,-3.2736,-0.998995,-0.0590593,-1.22716,0.2017644,
2,1,0,1,0,22752.4,0.209546,0.209252,0.524842,12,0.0164255,10,0.000109824,-3.27997,-1.61,-0.0366459,-0.752406,0.209252,
2,1,0,1,0,22753.2,0.217038,0.216728,0.519472,12,0.0168298,10,0.000112584,-3.28444,-1.34376,-0.0439066,-0.891586,0.216728,
2,1,0,1,0,22753.9,0.224528,0.224231,0.513829,12,0.0172301,10,0.000115216,-3.28918,-2.6061,-0.0226392,-0.454377,0.224231,
2,1,0,1,0,22754.6,0.232019,0.231749,0.508591,12,0.0176262,10,0.000117865,-3.29363,-2.81594,-0.0209522,-0.417251,0.231749,
2,1,0,1,0,22755.4,0.23951,0.239225,0.502819,12,0.0180189,10,0.000120287,-3.29859,-1.27014,-0.0464517,-0.914138,0.239225,
2,1,0,1,0,22756.1,0.247001,0.246699,0.500667,12,0.0184083,10,0.000123514,-3.30045,-2.38545,-0.0247333,-0.482628,0.246699,
2,1,0,1,0,22756.9,0.254492,0.254153,0.495905,12,0.0187947,10,0.000126036,-3.3046,-1.69017,-0.0349077,-0.6761,0.254153,
2,1,0,1,0,22757.6,0.261983,0.261709,0.493809,12,0.0191782,10,0.000129234,-3.30644,-1.58977,-0.0371123,-0.712742,0.261709,
2,1,0,1,0,22758.4,0.269474,0.269168,0.48741,12,0.0195588,10,0.000131195,-3.31211,3.88844,0.0151732,0.289464,0.2691685,
2,1,0,1,0,22759.1,0.276965,0.276693,0.485567,12,0.0199363,10,0.000134353,-3.31375,-2.44681,-0.0241131,-0.45638,0.276693,
2,1,0,1,0,22759.9,0.284456,0.28415,0.478482,12,0.0203107,10,0.000135961,-3.32013,-4.753,-0.0124132,-0.232202,0.28415,
2,1,0,1,0,22760.6,0.291947,0.291659,0.475052,12,0.0206816,10,0.000138553,-3.32326,-1.6765,-0.0351924,-0.654798,0.2916587,
2,1,0,1,0,22761.4,0.299437,0.299154,0.468928,12,0.0210493,10,0.000140282,-3.32889,-0.0019893,-29.6586,-231.948,0.299154,
2,0,0,1,0,22762.1,0.293745,0.293438,-0.0852158,12,0.0210566,10,-2.50056e-05,-4.06948,-0.0184299,-3.20132,10.0294,0.293438,
2,0,0,1,0,22762.8,0.286253,0.285949,-0.13802,12,0.020958,10,-3.94668e-05,-3.86006,-0.0537536,-1.0976,5.9062,0.285949,
2,0,0,1,0,22763.6,0.278763,0.278489,-0.173118,12,0.0208274,10,-4.82115e-05,-3.76166,-0.0958655,-0.615446,4.16341,0.278489,
2,0,0,1,0,22764.3,0.271272,0.270996,-0.199858,12,0.020674,10,-5.41605e-05,-3.69928,-0.162044,-0.364098,2.83905,0.270996,
2,0,0,1,0,22765.1,0.263781,0.263436,-0.224354,12,0.0205017,10,-5.91028e-05,-3.64907,-0.1585,-0.37224,3.25547,0.263436,
2,0,0,1,0,22765.8,0.25629,0.256036,-0.243323,12,0.0203135,10,-6.22995e-05,-3.61382,-0.260953,-0.226094,2.13885,0.256036,
2,0,0,1,0,22766.6,0.248799,0.248508,-0.262689,12,0.0201114,10,-6.52803e-05,-3.58056,-0.303896,-0.194145,1.98004,0.248508,
2,0,0,1,0,22767.3,0.241308,0.240979,-0.275348,12,0.0198972,10,-6.6353e-05,-3.56012,-0.332085,-0.177665,1.91578,0.240979,
2,0,0,1,0,22768.1,0.233817,0.233449,-0.293181,12,0.0196709,10,-6.84426e-05,-3.53286,-0.289964,-0.203474,2.32326,0.233449,
2,0,0,1,0,22768.8,0.226326,0.22608,-0.305887,12,0.019433,10,-6.91548e-05,-3.51444,-0.382834,-0.154114,1.84224,0.22608,
2,0,0,1,0,22769.6,0.218835,0.218548,-0.321446,12,0.0191839,10,-7.02513e-05,-3.49289,-0.291071,-0.2027,2.54709,0.218548,
2,0,0,1,0,22770.3,0.211344,0.211066,-0.336784,12,0.0189237,10,-7.10836e-05,-3.47265,-0.391694,-0.150628,1.9758,0.211066,
2,0,0,1,0,22771.1,0.203854,0.203509,-0.350635,12,0.0186516,10,-7.13575e-05,-3.45514,-0.41594,-0.141847,1.95707,0.203509,
2,0,0,1,0,22771.8,0.196362,0.196031,-0.369605,12,0.0183679,10,-7.2454e-05,-3.43226,-0.374956,-0.157352,2.26944,0.196031,
2,0,0,1,0,22772.6,0.188872,0.188561,-0.388043,12,0.0180708,10,-7.317e-05,-3.41112,-0.277176,-0.212861,3.21705,0.188561,
2,0,0,1,0,22773.3,0.18138,0.18109,-0.409639,12,0.0177593,10,-7.41816e-05,-3.3876,-0.291404,-0.202468,3.23233,0.18109,
2,0,0,1,0,22774.1,0.17389,0.173543,-0.436073,12,0.0174301,10,-7.56772e-05,-3.36044,-0.254699,-0.231646,3.9268,0.173543,
2,0,0,1,0,22774.8,0.166398,0.166084,-0.468711,12,0.0170779,10,-7.78455e-05,-3.3291,-0.215806,-0.273394,5.03849,0.166084,
2,0,0,1,0,22775.6,0.158907,0.158588,-0.519975,12,0.0166943,10,-8.24618e-05,-3.28402,-0.148456,-0.397423,8.09708,0.158588,
2,0,0,1,0,22776.3,0.151417,0.151105,-0.602301,12,0.0162617,10,-9.10107e-05,-3.22019,-0.100533,-0.586871,13.8777,0.151105,
2,0,0,1,0,22777.1,0.143925,0.143633,-0.740586,12,0.0157484,10,-0.000106372,-3.13042,-0.069096,-0.853885,24.6671,0.143633,
2,0,0,1,0,22777.8,0.136435,0.136147,-0.936824,12,0.0151079,10,-0.000127546,-3.02834,-0.0775138,-0.761155,27.7478,0.136147,
2,0,0,1,0,22778.6,0.128943,0.128626,-1.12806,12,0.014318,10,-0.000145098,-2.94767,-0.123754,-0.476752,20.883,0.128626,
2,0,0,1,0,22779.3,0.121453,0.12118,-1.24302,12,0.0134099,10,-0.00015063,-2.90552,-0.327507,-0.180149,8.72483,0.1211803,
2,0,0,1,0,22780.1,0.113962,0.113667,-1.26751,12,0.0124489,10,-0.000144074,-2.89705,2.87686,0.0205085,-1.01577,0.113667,
2,0,0,1,0,22780.8,0.106471,0.106171,-1.24295,12,0.0114902,10,-0.000131966,-2.90555,0.507725,0.116205,-5.65236,0.1061713,
2,0,0,1,0,22781.6,0.0989799,0.0986583,-1.19671,12,0.0105614,10,-0.000118065,-2.92201,0.460911,0.128007,-5.9658,0.0986583,
2,0,0,1,0,22782.3,0.0914889,0.091121,-1.15015,12,0.00966987,10,-0.000104802,-2.93925,0.449065,0.131384,-5.88375,0.091121,
2,0,0,1,0,22783.1,0.083998,0.0836589,-1.10382,12,0.00881323,10,-9.23439e-05,-2.9571,0.357102,0.165219,-7.10198,0.0836589,
2,0,0,1,0,22783.8,0.076507,0.0762169,-1.06614,12,0.00798737,10,-8.12576e-05,-2.97219,0.502022,0.117525,-4.88566,0.0762169,
2,0,0,1,0,22784.5,0.0690161,0.0687326,-1.02689,12,0.00718954,10,-7.05809e-05,-2.98848,0.493404,0.119578,-4.80472,0.0687326,
2,0,0,1,0,22785.3,0.0615251,0.0612058,-0.997886,12,0.00641664,10,-6.10765e-05,-3.00092,0.482896,0.122179,-4.75659,0.0612058,
2,0,0,1,0,22786,0.0540342,0.0536833,-0.962961,12,0.00566901,10,-5.16949e-05,-3.01639,0.505056,0.116819,-4.38439,0.0536833,
2,0,0,1,0,22786.8,0.0465441,0.0462212,-0.925876,12,0.00494685,10,-4.27951e-05,-3.03345,0.549902,0.107292,-3.88447,0.0462212,
2,0,0,1,0,22787.5,0.0390523,0.038722,-0.892087,12,0.00425171,10,-3.45434e-05,-3.04959,0.409752,0.14399,-5.00262,0.038722,
2,0,0,1,0,22788.3,0.0315618,0.0312337,-0.857391,12,0.00358344,10,-2.67795e-05,-3.06682,0.375519,0.157116,-5.2548,0.0312337,
2,0,0,1,0,22789,0.0240704,0.0237554,-0.819971,12,0.00294082,10,-1.94788e-05,-3.0862,0.456535,0.129234,-4.15664,0.0237554,
2,0,0,1,0,22789.8,0.0165796,0.0162416,-0.797628,12,0.00232071,10,-1.29548e-05,-3.0982,0.768585,0.0767644,-2.39271,0.0162416,
2,0,0,1,0,22790.5,0.00908846,0.00877084,-0.782631,12,0.00171606,10,-6.86433e-06,-3.10644,1.4233,0.041453,-1.26392,0.008770844,
2,0,0,1,0,22791.3,0.00159728,0.00124691,-0.787755,12,0.00111757,10,-9.82259e-07,-3.10361, , , ,0.00124691,
2,0,0,1,0,22791.4,0.000199195,-0.000166899,-0.779201,12,0.0010055,10,1.30048e-07,-3.10835, , , ,-0.000166899,