Folder: Figs_alphaMnO2_OER_Tafel_sleope/Figure_codes/Fig_3-5/rawdata_trumpetplot_data/after 10th (part 64)

File: 20221101_1-115_003_TrumpetPlot_ParaChange_from10_every3_05_CV_C01_23.csv
mode,ox/red,error,control changes,counter inc.,time/s,control/V,Ewe/V,<I>/mA,cycle number,(Q-Qo)/C,I Range,P/W,log(|I|),Tafel slope mV/dec,alpha_eff,dI/d(E-IR),E-IR/V,
2,0,0,1,0,46433,2.44065e-05,-0.000287149,-0.746238,24,0.0000000E+000,10,2.14282e-07,-3.12712, , , ,-0.0002871489,
2,1,0,1,0,46433.4,0.00729063,0.0069863,0.653479,24,0.000128719,10,4.5654e-06,-3.18477,0.0435612,1.35442,33.7828,0.0069863,
2,1,0,1,0,46433.8,0.0147802,0.0144629,0.808671,24,0.00041247,10,1.16957e-05,-3.09223,0.114849,0.513719,16.1688,0.0144629,
2,1,0,1,0,46434.1,0.0222725,0.0219999,0.909284,24,0.00074139,10,2.00041e-05,-3.0413,0.166086,0.355237,12.6009,0.0219999,
2,1,0,1,0,46434.5,0.0297644,0.029492,1.00249,24,0.0011055,10,2.95655e-05,-2.99892,0.194209,0.303797,11.867,0.02949205,
2,1,0,1,0,46434.9,0.0372544,0.0369476,1.09425,24,0.00150394,10,4.04301e-05,-2.96088,0.20782,0.283899,12.1137,0.0369476,
2,1,0,1,0,46435.3,0.0447449,0.0444786,1.1861,24,0.00193724,10,5.27559e-05,-2.92588,0.20702,0.284997,13.1856,0.0444786,
2,1,0,1,0,46435.6,0.0522363,0.0519164,1.27334,24,0.00240452,10,6.61073e-05,-2.89505,0.238563,0.247315,12.2914,0.0519164,
2,1,0,1,0,46436,0.0597291,0.0594052,1.35652,24,0.00290363,10,8.05846e-05,-2.86757,0.302853,0.194814,10.3012,0.0594052,
2,1,0,1,0,46436.4,0.0672182,0.0668842,1.43062,24,0.00343129,10,9.56862e-05,-2.84447,0.352441,0.167404,9.3164,0.0668842,
2,1,0,1,0,46436.8,0.0747092,0.0743913,1.48815,24,0.00398368,10,0.000110705,-2.82735,0.515316,0.114493,6.63872,0.0743913,
2,1,0,1,0,46437.1,0.0822001,0.0819123,1.53527,24,0.00455684,10,0.000125758,-2.81381,0.583254,0.101157,6.07192,0.0819123,
2,1,0,1,0,46437.5,0.0896911,0.0893587,1.59498,24,0.00514847,10,0.000142526,-2.79724,0.372569,0.15836,9.84782,0.0893587,
2,1,0,1,0,46437.9,0.097182,0.0968537,1.6798,24,0.0057667,10,0.000162695,-2.77474,0.243508,0.242292,15.9042,0.0968537,
2,1,0,1,0,46438.2,0.104673,0.10436,1.81886,24,0.0064266,10,0.000189817,-2.7402,0.197142,0.299277,21.2235,0.10436,
2,1,0,1,0,46438.6,0.112164,0.111841,1.97045,24,0.00714284,10,0.000220378,-2.70543,0.239952,0.245882,18.8844,0.111841,
2,1,0,1,0,46439,0.119655,0.119365,2.08754,24,0.00791044,10,0.000249179,-2.68037,0.470084,0.125509,10.2197,0.1193649,
2,1,0,1,0,46439.4,0.127146,0.126804,2.14728,24,0.0087112,10,0.000272283,-2.66811,0.842335,0.0700434,5.87225,0.126804,
2,1,0,1,0,46439.7,0.134637,0.13431,2.17863,24,0.00952983,10,0.000292612,-2.66182,-3.99015,-0.0147864,-1.25672,0.13431,
2,1,0,1,0,46440.1,0.142128,0.141818,2.09034,24,0.0103419,10,0.000296448,-2.67978,-0.19554,-0.301729,-24.5123,0.141818,
2,1,0,1,0,46440.5,0.149619,0.149301,1.78657,24,0.0110796,10,0.000266737,-2.74798,-0.0822783,-0.717079,-49.8369,0.149301,
2,1,0,1,0,46440.9,0.157108,0.156836,1.43146,24,0.0116849,10,0.000224504,-2.84422,-0.0824373,-0.715696,-40.0473,0.156836,
2,1,0,1,0,46441.2,0.164601,0.164246,1.2085,24,0.0121807,10,0.000198491,-2.91775,-0.134728,-0.43792,-20.696,0.164246,
2,1,0,1,0,46441.6,0.172092,0.171757,1.09412,24,0.012616,10,0.000187923,-2.96093,-0.230691,-0.255753,-10.9678,0.171757,
2,1,0,1,0,46442,0.179582,0.179294,1.03706,24,0.0130201,10,0.000185938,-2.9842,-0.404442,-0.14588,-5.91749,0.179294,
2,1,0,1,0,46442.4,0.187073,0.186794,1.00259,24,0.0134075,10,0.000187278,-2.99888,-0.822572,-0.0717262,-2.80161,0.1867943,
2,1,0,1,0,46442.7,0.194564,0.194242,0.982753,24,0.0137847,10,0.000190892,-3.00756,-0.969799,-0.0608374,-2.32678,0.194242,
2,1,0,1,0,46443.1,0.202057,0.201748,0.965073,24,0.0141549,10,0.000194702,-3.01544,-0.82562,-0.0714615,-2.68936,0.201748,
2,1,0,1,0,46443.5,0.209546,0.209253,0.956149,24,0.0145201,10,0.000200077,-3.01947,-1.09341,-0.0539594,-2.0085,0.209253,
2,1,0,1,0,46443.9,0.217037,0.216733,0.941476,24,0.014881,10,0.000204049,-3.02619,-1.65818,-0.0355813,-1.31346,0.2167331,
2,1,0,1,0,46444.2,0.224528,0.224235,0.936798,24,0.0152389,10,0.000210063,-3.02835,-1.55294,-0.0379926,-1.38828,0.224235,
2,1,0,1,0,46444.6,0.232019,0.231721,0.930125,24,0.0155939,10,0.00021553,-3.03146,-2.59386,-0.022746,-0.825802,0.231721,
2,1,0,1,0,46445,0.23951,0.239192,0.922961,24,0.0159466,10,0.000220765,-3.03482,-5.58046,-0.0105726,-0.380546,0.2391921,
2,1,0,1,0,46445.4,0.247001,0.246687,0.91709,24,0.0162971,10,0.000226234,-3.03759,-2.61354,-0.0225748,-0.80688,0.2466868,
2,1,0,1,0,46445.7,0.254492,0.254195,0.912201,24,0.0166454,10,0.000231877,-3.03991,-3.25359,-0.0181338,-0.64555,0.254195,
2,1,0,1,0,46446.1,0.261983,0.261682,0.905331,24,0.0169916,10,0.000236909,-3.04319,-1.76915,-0.0333493,-1.17922,0.261682,
2,1,0,1,0,46446.5,0.269474,0.269112,0.899726,24,0.0173354,10,0.000242127,-3.04589,-2.83681,-0.020798,-0.73064,0.269112,
2,1,0,1,0,46446.9,0.276965,0.276653,0.893836,24,0.017677,10,0.000247282,-3.04874,-1.81954,-0.0324257,-1.13129,0.276653,
2,1,0,1,0,46447.2,0.284456,0.284188,0.885872,24,0.018016,10,0.000251754,-3.05263,-1.60671,-0.036721,-1.26867,0.2841883,
2,1,0,1,0,46447.6,0.291947,0.291639,0.878806,24,0.0183519,10,0.000256294,-3.05611,-2.19043,-0.0269353,-0.922893,0.291639,
2,1,0,1,0,46448,0.299436,0.299139,0.867391,24,0.018685,10,0.000259471,-3.06179,-0.00414249,-14.2426,-302.869,0.299139,
2,0,0,1,0,46448.3,0.293745,0.293469,-0.168417,24,0.0187148,10,-4.94251e-05,-3.77361,-0.0144121,-4.09378,24.3534,0.293469,
2,0,0,1,0,46448.7,0.286254,0.285944,-0.277993,24,0.0186224,10,-7.94904e-05,-3.55597,-0.0578649,-1.01962,11.0552,0.285944,
2,0,0,1,0,46449.1,0.278763,0.278488,-0.344558,24,0.0184989,10,-9.59553e-05,-3.46274,-0.109133,-0.540627,7.29761,0.2784878,
2,0,0,1,0,46449.5,0.271272,0.270937,-0.393793,24,0.0183541,10,-0.000106693,-3.40473,-0.149442,-0.394802,6.06526,0.270937,
2,0,0,1,0,46449.8,0.263781,0.263456,-0.433925,24,0.0181923,10,-0.00011432,-3.36258,-0.203299,-0.290213,4.93482,0.263456,
2,0,0,1,0,46450.2,0.25629,0.255963,-0.473534,24,0.0180163,10,-0.000121207,-3.32465,-0.257447,-0.229173,4.20795,0.255963,
2,0,0,1,0,46450.6,0.248799,0.248482,-0.503985,24,0.0178276,10,-0.000125231,-3.29758,-0.300825,-0.196127,3.85864,0.2484822,
2,0,0,1,0,46451,0.241308,0.241041,-0.531063,24,0.0176274,10,-0.000128008,-3.27485,-0.399406,-0.147719,3.07337,0.241041,
2,0,0,1,0,46451.3,0.233817,0.233486,-0.559842,24,0.0174166,10,-0.000130715,-3.25193,-0.438743,-0.134475,2.94157,0.233486,
2,0,0,1,0,46451.7,0.226326,0.226039,-0.58827,24,0.0171955,10,-0.000132972,-3.23042,-0.363947,-0.162111,3.7134,0.226039,
2,0,0,1,0,46452.1,0.218835,0.21855,-0.613291,24,0.0169645,10,-0.000134035,-3.21233,-0.417824,-0.141208,3.38086,0.21855,
2,0,0,1,0,46452.4,0.211344,0.21104,-0.638234,24,0.016724,10,-0.000134693,-3.19502,-0.543958,-0.108464,2.70497,0.21104,
2,0,0,1,0,46452.8,0.203855,0.20354,-0.664741,24,0.0164738,10,-0.000135302,-3.17735,-0.583416,-0.101129,2.62599,0.20354,
2,0,0,1,0,46453.2,0.196362,0.196063,-0.690119,24,0.0162139,10,-0.000135307,-3.16108,-0.433796,-0.136009,3.67386,0.196063,
2,0,0,1,0,46453.6,0.188871,0.188539,-0.717886,24,0.0159434,10,-0.00013535,-3.14394,-0.302024,-0.195349,5.48797,0.188539,
2,0,0,1,0,46453.9,0.18138,0.181059,-0.753306,24,0.0156614,10,-0.000136393,-3.12303,-0.354479,-0.166441,4.8915,0.1810585,
2,0,0,1,0,46454.3,0.173891,0.173613,-0.791802,24,0.0153665,10,-0.000137467,-3.10138,-0.305555,-0.193091,5.96376,0.173613,
2,0,0,1,0,46454.7,0.166398,0.166079,-0.838822,24,0.0150555,10,-0.000139311,-3.07633,-0.314302,-0.187717,6.16176,0.166079,
2,0,0,1,0,46455.1,0.158906,0.158589,-0.901182,24,0.0147234,10,-0.000142918,-3.04519,-0.20464,-0.288311,10.1962,0.158589,
2,0,0,1,0,46455.4,0.151417,0.151072,-1.00534,24,0.0143608,10,-0.000151879,-2.99769,-0.141917,-0.415737,16.3803,0.151072,
2,0,0,1,0,46455.8,0.143926,0.143626,-1.17964,24,0.0139481,10,-0.000169427,-2.92825,-0.0875454,-0.673936,31.0274,0.143626,
2,0,0,1,0,46456.2,0.136435,0.136118,-1.44198,24,0.0134532,10,-0.00019628,-2.84104,-0.0837609,-0.704386,39.6032,0.136118,
2,0,0,1,0,46456.6,0.128942,0.128622,-1.7414,24,0.0128503,10,-0.000223982,-2.7591,-0.106252,-0.555282,37.6475,0.128622,
2,0,0,1,0,46456.9,0.121453,0.121114,-1.9937,24,0.0121424,10,-0.000241464,-2.70034,-0.166357,-0.354658,27.532,0.121114,
2,0,0,1,0,46457.3,0.113962,0.113632,-2.14938,24,0.0113564,10,-0.000244239,-2.66769,-0.386865,-0.152508,12.779,0.113632,
2,0,0,1,0,46457.7,0.106471,0.106152,-2.19139,24,0.010533,10,-0.00023262,-2.65928,4.81451,0.0122546,-1.04846,0.106152,
2,0,0,1,0,46458.1,0.0989798,0.0986796,-2.1486,24,0.00971168,10,-0.000212023,-2.66784,0.662533,0.0890522,-7.47129,0.0986796,
2,0,0,1,0,46458.4,0.0914889,0.091194,-2.08835,24,0.00891222,10,-0.000190445,-2.6802,0.644911,0.0914855,-7.4421,0.091194,
2,0,0,1,0,46458.8,0.083998,0.0837161,-2.02769,24,0.00813636,10,-0.00016975,-2.693,0.615166,0.0959091,-7.5805,0.0837161,
2,0,0,1,0,46459.2,0.076507,0.0761851,-1.97564,24,0.00738074,10,-0.000150514,-2.70429,0.599901,0.0983495,-7.57346,0.0761851,
2,0,0,1,0,46459.6,0.069016,0.068699,-1.91952,24,0.00664484,10,-0.000131869,-2.71681,0.608667,0.0969332,-7.27103,0.068699,
2,0,0,1,0,46459.9,0.0615251,0.0612178,-1.86826,24,0.00592875,10,-0.000114371,-2.72856,0.617903,0.0954843,-6.96472,0.0612178,
2,0,0,1,0,46460.3,0.0540341,0.0537303,-1.81184,24,0.00523377,10,-9.73506e-05,-2.74188,0.622205,0.094824,-6.70007,0.0537303,
2,0,0,1,0,46460.7,0.0465432,0.046218,-1.74812,24,0.00456016,10,-8.07947e-05,-2.75743,0.494813,0.119237,-8.14661,0.046218,
2,0,0,1,0,46461.1,0.0390523,0.0387243,-1.6881,24,0.00391013,10,-6.53706e-05,-2.7726,0.39646,0.148817,-9.78146,0.0387243,
2,0,0,1,0,46461.4,0.0315626,0.0312062,-1.62024,24,0.00328509,10,-5.05614e-05,-2.79042,0.418967,0.140822,-8.89917,0.0312062,
2,0,0,1,0,46461.8,0.0240704,0.0237606,-1.55349,24,0.00268412,10,-3.69117e-05,-2.80869,0.452167,0.130483,-7.9333,0.0237606,
2,0,0,1,0,46462.2,0.0165785,0.0162511,-1.50475,24,0.00210475,10,-2.44538e-05,-2.82254,0.73975,0.0797566,-4.69053,0.0162511,
2,0,0,1,0,46462.6,0.00908846,0.00876961,-1.4715,24,0.00154181,10,-1.29045e-05,-2.83224,1.21204,0.0486782,-2.79323,0.00876961,
2,0,0,1,0,46462.9,0.0015984,0.00127358,-1.46992,24,0.000987771,10,-1.87206e-06,-2.83271, , , ,0.00127358,
2,0,0,1,0,46463,0.000199195,-0.000137683,-1.45588,24,0.000884157,10,2.00449e-07,-2.83688, , , ,-0.000137683,

File: 20221101_1-115_003_TrumpetPlot_ParaChange_from10_every3_05_CV_C01_24.csv
mode,ox/red,error,control changes,counter inc.,time/s,control/V,Ewe/V,<I>/mA,cycle number,(Q-Qo)/C,I Range,P/W,log(|I|),Tafel slope mV/dec,alpha_eff,dI/d(E-IR),E-IR/V,
2,0,0,1,0,48403.1,2.44065e-05,-0.000363498,-0.739242,25,0.0000000E+000,10,2.68713e-07,-3.13121, , , ,-0.000363498,
2,1,0,1,0,48403.5,0.00729063,0.00696628,0.651569,25,0.000125558,10,4.53902e-06,-3.18604,0.0424088,1.39122,34.5421,0.00696628,
2,1,0,1,0,48403.9,0.0147802,0.0144621,0.80665,25,0.000408447,10,1.16659e-05,-3.09331,0.117881,0.500504,15.7399,0.0144621,
2,1,0,1,0,48404.3,0.0222725,0.0219674,0.907631,25,0.000736202,10,1.99383e-05,-3.04209,0.164357,0.358975,12.7174,0.0219674,
2,1,0,1,0,48404.6,0.0297644,0.0294605,0.998575,25,0.00109909,10,2.94185e-05,-3.00062,0.199305,0.296029,11.5303,0.02946052,
2,1,0,1,0,48405,0.0372544,0.0369255,1.08856,25,0.00149598,10,4.01958e-05,-2.96315,0.208602,0.282835,12.0425,0.0369255,
2,1,0,1,0,48405.4,0.0447449,0.0444487,1.18246,25,0.00192757,10,5.25588e-05,-2.92721,0.231901,0.254419,11.7323,0.0444487,
2,1,0,1,0,48405.8,0.0522363,0.0519052,1.26876,25,0.00239285,10,6.58553e-05,-2.89662,0.24265,0.243149,12.0494,0.0519052,
2,1,0,1,0,48406.1,0.0597291,0.0593619,1.35184,25,0.00288985,10,8.02476e-05,-2.86908,0.276197,0.213615,11.2528,0.0593619,
2,1,0,1,0,48406.5,0.0672182,0.0669031,1.42406,25,0.00341542,10,9.52738e-05,-2.84647,0.367583,0.160508,8.89664,0.06690307,
2,1,0,1,0,48406.9,0.0747092,0.0744077,1.48122,25,0.00396532,10,0.000110214,-2.82938,0.530004,0.11132,6.43666,0.0744077,
2,1,0,1,0,48407.3,0.0822001,0.0818931,1.52971,25,0.00453591,10,0.000125272,-2.81539,0.585267,0.100809,6.03342,0.0818931,
2,1,0,1,0,48407.6,0.0896911,0.0893443,1.58639,25,0.00512499,10,0.000141735,-2.79959,0.427043,0.138159,8.56479,0.0893443,
2,1,0,1,0,48408,0.097182,0.0968302,1.67406,25,0.00574027,10,0.0001621,-2.77623,0.238281,0.247607,16.1597,0.0968302,
2,1,0,1,0,48408.4,0.104673,0.104321,1.81373,25,0.00639686,10,0.00018921,-2.74143,0.194386,0.303519,21.4231,0.104321,
2,1,0,1,0,48408.8,0.112164,0.111846,1.96285,25,0.0071094,10,0.000219536,-2.70711,0.237842,0.248064,18.963,0.111846,
2,1,0,1,0,48409.1,0.119655,0.119349,2.0789,25,0.00787341,10,0.000248114,-2.68217,0.47663,0.123786,10.0279,0.1193486,
2,1,0,1,0,48409.5,0.127146,0.126844,2.13768,25,0.00867071,10,0.000271152,-2.67006,0.772711,0.0763546,6.37821,0.126844,
2,1,0,1,0,48409.9,0.134637,0.134303,2.17113,25,0.00948557,10,0.000291589,-2.66331,-1.37615,-0.0428734,-3.61962,0.134303,
2,1,0,1,0,48410.3,0.142128,0.141804,2.07932,25,0.0102911,10,0.000294855,-2.68208,-0.192249,-0.306894,-24.8201,0.141804,
2,1,0,1,0,48410.6,0.149619,0.149347,1.77604,25,0.0110246,10,0.000265246,-2.75055,-0.0818322,-0.720988,-49.8372,0.149347,
2,1,0,1,0,48411,0.157108,0.156791,1.41779,25,0.0116248,10,0.000222298,-2.84839,-0.0802036,-0.735628,-40.7937,0.156791,
2,1,0,1,0,48411.4,0.164601,0.164275,1.20038,25,0.0121158,10,0.000197193,-2.92068,-0.132586,-0.444995,-20.8964,0.164275,
2,1,0,1,0,48411.7,0.172092,0.171741,1.08889,25,0.012548,10,0.000187007,-2.96302,-0.239914,-0.245921,-10.4913,0.171741,
2,1,0,1,0,48412.1,0.179582,0.179261,1.03443,25,0.0129505,10,0.000185434,-2.9853,-0.432946,-0.136276,-5.51788,0.179261,
2,1,0,1,0,48412.5,0.187073,0.186737,1.00487,25,0.013337,10,0.000187646,-2.99789,-0.887431,-0.0664841,-2.59932,0.186737,
2,1,0,1,0,48412.9,0.194564,0.194264,0.980316,25,0.0137139,10,0.00019044,-3.00863,-1.11095,-0.0531078,-2.03353,0.194264,
2,1,0,1,0,48413.2,0.202057,0.201721,0.965577,25,0.0140839,10,0.000194777,-3.01521,-1.03876,-0.0567986,-2.14009,0.201721,
2,1,0,1,0,48413.6,0.209546,0.209252,0.95565,25,0.0144491,10,0.000199972,-3.0197,-1.25833,-0.0468875,-1.74859,0.209252,
2,1,0,1,0,48414,0.217037,0.216713,0.943831,25,0.01481,10,0.00020454,-3.02511,-1.66171,-0.0355056,-1.31065,0.216713,
2,1,0,1,0,48414.4,0.224528,0.224192,0.936489,25,0.0151679,10,0.000209954,-3.0285,-2.1496,-0.027447,-1.00359,0.224192,
2,1,0,1,0,48414.7,0.232019,0.231698,0.931038,25,0.0155229,10,0.00021572,-3.03103,-1.86577,-0.0316223,-1.14728,0.231698,
2,1,0,1,0,48415.1,0.23951,0.239181,0.924338,25,0.0158757,10,0.000221085,-3.03417,-4.3816,-0.0134654,-0.486133,0.239181,
2,1,0,1,0,48415.5,0.247001,0.246698,0.919246,25,0.0162263,10,0.000226776,-3.03657,-1.65902,-0.0355632,-1.27423,0.246698,
2,1,0,1,0,48415.9,0.254492,0.254189,0.913031,25,0.0165746,10,0.000232082,-3.03951,-4.9702,-0.0118708,-0.422753,0.254189,
2,1,0,1,0,48416.2,0.261983,0.26171,0.907407,25,0.0169206,10,0.000237478,-3.0422,-2.87285,-0.0205371,-0.728592,0.26171,
2,1,0,1,0,48416.6,0.269474,0.269181,0.898998,25,0.0172644,10,0.000241994,-3.04624,5.29791,0.0111365,0.391021,0.269181,
2,1,0,1,0,48417,0.276965,0.276637,0.893644,25,0.0176057,10,0.000247215,-3.04884,-3.30671,-0.0178425,-0.622544,0.276637,
2,1,0,1,0,48417.4,0.284456,0.284129,0.885987,25,0.0179444,10,0.000251735,-3.05257,-2.01654,-0.029258,-1.01218,0.284129,
2,1,0,1,0,48417.7,0.291947,0.29163,0.879744,25,0.0182801,10,0.00025656,-3.05564,-1.15895,-0.050908,-1.74365,0.29163,
2,1,0,1,0,48418.1,0.299436,0.299162,0.869805,25,0.018613,10,0.000260213,-3.06058,-0.00427286,-13.8081,-299.298,0.299162,
2,0,0,1,0,48418.5,0.293745,0.293455,-0.169455,25,0.0186446,10,-4.97274e-05,-3.77095,-0.0146228,-4.0348,24.0909,0.293455,
2,0,0,1,0,48418.8,0.286254,0.285954,-0.278801,25,0.0185523,10,-7.97241e-05,-3.55471,-0.0646555,-0.912529,9.96309,0.285954,
2,0,0,1,0,48419.2,0.278763,0.278455,-0.345686,25,0.018429,10,-9.62578e-05,-3.46132,-0.106642,-0.553251,7.42697,0.278455,
2,0,0,1,0,48419.6,0.271272,0.270955,-0.395656,25,0.0182843,10,-0.000107205,-3.40268,-0.136159,-0.433315,6.68423,0.270955,
2,0,0,1,0,48420,0.263781,0.26349,-0.436883,25,0.0181228,10,-0.000115114,-3.35963,-0.189242,-0.31177,5.30844,0.26349,
2,0,0,1,0,48420.3,0.25629,0.255945,-0.473385,25,0.0179468,10,-0.000121161,-3.32479,-0.264999,-0.222642,4.09158,0.255945,
2,0,0,1,0,48420.7,0.248799,0.248464,-0.502155,25,0.0177583,10,-0.000124768,-3.29916,-0.296303,-0.19912,3.91774,0.248464,
2,0,0,1,0,48421.1,0.241308,0.24103,-0.532043,25,0.0175583,10,-0.000128239,-3.27405,-0.371508,-0.158812,3.30906,0.24103,
2,0,0,1,0,48421.5,0.233817,0.233499,-0.562371,25,0.0173478,10,-0.000131313,-3.24998,-0.325577,-0.181217,3.96548,0.233499,
2,0,0,1,0,48421.8,0.226326,0.226045,-0.58496,25,0.0171271,10,-0.000132227,-3.23287,-0.338416,-0.174342,3.99279,0.226045,
2,0,0,1,0,48422.2,0.218835,0.218541,-0.614128,25,0.0168963,10,-0.000134212,-3.21174,-0.375645,-0.157063,3.75697,0.2185415,
2,0,0,1,0,48422.6,0.211344,0.211003,-0.638563,25,0.0166562,10,-0.000134739,-3.1948,-0.611086,-0.0965493,2.41316,0.211003,
2,0,0,1,0,48423,0.203855,0.203559,-0.663756,25,0.0164064,10,-0.000135113,-3.17799,-0.540626,-0.109133,2.83805,0.203559,
2,0,0,1,0,48423.3,0.196362,0.196041,-0.689586,25,0.0161471,10,-0.000135187,-3.16141,-0.428028,-0.137842,3.71433,0.196041,
2,0,0,1,0,48423.7,0.188871,0.188563,-0.719107,25,0.0158771,10,-0.000135597,-3.14321,-0.329996,-0.17879,5.02006,0.188563,
2,0,0,1,0,48424.1,0.18138,0.181094,-0.75363,25,0.0155961,10,-0.000136478,-3.12284,-0.35345,-0.166926,4.90154,0.181094,
2,0,0,1,0,48424.5,0.173891,0.17357,-0.790823,25,0.0153021,10,-0.000137263,-3.10192,-0.300741,-0.196182,6.03682,0.17357,
2,0,0,1,0,48424.8,0.166398,0.166083,-0.839547,25,0.0149921,10,-0.000139435,-3.07596,-0.306774,-0.192324,6.27926,0.166083,
2,0,0,1,0,48425.2,0.158906,0.158606,-0.898959,25,0.0146616,10,-0.000142581,-3.04626,-0.203147,-0.290431,10.2393,0.158606,
2,0,0,1,0,48425.6,0.151417,0.151142,-0.996708,25,0.0143014,10,-0.000150644,-3.00143,-0.139408,-0.423219,16.5696,0.151142,
2,0,0,1,0,48426,0.143926,0.143613,-1.16782,25,0.0138923,10,-0.000167714,-2.93262,-0.08961,-0.658409,30.0541,0.143613,
2,0,0,1,0,48426.3,0.136435,0.136103,-1.42203,25,0.0134031,10,-0.000193543,-2.84709,-0.0832166,-0.708993,39.3529,0.136103,
2,0,0,1,0,48426.7,0.128942,0.128668,-1.72222,25,0.0128083,10,-0.000221595,-2.76391,-0.107159,-0.550583,36.8401,0.128668,
2,0,0,1,0,48427.1,0.121453,0.121121,-1.97406,25,0.0121094,10,-0.0002391,-2.70464,-0.160379,-0.367878,28.224,0.121121,
2,0,0,1,0,48427.4,0.113962,0.113624,-2.13064,25,0.0113314,10,-0.000242091,-2.67149,-0.367078,-0.160729,13.3595,0.113624,
2,0,0,1,0,48427.8,0.106471,0.106118,-2.17992,25,0.0105141,10,-0.000231329,-2.66156,-43.2943,-0.00136277,0.115933,0.106118,
2,0,0,1,0,48428.2,0.0989799,0.0986683,-2.14263,25,0.0096966,10,-0.000211409,-2.66905,0.683546,0.0863146,-7.21554,0.0986683,
2,0,0,1,0,48428.6,0.0914889,0.0911538,-2.08181,25,0.00890005,10,-0.000189765,-2.68156,0.623815,0.0945794,-7.67315,0.0911538,
2,0,0,1,0,48428.9,0.083998,0.083646,-2.02243,25,0.00812667,10,-0.000169168,-2.69413,0.531803,0.110943,-8.74943,0.083646,
2,0,0,1,0,48429.3,0.076507,0.0762094,-1.97147,25,0.00737325,10,-0.000150245,-2.70521,0.657536,0.0897289,-6.90212,0.0762094,
2,0,0,1,0,48429.7,0.069016,0.0686849,-1.91645,25,0.00663912,10,-0.000131631,-2.7175,0.596975,0.0988316,-7.39723,0.0686849,
2,0,0,1,0,48430.1,0.0615251,0.0612071,-1.86581,25,0.0059244,10,-0.000114201,-2.72913,0.602492,0.0979265,-7.13218,0.0612071,
2,0,0,1,0,48430.4,0.0540341,0.0537163,-1.80985,25,0.00523078,10,-9.72187e-05,-2.74236,0.560313,0.105298,-7.42542,0.0537163,
2,0,0,1,0,48430.8,0.0465432,0.0462201,-1.74768,25,0.00455855,10,-8.0778e-05,-2.75754,0.476245,0.123886,-8.45823,0.0462201,
2,0,0,1,0,48431.2,0.0390523,0.0387184,-1.68478,25,0.00390963,10,-6.52318e-05,-2.77346,0.396554,0.148782,-9.76708,0.0387184,
2,0,0,1,0,48431.6,0.0315626,0.03122,-1.61842,25,0.00328573,10,-5.0527e-05,-2.79091,0.405304,0.14557,-9.18136,0.03122,
2,0,0,1,0,48431.9,0.0240704,0.0237578,-1.55226,25,0.00268598,10,-3.68783e-05,-2.80903,0.436403,0.135196,-8.21603,0.0237578,
2,0,0,1,0,48432.3,0.0165785,0.0162189,-1.5036,25,0.00210784,10,-2.43867e-05,-2.82287,0.657958,0.0896714,-5.27103,0.0162189,
2,0,0,1,0,48432.7,0.00908845,0.00876978,-1.46864,25,0.00154583,10,-1.28796e-05,-2.83309,1.1157,0.0528814,-3.03213,0.00876978,
2,0,0,1,0,48433.1,0.0015984,0.00123796,-1.46833,25,0.000992774,10,-1.81773e-06,-2.83318, , , ,0.00123796,
2,0,0,1,0,48433.1,0.000199195,-0.000180014,-1.46011,25,0.000889278,10,2.6284e-07,-2.83561, , , ,-0.000180014,