Folder: Figs_alphaMnO2_OER_Tafel_sleope/Figure_codes/Fig_3-5/rawdata_trumpetplot_data/after 10th (part 86)

File: 20221101_1-115_003_TrumpetPlot_ParaChange_from10_every3_06_CV_C01_33.csv
mode,ox/red,error,control changes,counter inc.,time/s,control/V,Ewe/V,<I>/mA,cycle number,(Q-Qo)/C,I Range,P/W,log(|I|),Tafel slope mV/dec,alpha_eff,dI/d(E-IR),E-IR/V,
2,0,0,0,0,66164.3,2.44065e-05,-0.000287149,-1.40326,34,0.0000000E+000,10,4.02944e-07,-2.85286, , , ,-0.0002871489,
2,1,0,1,0,66164.5,0.00729063,0.00692837,0.954847,34,3.94227e-05,10,6.61553e-06,-3.02007,0.0182944,3.22502,112.493,0.00692837,
2,1,0,1,0,66164.7,0.014778,0.0144281,1.42954,34,0.000272819,10,2.06256e-05,-2.8448,0.0793934,0.743135,41.0997,0.0144281,
2,1,0,1,0,66164.9,0.0222743,0.0219029,1.65137,34,0.000566199,10,3.61698e-05,-2.78215,0.148095,0.398394,25.7028,0.02190288,
2,1,0,1,0,66165.1,0.0297626,0.0294562,1.8274,34,0.000894971,10,5.38283e-05,-2.73817,0.202165,0.291841,20.774,0.0294562,
2,1,0,1,0,66165.3,0.0372544,0.0369668,1.98568,34,0.0012546,10,7.34043e-05,-2.70209,0.231777,0.254555,19.6957,0.0369668,
2,1,0,1,0,66165.4,0.0447472,0.0444049,2.14086,34,0.00164376,10,9.50646e-05,-2.66941,0.246605,0.239249,19.9984,0.04440495,
2,1,0,1,0,66165.6,0.0522345,0.0519262,2.295,34,0.00206178,10,0.000119171,-2.63922,0.260103,0.226833,20.2961,0.0519262,
2,1,0,1,0,66165.8,0.0597308,0.0594347,2.44083,34,0.00250828,10,0.00014507,-2.61246,0.292511,0.201702,19.181,0.0594347,
2,1,0,1,0,66166,0.0672182,0.0668753,2.57015,34,0.00298017,10,0.000171879,-2.59004,0.353257,0.167017,16.7568,0.0668753,
2,1,0,1,0,66166.2,0.0747074,0.0743804,2.68825,34,0.00347533,10,0.000199953,-2.57053,0.468792,0.125855,13.1737,0.0743804,
2,1,0,1,0,66166.4,0.0822019,0.0818781,2.77987,34,0.00399074,10,0.000227611,-2.55598,0.571562,0.103226,11.2087,0.0818781,
2,1,0,1,0,66166.6,0.0896911,0.0893252,2.87287,34,0.00452282,10,0.000256619,-2.54168,0.502461,0.117422,13.1862,0.0893252,
2,1,0,1,0,66166.7,0.097182,0.096868,2.99233,34,0.00507441,10,0.000289861,-2.52399,0.322423,0.18299,21.3738,0.096868,
2,1,0,1,0,66166.9,0.104675,0.104347,3.18728,34,0.00565468,10,0.000332585,-2.49658,0.228928,0.257723,32.0851,0.104347,
2,1,0,1,0,66167.1,0.112162,0.111814,3.4384,34,0.00627716,10,0.000384461,-2.46364,0.232335,0.253943,34.0525,0.111814,
2,1,0,1,0,66167.3,0.119655,0.119316,3.67767,34,0.00694674,10,0.000438805,-2.43443,0.32445,0.181846,26.0345,0.119316,
2,1,0,1,0,66167.5,0.127146,0.126813,3.82409,34,0.00765336,10,0.000484944,-2.41747,0.592425,0.0995906,14.8827,0.126813,
2,1,0,1,0,66167.7,0.134635,0.13427,3.90766,34,0.00838133,10,0.000524681,-2.40808,1.32961,0.0443741,6.76807,0.13427,
2,1,0,1,0,66167.9,0.14213,0.141807,3.88889,34,0.00911746,10,0.000551471,-2.41017,-0.639134,-0.0923124,-13.9777,0.141807,
2,1,0,1,0,66168.1,0.149619,0.149313,3.61138,34,0.00982766,10,0.000539228,-2.44233,-0.14125,-0.4177,-58.7737,0.149313,
2,1,0,1,0,66168.2,0.157106,0.156767,3.08167,34,0.0104587,10,0.000483103,-2.51121,-0.0945527,-0.623991,-74.8892,0.156767,
2,1,0,1,0,66168.4,0.164602,0.164288,2.58098,34,0.0109893,10,0.000424023,-2.58822,-0.106769,-0.552593,-55.7565,0.164288,
2,1,0,1,0,66168.6,0.172091,0.171787,2.24355,34,0.0114416,10,0.000385413,-2.64907,-0.145235,-0.406238,-35.7431,0.171787,
2,1,0,1,0,66168.8,0.179582,0.179228,2.04372,34,0.0118444,10,0.000366291,-2.68958,-0.222514,-0.265152,-21.1436,0.179228,
2,1,0,1,0,66169,0.187074,0.186781,1.91564,34,0.0122167,10,0.000357805,-2.71769,-0.372316,-0.158468,-11.8627,0.186781,
2,1,0,1,0,66169.2,0.194563,0.19425,1.83701,34,0.0125699,10,0.000356838,-2.73589,-0.48631,-0.121322,-8.70046,0.19425,
2,1,0,1,0,66169.4,0.202059,0.201729,1.78604,34,0.0129114,10,0.000360296,-2.74811,-0.732814,-0.0805115,-5.59878,0.201729,
2,1,0,1,0,66169.6,0.209546,0.209245,1.75083,34,0.0132447,10,0.000366352,-2.75676,-0.731442,-0.0806625,-5.51549,0.209245,
2,1,0,1,0,66169.7,0.217035,0.216738,1.72209,34,0.0135722,10,0.000373242,-2.76394,-1.27775,-0.0461749,-3.10332,0.216738,
2,1,0,1,0,66169.9,0.22453,0.224233,1.70356,34,0.0138958,10,0.000381995,-2.76864,-1.88354,-0.0313241,-2.08082,0.2242334,
2,1,0,1,0,66170.1,0.232019,0.23171,1.68408,34,0.0142157,10,0.000390218,-2.77364,-2.19253,-0.0269095,-1.77309,0.23171,
2,1,0,1,0,66170.3,0.23951,0.239178,1.67692,34,0.014533,10,0.000401083,-2.77549,-2.28234,-0.0258507,-1.68692,0.239178,
2,1,0,1,0,66170.5,0.247003,0.246697,1.66431,34,0.0148481,10,0.000410581,-2.77877,-2.04976,-0.0287839,-1.86755,0.246697,
2,1,0,1,0,66170.7,0.25449,0.254196,1.65075,34,0.0151611,10,0.000419613,-2.78232,-2.44085,-0.0241719,-1.55976,0.2541959,
2,1,0,1,0,66170.9,0.261983,0.261628,1.64332,34,0.0154722,10,0.000429939,-2.78428,-4.08276,-0.014451,-0.92576,0.261628,
2,1,0,1,0,66171.1,0.269474,0.269151,1.63097,34,0.0157814,10,0.000438977,-2.78755,-12.3288,-0.00478556,-0.304955,0.269151,
2,1,0,1,0,66171.2,0.276963,0.276696,1.62025,34,0.0160885,10,0.000448316,-2.79042,-2.23562,-0.0263909,-1.6702,0.276696,
2,1,0,1,0,66171.4,0.284458,0.28413,1.61452,34,0.0163937,10,0.000458734,-2.79196,-3.92269,-0.0150407,-0.943384,0.28413,
2,1,0,1,0,66171.6,0.291947,0.291607,1.59556,34,0.0166963,10,0.000465277,-2.79709,-1.51978,-0.0388213,-2.41776,0.291607,
2,1,0,1,0,66171.8,0.299434,0.299159,1.58119,34,0.0169966,10,0.000473028,-2.80102,-0.0206388,-2.8587,-157.321,0.299159,
2,0,0,1,0,66172,0.294196,0.29388,-0.216432,34,0.0170609,10,-6.36053e-05,-3.66468,-0.00238072,-24.7825,86.8895,0.29388,
2,0,0,1,0,66172.2,0.286701,0.286409,-0.542162,34,0.0169803,10,-0.00015528,-3.26587,-0.0496504,-1.18831,25.1656,0.286409,
2,0,0,1,0,66172.3,0.279212,0.278898,-0.693283,34,0.0168602,10,-0.000193355,-3.15909,-0.10741,-0.549297,14.7651,0.278898,
2,0,0,1,0,66172.5,0.271725,0.271428,-0.788006,34,0.0167183,10,-0.000213887,-3.10347,-0.134642,-0.438199,13.4837,0.271428,
2,0,0,1,0,66172.7,0.264228,0.263949,-0.86415,34,0.01656,10,-0.000228092,-3.06341,-0.219117,-0.269262,9.09161,0.263949,
2,0,0,1,0,66172.9,0.256741,0.256446,-0.929394,34,0.0163891,10,-0.00023834,-3.0318,-0.269706,-0.218757,7.92132,0.2564463,
2,0,0,1,0,66173.1,0.249248,0.248967,-0.984429,34,0.016207,10,-0.00024509,-3.00682,-0.307444,-0.191905,7.37952,0.248967,
2,0,0,1,0,66173.3,0.241756,0.241463,-1.02912,34,0.0160148,10,-0.000248494,-2.98753,-0.40045,-0.147334,5.96334,0.241463,
2,0,0,1,0,66173.5,0.234268,0.233945,-1.08118,34,0.0158137,10,-0.000252938,-2.9661,-0.460088,-0.128236,5.4281,0.233945,
2,0,0,1,0,66173.7,0.226772,0.226486,-1.12521,34,0.0156035,10,-0.000254845,-2.94877,-0.393239,-0.150036,6.61175,0.226486,
2,0,0,1,0,66173.8,0.219285,0.218975,-1.17335,34,0.0153854,10,-0.000256933,-2.93057,-0.507525,-0.11625,5.31,0.218975,
2,0,0,1,0,66174,0.211796,0.211505,-1.21632,34,0.0151591,10,-0.000257258,-2.91495,-0.560285,-0.105303,4.97589,0.211505,
2,0,0,1,0,66174.2,0.204301,0.203979,-1.25901,34,0.0149243,10,-0.000256812,-2.89997,-0.713845,-0.082651,4.06746,0.203979,
2,0,0,1,0,66174.4,0.196812,0.196474,-1.30143,34,0.0146816,10,-0.000255697,-2.88558,-0.516712,-0.114184,5.79752,0.196474,
2,0,0,1,0,66174.6,0.189321,0.188984,-1.34814,34,0.0144303,10,-0.000254777,-2.87026,-0.464784,-0.126941,6.68539,0.188984,
2,0,0,1,0,66174.8,0.181828,0.181515,-1.39904,34,0.01417,10,-0.000253946,-2.85417,-0.415149,-0.142118,7.76971,0.181515,
2,0,0,1,0,66175,0.174341,0.174013,-1.4616,34,0.0138994,10,-0.000254338,-2.83517,-0.365222,-0.161545,9.19692,0.174013,
2,0,0,1,0,66175.1,0.166848,0.166512,-1.53242,34,0.0136166,10,-0.000255166,-2.81462,-0.341566,-0.172734,10.3222,0.166512,
2,0,0,1,0,66175.3,0.159357,0.159044,-1.62312,34,0.0133183,10,-0.000258147,-2.78965,-0.268954,-0.219369,13.9294,0.159044,
2,0,0,1,0,66175.5,0.151868,0.15155,-1.76543,34,0.0129989,10,-0.000267551,-2.75315,-0.184937,-0.319028,21.989,0.15155,
2,0,0,1,0,66175.7,0.144373,0.144104,-1.98375,34,0.0126462,10,-0.000285866,-2.70251,-0.120192,-0.490883,38.1233,0.144104,
2,0,0,1,0,66175.9,0.136884,0.136526,-2.33961,34,0.0122404,10,-0.000319418,-2.63086,-0.0960101,-0.614518,56.1492,0.136526,
2,0,0,1,0,66176.1,0.129393,0.129069,-2.79173,34,0.0117577,10,-0.000360325,-2.55413,-0.102582,-0.575149,62.4503,0.129069,
2,0,0,1,0,66176.3,0.1219,0.121553,-3.23137,34,0.0111895,10,-0.000392784,-2.49061,-0.138538,-0.425876,53.6838,0.121553,
2,0,0,1,0,66176.5,0.114413,0.1141,-3.59877,34,0.0105451,10,-0.000410619,-2.44385,-0.200524,-0.29423,41.2944,0.1140999,
2,0,0,1,0,66176.6,0.10692,0.106562,-3.83998,34,0.00984285,10,-0.000409198,-2.41567,-0.428827,-0.137584,20.58,0.106562,
2,0,0,1,0,66176.8,0.0994284,0.0990683,-3.91822,34,0.0091101,10,-0.000388171,-2.40691,-36.2194,-0.00162896,0.249179,0.0990683,
2,0,0,1,0,66177,0.0919401,0.0916277,-3.86886,34,0.00837685,10,-0.000354495,-2.41242,0.727565,0.0810924,-12.2193,0.09162765,
2,0,0,1,0,66177.2,0.0844447,0.0840892,-3.7618,34,0.00765905,10,-0.000316327,-2.4246,0.680098,0.0867522,-12.7325,0.08408919,
2,0,0,1,0,66177.4,0.0769565,0.0766567,-3.66918,34,0.00696072,10,-0.000281267,-2.43543,0.736334,0.0801267,-11.4906,0.0766567,
2,0,0,1,0,66177.6,0.0694682,0.0691188,-3.60137,34,0.00627706,10,-0.000248922,-2.44353,0.820345,0.071921,-10.0927,0.0691188,
2,0,0,1,0,66177.8,0.0619728,0.0616509,-3.52139,34,0.00560629,10,-0.000217096,-2.45329,0.713984,0.0826349,-11.373,0.06165085,
2,0,0,1,0,66178,0.0544836,0.0541504,-3.4363,34,0.00495149,10,-0.000186077,-2.46391,0.742261,0.0794869,-10.6631,0.0541504,
2,0,0,1,0,66178.1,0.0469927,0.0466598,-3.34313,34,0.00431326,10,-0.00015599,-2.47585,0.578937,0.101911,-13.2806,0.0466598,
2,0,0,1,0,66178.3,0.0394999,0.0391997,-3.23465,34,0.00369383,10,-0.000126797,-2.49017,0.490078,0.120389,-15.2062,0.03919974,
2,0,0,1,0,66178.5,0.0320125,0.0316826,-3.1191,34,0.00309557,10,-9.8821e-05,-2.50597,0.396697,0.148728,-18.1129,0.03168257,
2,0,0,1,0,66178.7,0.0245198,0.0242081,-3.00224,34,0.00251921,10,-7.26783e-05,-2.52256,0.423195,0.139416,-16.3356,0.0242081,
2,0,0,1,0,66178.9,0.0170289,0.0167386,-2.88904,34,0.00196431,10,-4.83584e-05,-2.53925,0.534901,0.110301,-12.4781,0.0167386,
2,0,0,1,0,66179.1,0.0095397,0.00917863,-2.81325,34,0.00142753,10,-2.58218e-05,-2.55079,0.763684,0.0772571,-8.47023,0.00917863,
2,0,0,1,0,66179.3,0.00204518,0.00170168,-2.78591,34,0.000903256,10,-4.74074e-06,-2.55503,2.06604,0.028557,-3.07248,0.00170168,
2,0,0,1,0,66179.3,0.000177222,-0.000211945,-2.75077,34,0.000773191,10,5.83012e-07,-2.56055, , , ,-0.000211945,

File: 20221101_1-115_003_TrumpetPlot_ParaChange_from10_every3_06_CV_C01_34.csv
mode,ox/red,error,control changes,counter inc.,time/s,control/V,Ewe/V,<I>/mA,cycle number,(Q-Qo)/C,I Range,P/W,log(|I|),Tafel slope mV/dec,alpha_eff,dI/d(E-IR),E-IR/V,
2,0,0,0,0,68134.5,2.44065e-05,-0.000382585,-1.41216,35,0.0000000E+000,10,5.40273e-07,-2.85011, , , ,-0.000382585,
2,1,0,1,0,68134.6,0.00729063,0.00694405,1.00579,35,5.09349e-05,10,6.98425e-06,-2.99749,0.020491,2.87931,106.928,0.00694405,
2,1,0,1,0,68134.8,0.014778,0.0144662,1.4548,35,0.000291545,10,2.10453e-05,-2.8372,0.0870772,0.677559,38.154,0.0144662,
2,1,0,1,0,68135,0.0222743,0.0219571,1.66464,35,0.000588104,10,3.65506e-05,-2.77868,0.162392,0.363319,23.5683,0.0219571,
2,1,0,1,0,68135.2,0.0297626,0.029456,1.82869,35,0.000918341,10,5.38659e-05,-2.73786,0.204464,0.288559,20.5903,0.029456,
2,1,0,1,0,68135.4,0.0372544,0.0369212,1.98835,35,0.00127883,10,7.34125e-05,-2.70151,0.228389,0.258331,20.023,0.0369212,
2,1,0,1,0,68135.6,0.0447472,0.0444153,2.13713,35,0.0016686,10,9.49212e-05,-2.67017,0.24171,0.244094,20.4468,0.0444153,
2,1,0,1,0,68135.8,0.0522345,0.0519172,2.29571,35,0.00208724,10,0.000119187,-2.63908,0.252719,0.233461,20.9239,0.0519172,
2,1,0,1,0,68135.9,0.0597308,0.0594175,2.44274,35,0.00253454,10,0.000145142,-2.61212,0.277628,0.212514,20.2347,0.0594175,
2,1,0,1,0,68136.1,0.0672182,0.0668946,2.57262,35,0.00300726,10,0.000172095,-2.58962,0.333352,0.17699,17.7692,0.0668946,
2,1,0,1,0,68136.3,0.0747074,0.074393,2.69008,35,0.00350304,10,0.000200123,-2.57023,0.438916,0.134422,14.0931,0.074393,
2,1,0,1,0,68136.5,0.0822019,0.0818911,2.78571,35,0.00401921,10,0.000228124,-2.55506,0.567832,0.103904,11.2908,0.0818911,
2,1,0,1,0,68136.7,0.0896911,0.0893629,2.87031,35,0.00455172,10,0.000256499,-2.54207,0.526002,0.112167,12.5969,0.0893629,
2,1,0,1,0,68136.9,0.097182,0.0968656,3.00078,35,0.00510401,10,0.000290672,-2.52277,0.314892,0.187366,21.9015,0.0968656,
2,1,0,1,0,68137.1,0.104675,0.104355,3.1957,35,0.00568595,10,0.000333486,-2.49543,0.236761,0.249197,31.1074,0.104355,
2,1,0,1,0,68137.3,0.112162,0.111864,3.45341,35,0.00631123,10,0.000386312,-2.46175,0.240335,0.245491,33.1127,0.111864,
2,1,0,1,0,68137.4,0.119655,0.119348,3.69731,35,0.00698476,10,0.000441267,-2.43211,0.347939,0.16957,24.394,0.119348,
2,1,0,1,0,68137.6,0.127146,0.12679,3.83403,35,0.00769474,10,0.000486115,-2.41634,0.615374,0.0958766,14.3676,0.12679,
2,1,0,1,0,68137.8,0.134635,0.134286,3.90812,35,0.00842432,10,0.000524805,-2.40803,2.45191,0.0240628,3.67185,0.134286,
2,1,0,1,0,68138,0.14213,0.141802,3.87105,35,0.00915924,10,0.000548923,-2.41217,-0.437775,-0.134772,-20.2928,0.141802,
2,1,0,1,0,68138.2,0.149619,0.149332,3.55212,35,0.00986238,10,0.000530443,-2.44951,-0.13114,-0.449901,-62.2604,0.1493315,
2,1,0,1,0,68138.4,0.157106,0.156773,3.00089,35,0.01048,10,0.000470458,-2.52275,-0.0901331,-0.654588,-76.5229,0.156773,
2,1,0,1,0,68138.6,0.164602,0.164258,2.50682,35,0.0109954,10,0.000411765,-2.60088,-0.106466,-0.554168,-54.2099,0.164258,
2,1,0,1,0,68138.8,0.172091,0.171813,2.18165,35,0.0114347,10,0.000374837,-2.66121,-0.160649,-0.36726,-31.472,0.171813,
2,1,0,1,0,68138.9,0.179582,0.179254,1.99674,35,0.0118277,10,0.000357924,-2.69968,-0.234355,-0.251755,-19.6249,0.179254,
2,1,0,1,0,68139.1,0.187074,0.18676,1.8843,35,0.0121931,10,0.000351912,-2.72485,-0.390453,-0.151106,-11.1079,0.18676,
2,1,0,1,0,68139.3,0.194563,0.194247,1.8133,35,0.0125417,10,0.000352228,-2.74153,-0.667961,-0.0883285,-6.2668,0.194247,
2,1,0,1,0,68139.5,0.202059,0.201767,1.77229,35,0.0128802,10,0.00035759,-2.75147,-0.753423,-0.0783092,-5.40315,0.201767,
2,1,0,1,0,68139.7,0.209546,0.209218,1.73934,35,0.0132114,10,0.000363901,-2.75961,-1.02432,-0.0575994,-3.91568,0.209218,
2,1,0,1,0,68139.9,0.217035,0.216737,1.71135,35,0.0135375,10,0.000370914,-2.76666,-1.58088,-0.037321,-2.50213,0.216737,
2,1,0,1,0,68140.1,0.22453,0.224214,1.69613,35,0.01386,10,0.000380298,-2.77054,-2.62849,-0.0224464,-1.48487,0.224214,
2,1,0,1,0,68140.3,0.232019,0.231672,1.6796,35,0.014179,10,0.000389117,-2.77479,-2.14306,-0.0275308,-1.80782,0.231672,
2,1,0,1,0,68140.4,0.23951,0.239163,1.67066,35,0.0144959,10,0.000399559,-2.77711,-3.3296,-0.0177199,-1.1557,0.239163,
2,1,0,1,0,68140.6,0.247003,0.246692,1.65951,35,0.0148105,10,0.000409388,-2.78002,-1.33766,-0.0441068,-2.85045,0.246692,
2,1,0,1,0,68140.8,0.25449,0.254178,1.6457,35,0.0151229,10,0.0004183,-2.78365,-1.89797,-0.0310858,-2.00162,0.254178,
2,1,0,1,0,68141,0.261983,0.261667,1.63613,35,0.0154335,10,0.000428121,-2.78618,-1.61337,-0.0365694,-2.34156,0.261667,
2,1,0,1,0,68141.2,0.269474,0.269132,1.62798,35,0.0157422,10,0.000438142,-2.78835,-12.6625,-0.00465943,-0.295825,0.269132,
2,1,0,1,0,68141.4,0.276963,0.276636,1.6161,35,0.0160488,10,0.000447071,-2.79153,-2.03388,-0.0290087,-1.83306,0.276636,
2,1,0,1,0,68141.6,0.284458,0.284153,1.60867,35,0.0163535,10,0.000457109,-2.79353,-3.63351,-0.0162377,-1.01629,0.2841534,
2,1,0,1,0,68141.7,0.291947,0.291636,1.59124,35,0.0166556,10,0.000464064,-2.79826,-1.74299,-0.0338499,-2.10249,0.291636,
2,1,0,1,0,68141.9,0.299434,0.299151,1.57636,35,0.0169553,10,0.000471571,-2.80234,-0.0191159,-3.08643,-167.758,0.299151,
2,0,0,1,0,68142.1,0.294196,0.293908,-0.243575,35,0.0170143,10,-7.15889e-05,-3.61337,-0.00354664,-16.6354,83.9713,0.293908,
2,0,0,1,0,68142.3,0.286701,0.286399,-0.54808,35,0.0169308,10,-0.00015697,-3.26116,-0.0509427,-1.15816,24.9546,0.2863991,
2,0,0,1,0,68142.5,0.279212,0.278945,-0.692432,35,0.0168096,10,-0.00019315,-3.15962,-0.112581,-0.524069,14.1867,0.278945,
2,0,0,1,0,68142.7,0.271725,0.271402,-0.791009,35,0.0166671,10,-0.000214681,-3.10182,-0.139522,-0.422872,12.9547,0.271402,
2,0,0,1,0,68142.8,0.264228,0.263892,-0.864022,35,0.0165087,10,-0.000228009,-3.06348,-0.219729,-0.268513,9.05403,0.263892,
2,0,0,1,0,68143,0.256741,0.256431,-0.928311,35,0.0163377,10,-0.000238048,-3.03231,-0.287275,-0.205378,7.42165,0.2564308,
2,0,0,1,0,68143.2,0.249248,0.248949,-0.987031,35,0.0161556,10,-0.00024572,-3.00567,-0.359795,-0.163982,6.27005,0.248949,
2,0,0,1,0,68143.4,0.241756,0.241439,-1.02936,35,0.0159635,10,-0.000248529,-2.98743,-0.385233,-0.153154,6.17829,0.241439,
2,0,0,1,0,68143.6,0.234268,0.233981,-1.0806,35,0.0157624,10,-0.000252841,-2.96633,-0.473273,-0.124664,5.26673,0.233981,
2,0,0,1,0,68143.8,0.226772,0.226451,-1.12664,35,0.0155524,10,-0.000255129,-2.94821,-0.43333,-0.136155,5.96377,0.226451,
2,0,0,1,0,68144,0.219284,0.218958,-1.16934,35,0.0153344,10,-0.000256036,-2.93206,-0.381197,-0.154776,7.07274,0.218958,
2,0,0,1,0,68144.2,0.211796,0.21147,-1.21492,35,0.0151082,10,-0.00025692,-2.91545,-0.590302,-0.0999488,4.71767,0.21147,
2,0,0,1,0,68144.3,0.204301,0.203973,-1.2585,35,0.0148736,10,-0.0002567,-2.90015,-0.703709,-0.0838415,4.10611,0.2039732,
2,0,0,1,0,68144.5,0.196812,0.196485,-1.29528,35,0.0146312,10,-0.000254504,-2.88764,-0.487242,-0.12109,6.16139,0.196485,
2,0,0,1,0,68144.7,0.189321,0.188985,-1.34772,35,0.01438,10,-0.0002547,-2.8704,-0.484095,-0.121877,6.40385,0.188985,
2,0,0,1,0,68144.9,0.181828,0.181504,-1.39995,35,0.0141197,10,-0.000254096,-2.85389,-0.368165,-0.160254,8.73355,0.181504,
2,0,0,1,0,68145.1,0.174341,0.174014,-1.45625,35,0.0138491,10,-0.000253409,-2.83676,-0.386053,-0.152829,8.70885,0.174014,
2,0,0,1,0,68145.3,0.166848,0.166508,-1.53302,35,0.0135661,10,-0.000255261,-2.81445,-0.341796,-0.172618,10.2966,0.166508,
2,0,0,1,0,68145.5,0.159357,0.15899,-1.62827,35,0.0132675,10,-0.000258879,-2.78827,-0.26947,-0.218948,13.9006,0.15899,
2,0,0,1,0,68145.7,0.151868,0.151556,-1.7621,35,0.0129474,10,-0.000267056,-2.75397,-0.18176,-0.324604,22.4498,0.151556,
2,0,0,1,0,68145.8,0.144373,0.144071,-1.99422,35,0.0125935,10,-0.000287309,-2.70023,-0.114328,-0.516061,40.2232,0.144071,
2,0,0,1,0,68146,0.136884,0.136583,-2.35577,35,0.0121846,10,-0.00032176,-2.62787,-0.0937644,-0.629237,57.9899,0.1365834,
2,0,0,1,0,68146.2,0.129393,0.129089,-2.81747,35,0.0116972,10,-0.000363705,-2.55014,-0.101817,-0.579473,63.5879,0.129089,
2,0,0,1,0,68146.4,0.1219,0.121605,-3.26351,35,0.0111237,10,-0.000396859,-2.48631,-0.13986,-0.42185,53.5905,0.121605,
2,0,0,1,0,68146.6,0.114413,0.114097,-3.62535,35,0.010474,10,-0.000413643,-2.44065,-0.209576,-0.28152,39.8311,0.114097,
2,0,0,1,0,68146.8,0.10692,0.106626,-3.85392,35,0.00976745,10,-0.000410929,-2.4141,-0.451906,-0.130558,19.6154,0.106626,
2,0,0,1,0,68147,0.0994284,0.0991199,-3.91954,35,0.00903359,10,-0.000388505,-2.40676,6.3823,0.00924432,-1.41059,0.0991199,
2,0,0,1,0,68147.2,0.0919401,0.0916011,-3.84491,35,0.00830252,10,-0.000352198,-2.41511,0.664861,0.0887403,-13.3286,0.0916011,
2,0,0,1,0,68147.3,0.0844447,0.084125,-3.73968,35,0.00758857,10,-0.000314601,-2.42717,0.682783,0.0864111,-12.5995,0.084125,
2,0,0,1,0,68147.5,0.0769565,0.0766099,-3.64917,35,0.00689427,10,-0.000279563,-2.43781,0.761749,0.0774533,-11.0315,0.0766099,
2,0,0,1,0,68147.7,0.0694682,0.0691578,-3.57361,35,0.0062145,10,-0.000247143,-2.44689,0.788817,0.0747955,-10.4524,0.0691578,
2,0,0,1,0,68147.9,0.0619728,0.0616612,-3.50493,35,0.00554763,10,-0.000216118,-2.45532,0.703627,0.0838513,-11.4462,0.0616612,
2,0,0,1,0,68148.1,0.0544836,0.0541662,-3.41143,35,0.00489709,10,-0.000184784,-2.46706,0.672256,0.0877642,-11.6824,0.0541662,
2,0,0,1,0,68148.3,0.0469927,0.0466641,-3.31917,35,0.0042634,10,-0.000154886,-2.47897,0.543834,0.108489,-14.0414,0.04666413,
2,0,0,1,0,68148.5,0.0394999,0.0391899,-3.21387,35,0.00364889,10,-0.000125951,-2.49297,0.502554,0.1174,-14.6771,0.0391899,
2,0,0,1,0,68148.6,0.0320125,0.0316964,-3.08772,35,0.00305594,10,-9.78694e-05,-2.51036,0.431163,0.136839,-16.5136,0.0316964,
2,0,0,1,0,68148.8,0.0245198,0.0241716,-2.96763,35,0.00248508,10,-7.17324e-05,-2.52759,0.431151,0.136843,-15.8613,0.0241716,
2,0,0,1,0,68149,0.0170289,0.0166704,-2.86912,35,0.00193525,10,-4.78294e-05,-2.54225,0.56095,0.105179,-11.7585,0.0166704,
2,0,0,1,0,68149.2,0.0095397,0.00924492,-2.78893,35,0.00140281,10,-2.57834e-05,-2.55456,1.00091,0.0589462,-6.42018,0.00924492,
2,0,0,1,0,68149.4,0.00204518,0.00164101,-2.76975,35,0.000881884,10,-4.54519e-06,-2.55756,23.8818,0.00247051,-0.264479,0.00164101,
2,0,0,1,0,68149.4,0.000177222,-0.000214999,-2.74257,35,0.000752497,10,5.8965e-07,-2.56184, , , ,-0.000214999,