Folder: Figs_alphaMnO2_OER_Tafel_sleope/Figure_codes/Fig_3-5/rawdata_trumpetplot_data/after 10th (part 52)

File: 20221101_1-115_003_TrumpetPlot_ParaChange_from10_every3_04_CV_C01_33.csv
mode,ox/red,error,control changes,counter inc.,time/s,control/V,Ewe/V,<I>/mA,cycle number,(Q-Qo)/C,I Range,P/W,log(|I|),Tafel slope mV/dec,alpha_eff,dI/d(E-IR),E-IR/V,
2,0,0,1,0,66074.3,2.44065e-05,-0.000401673,-0.385608,34,0.0000000E+000,10,1.54888e-07,-3.41385, , , ,-0.000401673,
2,1,0,1,0,66075,0.00729063,0.00695861,0.343587,34,0.000161087,10,2.39089e-06,-3.46396,0.0535603,1.10156,14.5611,0.006958609,
2,1,0,1,0,66075.8,0.0147814,0.014431,0.418908,34,0.000459406,10,6.04529e-06,-3.37788,0.115829,0.509372,8.31156,0.014431,
2,1,0,1,0,66076.5,0.0222725,0.0219485,0.46895,34,0.000802164,10,1.02928e-05,-3.32887,0.162361,0.363387,6.63813,0.0219485,
2,1,0,1,0,66077.3,0.0297635,0.0294233,0.517542,34,0.0011816,10,1.52278e-05,-3.28605,0.186515,0.316328,6.37971,0.02942328,
2,1,0,1,0,66078,0.0372544,0.0368949,0.563875,34,0.00159689,10,2.08041e-05,-3.24882,0.210788,0.279902,6.1693,0.0368949,
2,1,0,1,0,66078.8,0.0447458,0.0444148,0.612152,34,0.00204807,10,2.71886e-05,-3.21314,0.225799,0.261295,6.24192,0.0444148,
2,1,0,1,0,66079.5,0.0522363,0.0518806,0.657625,34,0.00253402,10,3.4118e-05,-3.18202,0.247045,0.238823,6.11655,0.0518806,
2,1,0,1,0,66080.3,0.0597282,0.0594072,0.697569,34,0.00305159,10,4.14406e-05,-3.15641,0.303073,0.194672,5.28481,0.0594072,
2,1,0,1,0,66081,0.0672182,0.0668631,0.733157,34,0.00359706,10,4.90211e-05,-3.1348,0.414201,0.142443,4.06369,0.06686309,
2,1,0,1,0,66081.8,0.0747092,0.0743782,0.761346,34,0.0041667,10,5.66276e-05,-3.11842,0.56819,0.103838,3.08054,0.0743782,
2,1,0,1,0,66082.5,0.0822001,0.081871,0.784752,34,0.00475689,10,6.42485e-05,-3.10527,0.65661,0.0898555,2.76297,0.081871,
2,1,0,1,0,66083.3,0.0896911,0.0893522,0.817461,34,0.00536747,10,7.30419e-05,-3.08753,0.386628,0.152602,4.88149,0.08935219,
2,1,0,1,0,66084,0.097182,0.096827,0.867374,34,0.00600848,10,8.39853e-05,-3.06179,0.211102,0.279486,9.48604,0.096827,
2,1,0,1,0,66084.8,0.104673,0.104395,0.944411,34,0.0066963,10,9.85919e-05,-3.02484,0.191206,0.308568,11.3327,0.104395,
2,1,0,1,0,66085.5,0.112164,0.111801,1.01669,34,0.00744137,10,0.000113667,-2.99281,0.268998,0.219333,8.68256,0.111801,
2,1,0,1,0,66086.3,0.119655,0.119309,1.06941,34,0.00823448,10,0.00012759,-2.97085,0.578818,0.101932,4.24969,0.119309,
2,1,0,1,0,66087,0.127146,0.126835,1.09009,34,0.00905514,10,0.000138262,-2.96254,1.15007,0.0513011,2.18686,0.126835,
2,1,0,1,0,66087.8,0.134637,0.134294,1.08986,34,0.00988631,10,0.000146363,-2.96263,-0.590589,-0.0999002,-4.24405,0.134294,
2,1,0,1,0,66088.5,0.142127,0.141819,1.00298,34,0.0106878,10,0.000142241,-2.99871,-0.123148,-0.479099,-18.6777,0.141819,
2,1,0,1,0,66089.3,0.149619,0.149269,0.826197,34,0.0113859,10,0.000123326,-3.08292,-0.0773566,-0.762701,-24.5901,0.1492694,
2,1,0,1,0,66090,0.157109,0.156782,0.673681,34,0.0119523,10,0.000105621,-3.17155,-0.105469,-0.559405,-14.755,0.156782,
2,1,0,1,0,66090.8,0.164601,0.164318,0.597947,34,0.0124347,10,9.82532e-05,-3.22334,-0.207229,-0.284709,-6.64982,0.164318,
2,1,0,1,0,66091.5,0.172091,0.171751,0.560032,34,0.0128771,10,9.6186e-05,-3.25179,-0.41002,-0.143896,-3.16031,0.171751,
2,1,0,1,0,66092.3,0.179582,0.179236,0.544091,34,0.0132998,10,9.75209e-05,-3.26433,-0.997921,-0.0591229,-1.25806,0.1792365,
2,1,0,1,0,66093,0.187074,0.186769,0.534673,34,0.0137121,10,9.98601e-05,-3.27191,-2.5465,-0.0231691,-0.481378,0.186769,
2,1,0,1,0,66093.8,0.194564,0.194252,0.527719,34,0.0141183,10,0.00010251,-3.2776,-1.70484,-0.0346074,-0.712063,0.194252,
2,1,0,1,0,66094.5,0.202056,0.201757,0.521791,34,0.0145201,10,0.000105275,-3.2825,-1.16999,-0.0504278,-1.02384,0.201757,
2,1,0,1,0,66095.3,0.209546,0.209239,0.517672,34,0.0149186,10,0.000108317,-3.28595,-0.961633,-0.061354,-1.2389,0.209239,
2,1,0,1,0,66096,0.217038,0.216717,0.514219,34,0.015314,10,0.00011144,-3.28885,-2.83442,-0.0208155,-0.418105,0.216717,
2,1,0,1,0,66096.8,0.224528,0.224186,0.511467,34,0.0157072,10,0.000114664,-3.29118,-3.24435,-0.0181854,-0.361951,0.224186,
2,1,0,1,0,66097.5,0.232019,0.231706,0.508657,34,0.0160981,10,0.000117859,-3.29358,-15.7793,-0.00373907,-0.0740445,0.231706,
2,1,0,1,0,66098.3,0.23951,0.239208,0.505248,34,0.0164871,10,0.000120859,-3.2965,-3.15521,-0.0186992,-0.368593,0.239208,
2,1,0,1,0,66099,0.247001,0.24667,0.504424,34,0.0168738,10,0.000124426,-3.2972,-1.0944,-0.0539106,-1.05709,0.24667,
2,1,0,1,0,66099.8,0.254492,0.254161,0.499515,34,0.0172584,10,0.000126957,-3.30145,-3.104,-0.0190077,-0.370999,0.254161,
2,1,0,1,0,66100.5,0.261983,0.261709,0.496485,34,0.0176407,10,0.000129934,-3.30409,-2.42411,-0.0243389,-0.471325,0.261709,
2,1,0,1,0,66101.3,0.269474,0.269152,0.492587,34,0.0180206,10,0.00013258,-3.30752,-326.038,-0.000180961,-0.00347699,0.269152,
2,1,0,1,0,66102,0.276965,0.276637,0.48956,34,0.018398,10,0.00013543,-3.31019,-2.65818,-0.0221956,-0.42488,0.276637,
2,1,0,1,0,66102.8,0.284456,0.284154,0.486397,34,0.0187727,10,0.000138212,-3.31301,-1.92173,-0.0307015,-0.582054,0.284154,
2,1,0,1,0,66103.5,0.291947,0.291645,0.481017,34,0.0191442,10,0.000140286,-3.31784,-1.11309,-0.0530055,-0.998084,0.291645,
2,1,0,1,0,66104.3,0.299437,0.299133,0.478962,34,0.0195129,10,0.000143273,-3.3197,-0.00343232,-17.1895,-183.368,0.299133,
2,0,0,1,0,66104.9,0.293745,0.293422,-0.0698922,34,0.0195452,10,-2.05079e-05,-4.15557,-0.0128004,-4.60923,11.3757,0.293422,
2,0,0,1,0,66105.7,0.286253,0.285937,-0.125909,34,0.0194604,10,-3.60021e-05,-3.89994,-0.0501991,-1.17532,5.78023,0.285937,
2,0,0,1,0,66106.4,0.278763,0.278444,-0.162653,34,0.0193422,10,-4.52896e-05,-3.78874,-0.0924742,-0.638016,4.03458,0.278444,
2,0,0,1,0,66107.2,0.271272,0.270946,-0.189837,34,0.0192001,10,-5.14356e-05,-3.72162,-0.111999,-0.52679,3.91692,0.270946,
2,0,0,1,0,66107.9,0.263781,0.263496,-0.214622,34,0.0190383,10,-5.65521e-05,-3.66833,-0.150031,-0.393252,3.29417,0.2634964,
2,0,0,1,0,66108.7,0.25629,0.255971,-0.236329,34,0.0188597,10,-6.04934e-05,-3.62648,-0.227758,-0.259047,2.37637,0.255971,
2,0,0,1,0,66109.4,0.248799,0.248467,-0.254751,34,0.0186666,10,-6.32972e-05,-3.59388,-0.246038,-0.239801,2.38357,0.248467,
2,0,0,1,0,66110.2,0.241308,0.24102,-0.269621,34,0.0184605,10,-6.49841e-05,-3.56925,-0.286144,-0.20619,2.18765,0.24102,
2,0,0,1,0,66110.9,0.233817,0.233523,-0.286582,34,0.0182426,10,-6.69234e-05,-3.54275,-0.278286,-0.212012,2.37109,0.233523,
2,0,0,1,0,66111.7,0.226326,0.226039,-0.300062,34,0.0180132,10,-6.78256e-05,-3.52279,-0.360892,-0.163484,1.91744,0.226039,
2,0,0,1,0,66112.4,0.218835,0.218497,-0.317824,34,0.0177725,10,-6.94436e-05,-3.49781,-0.293999,-0.200681,2.4779,0.218497,
2,0,0,1,0,66113.2,0.211344,0.211006,-0.329611,34,0.0175209,10,-6.955e-05,-3.482,-0.37868,-0.155804,1.99913,0.211006,
2,0,0,1,0,66113.9,0.203854,0.203527,-0.343639,34,0.0172578,10,-6.99398e-05,-3.4639,-0.465573,-0.126726,1.71354,0.2035272,
2,0,0,1,0,66114.7,0.196362,0.196052,-0.360582,34,0.016984,10,-7.0693e-05,-3.443,-0.377449,-0.156312,2.19989,0.1960524,
2,0,0,1,0,66115.4,0.188872,0.188557,-0.374759,34,0.0166982,10,-7.06635e-05,-3.42625,-0.265486,-0.222234,3.25972,0.188557,
2,0,0,1,0,66116.2,0.18138,0.181032,-0.394907,34,0.0164001,10,-7.14908e-05,-3.4035,-0.41401,-0.142509,2.19117,0.181032,
2,0,0,1,0,66116.9,0.17389,0.173531,-0.414782,34,0.016088,10,-7.19777e-05,-3.38218,-0.318174,-0.185433,2.99941,0.173531,
2,0,0,1,0,66117.7,0.166398,0.166078,-0.43895,34,0.0157591,10,-7.28998e-05,-3.35759,-0.305326,-0.193236,3.31504,0.1660779,
2,0,0,1,0,66118.4,0.158907,0.158613,-0.470489,34,0.0154087,10,-7.46259e-05,-3.32745,-0.192846,-0.305944,5.64078,0.158613,
2,0,0,1,0,66119.2,0.151417,0.151095,-0.522397,34,0.0150273,10,-7.89317e-05,-3.282,-0.151899,-0.388416,7.94623,0.151095,
2,0,0,1,0,66119.9,0.143925,0.143624,-0.603769,34,0.0145975,10,-8.6716e-05,-3.21913,-0.0936688,-0.629879,14.8507,0.143624,
2,0,0,1,0,66120.7,0.136435,0.136142,-0.733329,34,0.0140882,10,-9.98366e-05,-3.1347,-0.0855996,-0.689255,19.7085,0.136142,
2,0,0,1,0,66121.4,0.128943,0.128632,-0.886228,34,0.0134717,10,-0.000113997,-3.05245,-0.105962,-0.556806,19.1877,0.128632,
2,0,0,1,0,66122.2,0.121453,0.121143,-1.01306,34,0.0127476,10,-0.000122725,-2.99436,-0.165628,-0.356219,14.0647,0.121143,
2,0,0,1,0,66122.9,0.113962,0.113676,-1.08773,34,0.0119441,10,-0.000123649,-2.96348,-0.513559,-0.114884,4.88164,0.1136758,
2,0,0,1,0,66123.7,0.106471,0.10613,-1.10301,34,0.011108,10,-0.000117063,-2.95742,2.88153,0.0204752,-0.882981,0.10613,
2,0,0,1,0,66124.4,0.0989798,0.0986753,-1.09066,34,0.0102749,10,-0.000107621,-2.96231,0.999874,0.0590074,-2.50473,0.0986753,
2,0,0,1,0,66125.2,0.0914889,0.0911856,-1.06677,34,0.00945734,10,-9.72738e-05,-2.97193,0.911037,0.0647613,-2.69153,0.0911856,
2,0,0,1,0,66125.9,0.083998,0.0836599,-1.0431,34,0.00865723,10,-8.72657e-05,-2.98167,0.575944,0.102441,-4.16386,0.0836599,
2,0,0,1,0,66126.7,0.076507,0.0762084,-1.01663,34,0.00787548,10,-7.74759e-05,-2.99284,0.633094,0.0931931,-3.69879,0.0762084,
2,0,0,1,0,66127.4,0.069016,0.06874,-0.986541,34,0.00711425,10,-6.78148e-05,-3.00588,0.58908,0.100156,-3.86858,0.06874001,
2,0,0,1,0,66128.2,0.0615251,0.0612164,-0.960823,34,0.00637335,10,-5.88181e-05,-3.01736,0.663486,0.0889242,-3.33653,0.0612164,
2,0,0,1,0,66128.9,0.0540342,0.0537416,-0.931038,34,0.00565414,10,-5.00355e-05,-3.03103,0.560812,0.105205,-3.82181,0.0537416,
2,0,0,1,0,66129.7,0.0465441,0.0462559,-0.901977,34,0.00495712,10,-4.17217e-05,-3.0448,0.53472,0.110338,-3.88375,0.0462559,
2,0,0,1,0,66130.4,0.0390523,0.0387454,-0.868595,34,0.00428369,10,-3.3654e-05,-3.06118,0.39432,0.149625,-5.07045,0.0387454,
2,0,0,1,0,66131.2,0.0315618,0.0312348,-0.837466,34,0.00363445,10,-2.61581e-05,-3.07703,0.435392,0.13551,-4.42894,0.0312348,
2,0,0,1,0,66131.9,0.0240704,0.0237714,-0.806426,34,0.00300872,10,-1.91698e-05,-3.09344,0.492317,0.119842,-3.77883,0.0237714,
2,0,0,1,0,66132.7,0.0165796,0.0162767,-0.784313,34,0.00240304,10,-1.2766e-05,-3.10551,0.905997,0.0651217,-1.99431,0.0162767,
2,0,0,1,0,66133.4,0.00908845,0.00875388,-0.77148,34,0.00181084,10,-6.75344e-06,-3.11268,2.45094,0.0240724,-0.723701,0.00875388,
2,0,0,1,0,66134.2,0.00159728,0.00119284,-0.77825,34,0.00122365,10,-9.28329e-07,-3.10888, , , ,0.00119284,
2,0,0,1,0,66134.3,0.000199195,-0.000243248,-0.77275,34,0.00111345,10,1.8797e-07,-3.11196, , , ,-0.000243248,

File: 20221101_1-115_003_TrumpetPlot_ParaChange_from10_every3_04_CV_C01_34.csv
mode,ox/red,error,control changes,counter inc.,time/s,control/V,Ewe/V,<I>/mA,cycle number,(Q-Qo)/C,I Range,P/W,log(|I|),Tafel slope mV/dec,alpha_eff,dI/d(E-IR),E-IR/V,
2,0,0,1,0,68044.4,2.44065e-05,-0.000497109,-0.397693,35,0.0000000E+000,10,1.97697e-07,-3.40045, , , ,-0.000497109,
2,1,0,1,0,68045.2,0.00729063,0.00699678,0.34266,35,0.000166221,10,2.39752e-06,-3.46514,0.0568509,1.0378,13.7104,0.00699678,
2,1,0,1,0,68045.9,0.0147814,0.0144649,0.41465,35,0.000464095,10,5.99786e-06,-3.38232,0.114294,0.516211,8.35923,0.0144649,
2,1,0,1,0,68046.7,0.0222725,0.02194,0.467104,35,0.000805922,10,1.02483e-05,-3.33059,0.166205,0.354983,6.44684,0.02194,
2,1,0,1,0,68047.4,0.0297635,0.0294495,0.513863,35,0.00118396,10,1.5133e-05,-3.28915,0.175242,0.336677,6.7487,0.0294495,
2,1,0,1,0,68048.2,0.0372544,0.0369374,0.563967,35,0.00159807,10,2.08314e-05,-3.24875,0.215886,0.273293,6.00411,0.0369374,
2,1,0,1,0,68048.9,0.0447458,0.0444338,0.609333,35,0.00204761,10,2.7075e-05,-3.21515,0.222573,0.265082,6.29308,0.0444338,
2,1,0,1,0,68049.7,0.0522363,0.0518965,0.652967,35,0.00253195,10,3.38867e-05,-3.18511,0.232408,0.253863,6.46461,0.0518965,
2,1,0,1,0,68050.4,0.0597282,0.0594202,0.695664,35,0.00304805,10,4.13365e-05,-3.1576,0.309355,0.190719,5.14902,0.0594202,
2,1,0,1,0,68051.2,0.0672182,0.0668769,0.729853,35,0.00359242,10,4.88103e-05,-3.13676,0.423295,0.139383,3.95892,0.0668769,
2,1,0,1,0,68051.9,0.0747092,0.0743888,0.756715,35,0.00416043,10,5.62911e-05,-3.12107,0.506346,0.116521,3.44107,0.0743888,
2,1,0,1,0,68052.7,0.0822001,0.0818965,0.782237,35,0.00474899,10,6.40625e-05,-3.10666,0.609408,0.0968153,2.96592,0.0818965,
2,1,0,1,0,68053.4,0.0896911,0.0893681,0.815959,35,0.00535804,10,7.29207e-05,-3.08833,0.323016,0.182653,5.82099,0.0893681,
2,1,0,1,0,68054.2,0.097182,0.0968079,0.865363,35,0.00599837,10,8.3774e-05,-3.0628,0.21888,0.269554,9.11431,0.0968079,
2,1,0,1,0,68054.9,0.104673,0.104358,0.941999,35,0.00668559,10,9.83051e-05,-3.02595,0.209851,0.281152,10.3178,0.104358,
2,1,0,1,0,68055.7,0.112164,0.111846,1.01447,35,0.00743044,10,0.000113464,-2.99376,0.288595,0.204439,8.0776,0.111846,
2,1,0,1,0,68056.4,0.119655,0.119329,1.06537,35,0.00822255,10,0.000127129,-2.9725,0.733271,0.0804614,3.34247,0.119329,
2,1,0,1,0,68057.2,0.127146,0.126805,1.0838,35,0.0090411,10,0.00013743,-2.96505,1.81252,0.0325514,1.38229,0.126805,
2,1,0,1,0,68057.9,0.134637,0.134359,1.08251,35,0.0098686,10,0.000145444,-2.96557,-0.483603,-0.122001,-5.1483,0.134359,
2,1,0,1,0,68058.7,0.142127,0.141809,0.98916,35,0.0106631,10,0.000140272,-3.00473,-0.121299,-0.486402,-18.6769,0.141809,
2,1,0,1,0,68059.4,0.149619,0.149275,0.809507,35,0.0113502,10,0.000120839,-3.09178,-0.0760508,-0.775797,-24.5214,0.149275,
2,1,0,1,0,68060.2,0.157109,0.156787,0.661316,35,0.011907,10,0.000103685,-3.17959,-0.106785,-0.552514,-14.3386,0.156787,
2,1,0,1,0,68060.9,0.164601,0.164277,0.593021,35,0.0123841,10,9.74199e-05,-3.22693,-0.206137,-0.286218,-6.62017,0.164277,
2,1,0,1,0,68061.7,0.172091,0.171741,0.558841,35,0.0128241,10,9.59756e-05,-3.25271,-0.40862,-0.144389,-3.15198,0.171741,
2,1,0,1,0,68062.4,0.179582,0.179238,0.538926,35,0.0132459,10,9.65957e-05,-3.26847,-0.580354,-0.101662,-2.1535,0.179238,
2,1,0,1,0,68063.2,0.187074,0.186772,0.531406,35,0.0136575,10,9.92517e-05,-3.27457,-2.05564,-0.0287015,-0.594145,0.186772,
2,1,0,1,0,68063.9,0.194564,0.194239,0.525157,35,0.0140628,10,0.000102006,-3.27971,-1.78365,-0.0330782,-0.677071,0.194239,
2,1,0,1,0,68064.7,0.202056,0.201767,0.519664,35,0.0144639,10,0.000104851,-3.28428,-0.821611,-0.0718101,-1.4543,0.201767,
2,1,0,1,0,68065.4,0.209546,0.209199,0.516002,35,0.0148617,10,0.000107947,-3.28735,-1.41202,-0.0417841,-0.840261,0.209199,
2,1,0,1,0,68066.2,0.217038,0.216724,0.511415,35,0.0152565,10,0.000110836,-3.29123,-1.94325,-0.0303614,-0.607411,0.216724,
2,1,0,1,0,68066.9,0.224528,0.224211,0.508237,35,0.0156494,10,0.000113953,-3.29393,-1.81588,-0.0324911,-0.646995,0.224211,
2,1,0,1,0,68067.6,0.232019,0.231669,0.50637,35,0.0160401,10,0.00011731,-3.29553,-19.7606,-0.00298574,-0.0590693,0.231669,
2,1,0,1,0,68068.4,0.23951,0.23923,0.503043,35,0.0164286,10,0.000120343,-3.29839,-4.13986,-0.0142517,-0.27978,0.23923,
2,1,0,1,0,68069.1,0.247001,0.246655,0.501877,35,0.0168149,10,0.00012379,-3.2994,-2.76363,-0.0213488,-0.417352,0.246655,
2,1,0,1,0,68069.9,0.254492,0.254159,0.496674,35,0.0171992,10,0.000126234,-3.30393,-1.54951,-0.0380766,-0.739659,0.254159,
2,1,0,1,0,68070.6,0.261983,0.261686,0.494898,35,0.0175812,10,0.000129508,-3.30548,-2.15335,-0.0273991,-0.529714,0.261686,
2,1,0,1,0,68071.4,0.269474,0.269168,0.490811,35,0.0179608,10,0.000132111,-3.30909,-21.9897,-0.00268307,-0.0514746,0.2691685,
2,1,0,1,0,68072.1,0.276965,0.276677,0.489312,35,0.0183378,10,0.000135382,-3.31041,-1.19858,-0.0492247,-0.939842,0.276677,
2,1,0,1,0,68072.9,0.284456,0.284153,0.486636,35,0.0187123,10,0.000138279,-3.3128,-1.48652,-0.03969,-0.751235,0.2841531,
2,1,0,1,0,68073.6,0.291947,0.291616,0.48052,35,0.0190837,10,0.000140127,-3.31829,-2.35683,-0.0250337,-0.469848,0.291616,
2,1,0,1,0,68074.4,0.299437,0.299123,0.475807,35,0.0194522,10,0.000142325,-3.32257,-0.00314457,-18.7625,-195.829,0.299123,
2,0,0,1,0,68075.1,0.293745,0.29342,-0.0691825,35,0.0194825,10,-2.02995e-05,-4.16,-0.012572,-4.69296,11.4125,0.29342,
2,0,0,1,0,68075.8,0.286253,0.285944,-0.123294,35,0.0193978,10,-3.52552e-05,-3.90906,-0.0489946,-1.20421,5.8632,0.285944,
2,0,0,1,0,68076.6,0.278763,0.27848,-0.160103,35,0.0192801,10,-4.45854e-05,-3.7956,-0.0874749,-0.674479,4.23581,0.2784799,
2,0,0,1,0,68077.3,0.271272,0.270967,-0.189666,35,0.0191384,10,-5.13933e-05,-3.72201,-0.108384,-0.544363,4.02015,0.270967,
2,0,0,1,0,68078.1,0.263781,0.263452,-0.212867,35,0.018977,10,-5.60802e-05,-3.67189,-0.187749,-0.314249,2.60997,0.263452,
2,0,0,1,0,68078.8,0.25629,0.25599,-0.235705,35,0.0187987,10,-6.03381e-05,-3.62763,-0.27952,-0.211076,1.93521,0.25599,
2,0,0,1,0,68079.6,0.248799,0.248483,-0.253146,35,0.0186058,10,-6.29025e-05,-3.59663,-0.302575,-0.194993,1.92554,0.248483,
2,0,0,1,0,68080.3,0.241308,0.240991,-0.269297,35,0.0183997,10,-6.48983e-05,-3.56977,-0.300723,-0.196194,2.06962,0.240991,
2,0,0,1,0,68081.1,0.233817,0.233494,-0.285457,35,0.0181815,10,-6.66526e-05,-3.54446,-0.336779,-0.175189,1.94769,0.233494,
2,0,0,1,0,68081.8,0.226326,0.225958,-0.299603,35,0.0179522,10,-6.76976e-05,-3.52345,-0.332241,-0.177582,2.0808,0.225958,
2,0,0,1,0,68082.6,0.218835,0.218503,-0.314299,35,0.0177116,10,-6.86754e-05,-3.50266,-0.298293,-0.197792,2.42809,0.218503,
2,0,0,1,0,68083.3,0.211344,0.211031,-0.328784,35,0.0174599,10,-6.93834e-05,-3.48309,-0.564193,-0.104574,1.33882,0.211031,
2,0,0,1,0,68084.1,0.203854,0.203521,-0.343074,35,0.017197,10,-6.98227e-05,-3.46461,-0.428419,-0.137716,1.85105,0.203521,
2,0,0,1,0,68084.8,0.196362,0.196029,-0.358218,35,0.0169233,10,-7.02211e-05,-3.44585,-0.429277,-0.13744,1.92363,0.196029,
2,0,0,1,0,68085.6,0.188872,0.18856,-0.376099,35,0.0166376,10,-7.09173e-05,-3.4247,-0.305256,-0.19328,2.8335,0.18856,
2,0,0,1,0,68086.3,0.18138,0.181071,-0.39277,35,0.0163396,10,-7.11192e-05,-3.40586,-0.34203,-0.1725,2.6435,0.181071,
2,0,0,1,0,68087.1,0.17389,0.173547,-0.41256,35,0.0160275,10,-7.15984e-05,-3.38451,-0.31162,-0.189333,3.04954,0.173547,
2,0,0,1,0,68087.8,0.166398,0.166057,-0.436494,35,0.0156986,10,-7.24827e-05,-3.36002,-0.288333,-0.204625,3.49694,0.166057,
2,0,0,1,0,68088.6,0.158907,0.158539,-0.469708,35,0.0153482,10,-7.44672e-05,-3.32817,-0.207772,-0.283965,5.21839,0.158539,
2,0,0,1,0,68089.3,0.151417,0.151077,-0.520533,35,0.014967,10,-7.86407e-05,-3.28355,-0.140971,-0.418525,8.51831,0.151077,
2,0,0,1,0,68090.1,0.143925,0.143587,-0.60317,35,0.0145376,10,-8.66073e-05,-3.21956,-0.0892763,-0.66087,15.5682,0.143587,
2,0,0,1,0,68090.8,0.136435,0.136097,-0.731468,35,0.0140286,10,-9.95507e-05,-3.1358,-0.0885369,-0.666389,19.0191,0.136097,
2,0,0,1,0,68091.6,0.128943,0.128645,-0.881504,35,0.013413,10,-0.000113401,-3.05478,-0.105205,-0.560808,19.2169,0.128645,
2,0,0,1,0,68092.3,0.121453,0.121128,-1.01188,35,0.0126902,10,-0.000122567,-2.99487,-0.170971,-0.345088,13.5905,0.121128,
2,0,0,1,0,68093.1,0.113962,0.113663,-1.08367,35,0.0118888,10,-0.000123173,-2.9651,-0.471872,-0.125034,5.28508,0.113663,
2,0,0,1,0,68093.8,0.106471,0.106143,-1.09742,35,0.0110559,10,-0.000116483,-2.95963,2.9308,0.020131,-0.863819,0.106143,
2,0,0,1,0,68094.6,0.0989798,0.0986361,-1.08404,35,0.0102265,10,-0.000106926,-2.96495,1.25835,0.0468866,-1.97685,0.0986361,
2,0,0,1,0,68095.3,0.0914889,0.0910849,-1.06176,35,0.00941186,10,-9.67103e-05,-2.97397,1.17688,0.0501326,-2.07396,0.0910849,
2,0,0,1,0,68096,0.083998,0.0836822,-1.03918,35,0.00861374,10,-8.69607e-05,-2.98331,0.607265,0.097157,-3.93349,0.0836822,
2,0,0,1,0,68096.8,0.076507,0.0761788,-1.0139,35,0.00783349,10,-7.7238e-05,-2.994,0.644695,0.0915161,-3.62061,0.0761788,
2,0,0,1,0,68097.5,0.069016,0.0686838,-0.984441,35,0.00707318,10,-6.76152e-05,-3.00681,0.533303,0.110631,-4.26059,0.0686838,
2,0,0,1,0,68098.3,0.0615251,0.0611793,-0.958311,35,0.00633336,10,-5.86288e-05,-3.01849,0.608956,0.0968871,-3.6233,0.06117931,
2,0,0,1,0,68099,0.0540342,0.0537756,-0.929519,35,0.0056156,10,-4.99854e-05,-3.03174,0.581578,0.101448,-3.67575,0.0537756,
2,0,0,1,0,68099.8,0.0465441,0.0462105,-0.898092,35,0.00491984,10,-4.15012e-05,-3.04668,0.544647,0.108327,-3.80015,0.0462105,
2,0,0,1,0,68100.5,0.0390523,0.0387347,-0.867055,35,0.0042479,10,-3.35852e-05,-3.06195,0.38507,0.153219,-5.16715,0.0387347,
2,0,0,1,0,68101.3,0.0315618,0.0312585,-0.833731,35,0.00360022,10,-2.60612e-05,-3.07897,0.46463,0.126983,-4.12812,0.0312585,
2,0,0,1,0,68102,0.0240704,0.0237576,-0.802124,35,0.00297598,10,-1.90565e-05,-3.09576,0.550829,0.107111,-3.36136,0.0237576,
2,0,0,1,0,68102.8,0.0165796,0.0162715,-0.782282,35,0.00237126,10,-1.27289e-05,-3.10664,0.925527,0.0637475,-1.9491,0.0162715,
2,0,0,1,0,68103.5,0.00908845,0.00876342,-0.769542,35,0.00177942,10,-6.74382e-06,-3.11377,2.79652,0.0210976,-0.634129,0.00876342,
2,0,0,1,0,68104.3,0.00159728,0.00124248,-0.776455,35,0.00119199,10,-9.64729e-07,-3.10988, , , ,0.001242478,
2,0,0,1,0,68104.4,0.000199195,-0.000176442,-0.770662,35,0.00108179,10,1.35978e-07,-3.11314, , , ,-0.000176442,