Folder: Figs_alphaMnO2_OER_Tafel_sleope/Figure_codes/Fig_3-5/rawdata_trumpetplot_data/after 10th (part 29)

File: 20221101_1-115_003_TrumpetPlot_ParaChange_from10_every3_03_CV_C01_21.csv
mode,ox/red,error,control changes,counter inc.,time/s,control/V,Ewe/V,<I>/mA,cycle number,(Q-Qo)/C,I Range,P/W,log(|I|),Tafel slope mV/dec,alpha_eff,dI/d(E-IR),E-IR/V,
2,0,0,1,0,42312.8,2.44065e-05,-0.000382585,-0.104482,22,0.0000000E+000,10,3.99734e-08,-3.98096, , , ,-0.000382585,
2,1,0,1,0,42314.2,0.00729041,0.00697011,0.202039,22,0.000253183,10,1.40823e-06,-3.69456,0.0802779,0.734947,5.72592,0.00697011,
2,1,0,1,0,42315.7,0.0147815,0.0145097,0.233192,22,0.000601892,10,3.38354e-06,-3.63229,0.13994,0.42161,3.83809,0.0145097,
2,1,0,1,0,42317.2,0.0222725,0.0219634,0.259828,22,0.000993386,10,5.7067e-06,-3.58531,0.179555,0.32859,3.33148,0.0219634,
2,1,0,1,0,42318.7,0.0297635,0.0294129,0.286657,22,0.00142394,10,8.4314e-06,-3.54264,0.206562,0.285628,3.18432,0.0294129,
2,1,0,1,0,42320.2,0.0372545,0.0368866,0.311934,22,0.001894,10,1.15062e-05,-3.50594,0.208425,0.283076,3.45079,0.0368866,
2,1,0,1,0,42321.7,0.0447456,0.0444219,0.338259,22,0.0024024,10,1.50261e-05,-3.47075,0.237593,0.248324,3.27171,0.0444219,
2,1,0,1,0,42323.2,0.0522367,0.0519382,0.361613,22,0.00294839,10,1.87815e-05,-3.44176,0.231966,0.254348,3.58695,0.0519382,
2,1,0,1,0,42324.7,0.0597277,0.0593685,0.383912,22,0.00352881,10,2.27923e-05,-3.41577,0.306233,0.192664,2.87902,0.0593685,
2,1,0,1,0,42326.2,0.0672187,0.0668955,0.402882,22,0.00414026,10,2.6951e-05,-3.39482,0.339153,0.173963,2.72861,0.0668955,
2,1,0,1,0,42327.7,0.0747092,0.0744206,0.417397,22,0.00477769,10,3.10629e-05,-3.37945,0.512286,0.11517,1.87807,0.0744206,
2,1,0,0,0,42329.2,0.0822001,0.0818753,0.431401,22,0.00543744,10,3.53211e-05,-3.36512,0.531666,0.110972,1.87435,0.0818753,
2,1,0,1,0,42330.7,0.0896911,0.0893882,0.453197,22,0.00612196,10,4.05105e-05,-3.34371,0.292036,0.20203,3.57302,0.0893882,
2,1,0,0,0,42332.2,0.097182,0.0968726,0.483637,22,0.0068448,10,4.68511e-05,-3.31548,0.193453,0.304983,5.75786,0.0968726,
2,1,0,1,0,42333.7,0.104673,0.104378,0.527403,22,0.00762265,10,5.50494e-05,-3.27786,0.209445,0.281696,5.76628,0.104378,
2,1,0,0,0,42335.2,0.112164,0.111889,0.562933,22,0.00846086,10,6.2986e-05,-3.24954,0.379357,0.155526,3.41028,0.111889,
2,1,0,1,0,42336.7,0.119655,0.119362,0.587944,22,0.00934674,10,7.0178e-05,-3.23066,0.508183,0.1161,2.668,0.119362,
2,1,0,0,0,42338.2,0.127146,0.126812,0.6052,22,0.0102662,10,7.67466e-05,-3.2181,0.969208,0.0608745,1.44145,0.1268121,
2,1,0,1,0,42339.7,0.134637,0.134334,0.603476,22,0.011201,10,8.1067e-05,-3.21934,-0.377678,-0.156218,-3.67229,0.134334,
2,1,0,1,0,42341.2,0.142127,0.141795,0.541614,22,0.0120891,10,7.67983e-05,-3.26631,-0.104613,-0.563983,-11.8543,0.141795,
2,1,0,1,0,42342.7,0.149618,0.149271,0.435083,22,0.0128426,10,6.49453e-05,-3.36143,-0.077236,-0.763893,-13.0078,0.149271,
2,1,0,1,0,42344.2,0.157109,0.156801,0.362466,22,0.0134548,10,5.68351e-05,-3.44073,-0.121203,-0.486785,-6.90275,0.156801,
2,1,0,1,0,42345.7,0.1646,0.16427,0.330386,22,0.0139909,10,5.42724e-05,-3.48098,-0.280355,-0.210448,-2.70969,0.16427,
2,1,0,1,0,42347.2,0.172091,0.17175,0.311435,22,0.0144921,10,5.34889e-05,-3.50663,-0.472778,-0.124794,-1.52643,0.17175,
2,1,0,1,0,42348.7,0.179582,0.179253,0.302505,22,0.0149744,10,5.42251e-05,-3.51927,-0.876367,-0.0673234,-0.798607,0.179253,
2,1,0,1,0,42350.2,0.187074,0.186773,0.299287,22,0.015446,10,5.58987e-05,-3.52391,-1.43098,-0.0412305,-0.479378,0.186773,
2,1,0,1,0,42351.7,0.194564,0.19423,0.294798,22,0.0159107,10,5.72585e-05,-3.53048,-1.32443,-0.0445475,-0.512651,0.19423,
2,1,0,1,0,42353.2,0.202056,0.201752,0.291962,22,0.0163699,10,5.89039e-05,-3.53467,-1.01173,-0.058316,-0.662194,0.201752,
2,1,0,1,0,42354.7,0.209547,0.2092,0.288492,22,0.0168248,10,6.03524e-05,-3.53987,-1.78374,-0.0330765,-0.373152,0.2092,
2,1,0,1,0,42356.2,0.217038,0.216734,0.28536,22,0.0172755,10,6.18473e-05,-3.54461,-5.03303,-0.0117226,-0.131223,0.2167338,
2,1,0,1,0,42357.7,0.224529,0.224177,0.284631,22,0.0177234,10,6.38076e-05,-3.54572,-1.24265,-0.0474791,-0.527233,0.224177,
2,1,0,1,0,42359.2,0.232019,0.231706,0.281469,22,0.0181675,10,6.52182e-05,-3.55057,-4.4505,-0.0132569,-0.146253,0.231706,
2,1,0,0,0,42360.7,0.23951,0.239189,0.280972,22,0.0186087,10,6.72054e-05,-3.55134,-9.88459,-0.00596889,-0.0653824,0.239189,
2,1,0,1,0,42362.1,0.247001,0.246733,0.279226,22,0.0190477,10,6.88944e-05,-3.55404,-1.32753,-0.0444436,-0.48312,0.246733,
2,1,0,0,0,42363.6,0.254492,0.254165,0.27783,22,0.0194839,10,7.06147e-05,-3.55622,-1.83282,-0.0321909,-0.348743,0.254165,
2,1,0,1,0,42365.1,0.261983,0.261659,0.275857,22,0.0199175,10,7.21805e-05,-3.55932,-1.82782,-0.0322789,-0.346375,0.261659,
2,1,0,0,0,42366.6,0.269474,0.269122,0.274142,22,0.0203483,10,7.37776e-05,-3.56202,18.1801,0.00324531,0.0346301,0.269122,
2,1,0,1,0,42368.1,0.276965,0.276607,0.271744,22,0.0207768,10,7.51663e-05,-3.56584,-2.20793,-0.0267218,-0.284007,0.276607,
2,1,0,0,0,42369.6,0.284456,0.284122,0.270815,22,0.0212027,10,7.69445e-05,-3.56733,-1.43972,-0.0409802,-0.432496,0.284122,
2,1,0,1,0,42371.1,0.291947,0.291597,0.268705,22,0.0216255,10,7.83536e-05,-3.57072,-1.55492,-0.0379442,-0.398312,0.291597,
2,1,0,1,0,42372.6,0.299437,0.299078,0.265621,22,0.0220458,10,7.94412e-05,-3.57574,-0.0026171,-22.544,-119.773,0.299078,
2,0,0,1,0,42374,0.293744,0.293401,-0.0179673,22,0.0220855,10,-5.27162e-06,-4.74552,-0.00478775,-12.3231,5.89636,0.293401,
2,0,0,1,0,42375.5,0.286253,0.285931,-0.0464051,22,0.0220163,10,-1.32686e-05,-4.33343,-0.0338797,-1.74146,3.18796,0.285931,
2,0,0,0,0,42377,0.278763,0.27843,-0.0685359,22,0.0219096,10,-1.90824e-05,-4.16408,-0.059649,-0.98912,2.59747,0.2784301,
2,0,0,1,0,42378.5,0.271272,0.27094,-0.0846107,22,0.0217752,10,-2.29245e-05,-4.07257,-0.0870093,-0.678089,2.22885,0.27094,
2,0,0,0,0,42380,0.263781,0.26347,-0.0980984,22,0.0216183,10,-2.5846e-05,-4.00834,-0.118964,-0.495949,1.9003,0.26347,
2,0,0,1,0,42381.5,0.25629,0.255981,-0.109463,22,0.0214424,10,-2.80205e-05,-3.96073,-0.201784,-0.292392,1.25574,0.255981,
2,0,0,0,0,42383,0.248799,0.248474,-0.120658,22,0.02125,10,-2.99804e-05,-3.91844,-0.176685,-0.333928,1.56829,0.248474,
2,0,0,1,0,42384.5,0.241308,0.240997,-0.130412,22,0.0210422,10,-3.14289e-05,-3.88468,-0.246671,-0.239185,1.22284,0.240997,
2,0,0,0,0,42386,0.233817,0.233485,-0.140423,22,0.02082,10,-3.27865e-05,-3.85256,-0.294502,-0.200338,1.0949,0.233485,
2,0,0,1,0,42387.5,0.226326,0.226005,-0.148058,22,0.0205843,10,-3.34618e-05,-3.82957,-0.338754,-0.174168,1.01519,0.226005,
2,0,0,0,0,42389,0.218835,0.218504,-0.157391,22,0.020335,10,-3.43906e-05,-3.80302,-0.382963,-0.154062,0.944758,0.2185044,
2,0,0,1,0,42390.5,0.211344,0.21104,-0.165234,22,0.0200728,10,-3.48709e-05,-3.7819,-0.37903,-0.155661,1.00828,0.21104,
2,0,0,1,0,42392,0.203854,0.20352,-0.17383,22,0.0197971,10,-3.5378e-05,-3.75987,-0.372899,-0.15822,1.07926,0.20352,
2,0,0,1,0,42393.5,0.196363,0.196008,-0.184135,22,0.0195081,10,-3.6092e-05,-3.73486,-0.267837,-0.220283,1.5797,0.196008,
2,0,0,1,0,42395,0.188871,0.188543,-0.194828,22,0.0192036,10,-3.67334e-05,-3.71035,-0.308768,-0.191082,1.44788,0.188543,
2,0,0,1,0,42396.5,0.181381,0.181054,-0.205706,22,0.0188832,10,-3.72439e-05,-3.68675,-0.29756,-0.198279,1.59791,0.181054,
2,0,0,1,0,42398,0.173889,0.173529,-0.219137,22,0.018544,10,-3.80265e-05,-3.65929,-0.294081,-0.200625,1.71775,0.173529,
2,0,0,1,0,42399.5,0.166398,0.166078,-0.235783,22,0.0181819,10,-3.91584e-05,-3.62749,-0.224415,-0.262906,2.43588,0.166078,
2,0,0,1,0,42401,0.158907,0.15856,-0.25841,22,0.01779,10,-4.09733e-05,-3.58769,-0.15211,-0.387877,3.92744,0.15856,
2,0,0,1,0,42402.5,0.151416,0.15108,-0.293857,22,0.0173558,10,-4.4396e-05,-3.53186,-0.115321,-0.511617,5.88739,0.15108,
2,0,0,1,0,42404,0.143925,0.143592,-0.352342,22,0.0168529,10,-5.05934e-05,-3.45304,-0.0762744,-0.773523,10.6605,0.143592,
2,0,0,1,0,42405.5,0.136434,0.136082,-0.438957,22,0.016241,10,-5.97341e-05,-3.35758,-0.0782031,-0.754446,12.8859,0.136082,
2,0,0,1,0,42407,0.128943,0.128596,-0.530702,22,0.0154905,10,-6.82463e-05,-3.27515,-0.118379,-0.4984,10.2725,0.128596,
2,0,0,0,0,42408.5,0.121453,0.12115,-0.594559,22,0.0146194,10,-7.20306e-05,-3.2258,-0.231427,-0.25494,5.88845,0.12115,
2,0,0,1,0,42410,0.113962,0.113626,-0.611656,22,0.0136858,10,-6.95e-05,-3.21349,-12.7688,-0.00462063,0.110597,0.113626,
2,0,0,0,0,42411.5,0.106471,0.106076,-0.60844,22,0.0127447,10,-6.45408e-05,-3.21578,1.15471,0.0510952,-1.21891,0.106076,
2,0,0,1,0,42413,0.0989798,0.0986445,-0.597054,22,0.0118177,10,-5.88961e-05,-3.22399,0.712352,0.0828242,-1.92569,0.0986445,
2,0,0,0,0,42414.5,0.0914889,0.0911718,-0.581431,22,0.010913,10,-5.30101e-05,-3.2355,0.621683,0.0949036,-2.14454,0.0911718,
2,0,0,1,0,42416,0.083998,0.0836769,-0.559728,22,0.0100358,10,-4.68363e-05,-3.25202,0.374739,0.157443,-3.43767,0.0836769,
2,0,0,0,0,42417.5,0.076507,0.0761703,-0.541491,22,0.00918828,10,-4.12455e-05,-3.26641,0.456214,0.129325,-2.72992,0.0761703,
2,0,0,1,0,42419,0.069016,0.0687464,-0.521587,22,0.0083695,10,-3.58572e-05,-3.28267,0.560556,0.105253,-2.1511,0.0687464,
2,0,0,0,0,42420.4,0.0615251,0.0612154,-0.505951,22,0.00757604,10,-3.0972e-05,-3.29589,0.533379,0.110615,-2.18856,0.0612154,
2,0,0,1,0,42421.9,0.0540342,0.0537649,-0.489962,22,0.00680756,10,-2.63428e-05,-3.30984,0.699384,0.0843599,-1.61042,0.0537649,
2,0,0,1,0,42423.4,0.0465436,0.0462534,-0.47123,22,0.00606436,10,-2.1796e-05,-3.32677,0.496879,0.118741,-2.19005,0.0462534,
2,0,0,1,0,42424.9,0.0390526,0.0387128,-0.455269,22,0.00534737,10,-1.76247e-05,-3.34173,0.376428,0.156737,-2.78185,0.0387128,
2,0,0,1,0,42426.4,0.0315615,0.0312454,-0.438658,22,0.00465631,10,-1.3706e-05,-3.35787,0.490895,0.120189,-2.05847,0.0312454,
2,0,0,1,0,42427.9,0.0240706,0.0237609,-0.42331,22,0.00398923,10,-1.00582e-05,-3.37334,0.672323,0.0877555,-1.45601,0.0237609,
2,0,0,1,0,42429.4,0.0165795,0.0162702,-0.414358,22,0.00334045,10,-6.74167e-06,-3.38262,0.964567,0.0611673,-0.989413,0.0162702,
2,0,0,1,0,42430.9,0.00908846,0.00874965,-0.409977,22,0.00270241,10,-3.58715e-06,-3.38724,57.168,0.00103205,-0.0165072,0.00874965,
2,0,0,1,0,42432.4,0.00159739,0.00124808,-0.415248,22,0.00206477,10,-5.18264e-07,-3.38169, , , ,0.00124808,
2,0,0,0,0,42432.7,0.000199195,-0.000163081,-0.413294,22,0.00194501,10,6.74006e-08,-3.38374, , , ,-0.000163081,

File: 20221101_1-115_003_TrumpetPlot_ParaChange_from10_every3_03_CV_C01_22.csv
mode,ox/red,error,control changes,counter inc.,time/s,control/V,Ewe/V,<I>/mA,cycle number,(Q-Qo)/C,I Range,P/W,log(|I|),Tafel slope mV/dec,alpha_eff,dI/d(E-IR),E-IR/V,
2,0,0,1,0,44282.9,2.44065e-05,-0.000325324,-0.105118,23,0.0000000E+000,10,3.41975e-08,-3.97832, , , ,-0.000325324,
2,1,0,1,0,44284.3,0.00729041,0.00694458,0.199628,23,0.000251664,10,1.38634e-06,-3.69978,0.08363,0.705488,5.50041,0.00694458,
2,1,0,1,0,44285.8,0.0147815,0.0144311,0.232314,23,0.000599537,10,3.35256e-06,-3.63392,0.137739,0.428345,3.89205,0.0144311,
2,1,0,1,0,44287.3,0.0222725,0.0219667,0.259154,23,0.000989713,10,5.69276e-06,-3.58644,0.163761,0.360282,3.6424,0.0219667,
2,1,0,1,0,44288.8,0.0297635,0.0294564,0.286078,23,0.0014192,10,8.42684e-06,-3.54352,0.211777,0.278595,3.09494,0.0294564,
2,1,0,1,0,44290.3,0.0372545,0.0369512,0.312121,23,0.00188739,10,1.15333e-05,-3.50568,0.227372,0.259486,3.15461,0.0369512,
2,1,0,1,0,44291.8,0.0447456,0.0444326,0.337193,23,0.00239443,10,1.49824e-05,-3.47212,0.244514,0.241295,3.16803,0.0444326,
2,1,0,1,0,44293.3,0.0522367,0.0519244,0.360427,23,0.00293848,10,1.8715e-05,-3.44318,0.234962,0.251104,3.52509,0.0519244,
2,1,0,1,0,44294.8,0.0597277,0.0593856,0.382796,23,0.0035166,10,2.27326e-05,-3.41703,0.349499,0.168813,2.51477,0.0593856,
2,1,0,1,0,44296.3,0.0672187,0.0669178,0.402752,23,0.0041256,10,2.69513e-05,-3.39496,0.358057,0.164778,2.57376,0.0669178,
2,1,0,1,0,44297.8,0.0747092,0.0744142,0.417917,23,0.00476066,10,3.1099e-05,-3.37891,0.492432,0.119813,1.95061,0.0744142,
2,1,0,0,0,44299.3,0.0822001,0.0818954,0.431042,23,0.00541858,10,3.53003e-05,-3.36548,0.460821,0.128032,2.15833,0.0818954,
2,1,0,1,0,44300.8,0.0896911,0.0893628,0.451691,23,0.00610176,10,4.03643e-05,-3.34516,0.297434,0.198363,3.51204,0.0893628,
2,1,0,0,0,44302.3,0.097182,0.0968281,0.483183,23,0.00682327,10,4.67857e-05,-3.31589,0.191314,0.308394,5.8066,0.0968281,
2,1,0,1,0,44303.8,0.104673,0.10435,0.526876,23,0.00759976,10,5.49793e-05,-3.27829,0.209447,0.281694,5.7643,0.10435,
2,1,0,0,0,44305.3,0.112164,0.111838,0.562069,23,0.00843624,10,6.28607e-05,-3.25021,0.376535,0.156692,3.42524,0.111838,
2,1,0,1,0,44306.8,0.119655,0.119355,0.586195,23,0.00931908,10,6.99655e-05,-3.23196,0.584822,0.100885,2.31107,0.119355,
2,1,0,0,0,44308.3,0.127146,0.126842,0.60136,23,0.0102334,10,7.62776e-05,-3.22087,0.838731,0.0703443,1.6538,0.1268418,
2,1,0,1,0,44309.8,0.134637,0.13432,0.597831,23,0.011162,10,8.03005e-05,-3.22342,-0.323069,-0.182623,-4.25958,0.13432,
2,1,0,1,0,44311.3,0.142127,0.141772,0.534763,23,0.0120412,10,7.58143e-05,-3.27184,-0.09991,-0.590532,-12.2568,0.141772,
2,1,0,1,0,44312.8,0.149618,0.149278,0.429814,23,0.0127853,10,6.41615e-05,-3.36672,-0.0797445,-0.739863,-12.4443,0.149278,
2,1,0,1,0,44314.3,0.157109,0.156835,0.359313,23,0.0133917,10,5.63528e-05,-3.44453,-0.122656,-0.48102,-6.77261,0.156835,
2,1,0,1,0,44315.8,0.1646,0.164259,0.328444,23,0.013925,10,5.39498e-05,-3.48354,-0.277674,-0.212479,-2.72691,0.164259,
2,1,0,1,0,44317.3,0.172091,0.171772,0.311903,23,0.0144249,10,5.35762e-05,-3.50598,-0.424126,-0.139109,-1.70292,0.171772,
2,1,0,1,0,44318.8,0.179582,0.179288,0.304589,23,0.0149072,10,5.46094e-05,-3.51629,-1.08331,-0.0544625,-0.649604,0.179288,
2,1,0,1,0,44320.3,0.187074,0.186775,0.299676,23,0.0153793,10,5.5972e-05,-3.52335,-1.22579,-0.0481322,-0.559733,0.186775,
2,1,0,1,0,44321.8,0.194564,0.194255,0.294217,23,0.0158443,10,5.71533e-05,-3.53133,-1.55683,-0.0378975,-0.436924,0.194255,
2,1,0,1,0,44323.3,0.202056,0.20173,0.292556,23,0.0163037,10,5.90174e-05,-3.53379,-1.71765,-0.0343493,-0.390986,0.20173,
2,1,0,1,0,44324.8,0.209547,0.209246,0.289281,23,0.0167594,10,6.05309e-05,-3.53868,-1.56972,-0.0375863,-0.424617,0.209246,
2,1,0,1,0,44326.3,0.217038,0.216699,0.286829,23,0.0172112,10,6.21555e-05,-3.54238,-1.39635,-0.0422531,-0.473902,0.216699,
2,1,0,1,0,44327.8,0.224529,0.224231,0.28541,23,0.0176599,10,6.39979e-05,-3.54453,-3.69263,-0.0159778,-0.177668,0.224231,
2,1,0,1,0,44329.3,0.232019,0.231766,0.282349,23,0.0181052,10,6.54388e-05,-3.54921,-1.65265,-0.0357002,-0.394411,0.231766,
2,1,0,0,0,44330.8,0.23951,0.239226,0.282708,23,0.0185483,10,6.7631e-05,-3.54866,-1.38353,-0.0426445,-0.469075,0.239226,
2,1,0,1,0,44332.3,0.247001,0.246698,0.280243,23,0.0189882,10,6.91356e-05,-3.55246,-3.2195,-0.0183258,-0.19998,0.246698,
2,1,0,0,0,44333.8,0.254492,0.25416,0.277914,23,0.0194255,10,7.06345e-05,-3.55609,-1.92545,-0.0306422,-0.333011,0.25416,
2,1,0,1,0,44335.3,0.261983,0.261684,0.276245,23,0.01986,10,7.22888e-05,-3.55871,-4.77332,-0.0123604,-0.133228,0.261684,
2,1,0,0,0,44336.8,0.269474,0.269168,0.274925,23,0.0202917,10,7.40013e-05,-3.56079,21.6146,0.00272963,0.0292539,0.2691685,
2,1,0,1,0,44338.3,0.276965,0.276653,0.272774,23,0.0207209,10,7.54638e-05,-3.5642,-57.8066,-0.00102064,-0.0108805,0.276653,
2,1,0,0,0,44339.8,0.284456,0.284142,0.2712,23,0.021147,10,7.70596e-05,-3.56671,-2.05908,-0.0286536,-0.302996,0.284142,
2,1,0,1,0,44341.3,0.291947,0.29163,0.269135,23,0.0215699,10,7.84878e-05,-3.57003,-5.50835,-0.010711,-0.112356,0.29163,
2,1,0,1,0,44342.8,0.299437,0.299152,0.267569,23,0.0219908,10,8.00439e-05,-3.57256,-0.00272292,-21.6679,-115.633,0.299152,
2,0,0,1,0,44344.1,0.293744,0.29345,-0.0163843,23,0.0220325,10,-4.80799e-06,-4.78557,-0.00414461,-14.2354,5.67889,0.29345,
2,0,0,1,0,44345.6,0.286253,0.285978,-0.0455481,23,0.0219653,10,-1.30257e-05,-4.34153,-0.0339603,-1.73732,3.11672,0.285978,
2,0,0,0,0,44347.1,0.278763,0.278434,-0.0674553,23,0.0218601,10,-1.87819e-05,-4.17098,-0.0581685,-1.01429,2.65793,0.278434,
2,0,0,1,0,44348.6,0.271272,0.270989,-0.0838157,23,0.0217271,10,-2.27131e-05,-4.07667,-0.120089,-0.491301,1.60386,0.270989,
2,0,0,0,0,44350.1,0.263781,0.263462,-0.0974948,23,0.0215712,10,-2.56862e-05,-4.01102,-0.125854,-0.468798,1.79515,0.263462,
2,0,0,1,0,44351.6,0.25629,0.255942,-0.11041,23,0.0213958,10,-2.82585e-05,-3.95699,-0.175863,-0.335488,1.4323,0.255942,
2,0,0,0,0,44353.1,0.248799,0.248465,-0.119681,23,0.0212036,10,-2.97365e-05,-3.92198,-0.247297,-0.23858,1.12404,0.248465,
2,0,0,1,0,44354.6,0.241308,0.241038,-0.131711,23,0.0209961,10,-3.17473e-05,-3.88038,-0.248826,-0.237114,1.20664,0.241038,
2,0,0,0,0,44356.1,0.233817,0.233526,-0.139891,23,0.0207736,10,-3.26682e-05,-3.85421,-0.316999,-0.18612,1.01389,0.2335261,
2,0,0,1,0,44357.6,0.226326,0.226034,-0.148476,23,0.0205374,10,-3.35607e-05,-3.82834,-0.276584,-0.213317,1.23698,0.226034,
2,0,0,0,0,44359.1,0.218835,0.218517,-0.15679,23,0.0202881,10,-3.42613e-05,-3.80468,-0.334294,-0.176492,1.08028,0.218517,
2,0,0,1,0,44360.6,0.211344,0.211019,-0.165808,23,0.020026,10,-3.49886e-05,-3.78039,-0.431014,-0.136886,0.884521,0.211019,
2,0,0,1,0,44362.1,0.203854,0.203546,-0.17362,23,0.0197501,10,-3.53396e-05,-3.7604,-0.343695,-0.171664,1.17023,0.2035457,
2,0,0,1,0,44363.6,0.196363,0.196038,-0.18399,23,0.0194606,10,-3.6069e-05,-3.73521,-0.312078,-0.189056,1.35423,0.196038,
2,0,0,1,0,44365.1,0.188871,0.188533,-0.193965,23,0.0191563,10,-3.65688e-05,-3.71228,-0.243233,-0.242566,1.83307,0.188533,
2,0,0,1,0,44366.6,0.181381,0.1811,-0.205385,23,0.018836,10,-3.71952e-05,-3.68743,-0.314514,-0.187591,1.4972,0.1811,
2,0,0,1,0,44368.1,0.173889,0.173552,-0.21889,23,0.0184971,10,-3.79888e-05,-3.65977,-0.246558,-0.239294,2.0431,0.173552,
2,0,0,1,0,44369.6,0.166398,0.166044,-0.234937,23,0.0181355,10,-3.90099e-05,-3.62905,-0.223316,-0.2642,2.43763,0.166044,
2,0,0,1,0,44371.1,0.158907,0.158602,-0.257178,23,0.0177447,10,-4.07888e-05,-3.58977,-0.165023,-0.357525,3.60898,0.158602,
2,0,0,1,0,44372.6,0.151416,0.151131,-0.292248,23,0.0173128,10,-4.41678e-05,-3.53425,-0.115735,-0.509783,5.81488,0.151131,
2,0,0,1,0,44374.1,0.143925,0.14365,-0.347757,23,0.0168144,10,-4.99553e-05,-3.45872,-0.0784702,-0.751878,10.1972,0.14365,
2,0,0,1,0,44375.6,0.136434,0.136124,-0.432236,23,0.0162096,10,-5.88379e-05,-3.36428,-0.0817519,-0.721696,12.1475,0.136124,
2,0,0,1,0,44377.1,0.128943,0.128608,-0.524489,23,0.0154682,10,-6.74534e-05,-3.28026,-0.115128,-0.512474,10.4447,0.128608,
2,0,0,0,0,44378.6,0.121453,0.121146,-0.589743,23,0.0146056,10,-7.14452e-05,-3.22934,-0.250792,-0.235255,5.39365,0.121146,
2,0,0,1,0,44380.1,0.113962,0.113648,-0.608421,23,0.0136793,10,-6.9146e-05,-3.2158,-2.55325,-0.0231078,0.549434,0.113648,
2,0,0,0,0,44381.6,0.106471,0.106165,-0.605698,23,0.0127436,10,-6.43038e-05,-3.21774,1.56347,0.0377365,-0.893925,0.106165,
2,0,0,1,0,44383.1,0.0989798,0.0986732,-0.594476,23,0.0118202,10,-5.86588e-05,-3.22587,1.17437,0.0502399,-1.16258,0.09867315,
2,0,0,0,0,44384.6,0.0914889,0.0911358,-0.580068,23,0.0109177,10,-5.28649e-05,-3.23652,0.672582,0.0877217,-1.9802,0.0911358,
2,0,0,1,0,44386.1,0.083998,0.0836663,-0.56018,23,0.0100419,10,-4.68682e-05,-3.25167,0.373183,0.158099,-3.44783,0.0836663,
2,0,0,0,0,44387.6,0.076507,0.0762212,-0.540222,23,0.00919488,10,-4.11763e-05,-3.26743,0.443841,0.132931,-2.80028,0.0762212,
2,0,0,1,0,44389.1,0.069016,0.06874,-0.521189,23,0.00837568,10,-3.58266e-05,-3.283,0.57419,0.102754,-2.10041,0.06874001,
2,0,0,0,0,44390.6,0.0615251,0.0612164,-0.505671,23,0.00758128,10,-3.09554e-05,-3.29613,0.575183,0.102576,-2.03138,0.0612164,
2,0,0,1,0,44392.1,0.0540342,0.0537215,-0.490395,23,0.00681193,10,-2.63447e-05,-3.30945,0.541741,0.108908,-2.08165,0.0537215,
2,0,0,1,0,44393.6,0.0465436,0.0462301,-0.474178,23,0.00606776,10,-2.19213e-05,-3.32406,0.564398,0.104536,-1.93123,0.0462301,
2,0,0,1,0,44395.1,0.0390526,0.0387467,-0.456185,23,0.00534944,10,-1.76756e-05,-3.34086,0.392426,0.150347,-2.6697,0.0387467,
2,0,0,1,0,44396.6,0.0315615,0.0312285,-0.43825,23,0.00465689,10,-1.36859e-05,-3.35828,0.430697,0.136987,-2.34921,0.0312285,
2,0,0,1,0,44398.1,0.0240706,0.0237662,-0.424322,23,0.00398827,10,-1.00845e-05,-3.3723,0.504237,0.117008,-1.93938,0.0237662,
2,0,0,1,0,44399.6,0.0165795,0.0163073,-0.414403,23,0.00333805,10,-6.75781e-06,-3.38258,1.42425,0.0414254,-0.671839,0.0163073,
2,0,0,1,0,44401.1,0.00908846,0.0088015,-0.410454,23,0.00269847,10,-3.61261e-06,-3.38674,-17.4784,-0.0033756,0.0540065,0.0088015,
2,0,0,1,0,44402.6,0.00159739,0.00122932,-0.417414,23,0.00205922,10,-5.13133e-07,-3.37943, , , ,0.00122932,
2,0,0,0,0,44402.8,0.000199195,-0.000159264,-0.413941,23,0.00193905,10,6.59258e-08,-3.38306, , , ,-0.000159264,