Folder: Figs_alphaMnO2_OER_Tafel_sleope/Figure_codes/Fig_3-5/rawdata_trumpetplot_data/after 10th (part 35)

File: 20221101_1-115_003_TrumpetPlot_ParaChange_from10_every3_03_CV_C01_33.csv
mode,ox/red,error,control changes,counter inc.,time/s,control/V,Ewe/V,<I>/mA,cycle number,(Q-Qo)/C,I Range,P/W,log(|I|),Tafel slope mV/dec,alpha_eff,dI/d(E-IR),E-IR/V,
2,0,0,1,0,65954.3,2.44065e-05,-0.000363498,-0.110207,34,0.0000000E+000,10,4.00599e-08,-3.95779, , , ,-0.000363498,
2,1,0,1,0,65955.8,0.00729041,0.00700193,0.198522,34,0.00024389,10,1.39004e-06,-3.70219,0.0864285,0.682646,5.25514,0.00700193,
2,1,0,1,0,65957.3,0.0147815,0.0144482,0.229404,34,0.000585678,10,3.31448e-06,-3.6394,0.141028,0.418357,3.75117,0.0144482,
2,1,0,1,0,65958.8,0.0222725,0.021957,0.254772,34,0.000968406,10,5.59404e-06,-3.59385,0.195095,0.302417,3.01238,0.021957,
2,1,0,1,0,65960.3,0.0297635,0.0294233,0.279387,34,0.00138768,10,8.22049e-06,-3.55379,0.21957,0.268707,2.93198,0.02942328,
2,1,0,1,0,65961.8,0.0372545,0.0369239,0.304642,34,0.00184419,10,1.12486e-05,-3.51621,0.208314,0.283226,3.36892,0.0369239,
2,1,0,1,0,65963.3,0.0447456,0.0444294,0.328325,34,0.0023376,10,1.45873e-05,-3.4837,0.240607,0.245213,3.14632,0.0444294,
2,1,0,1,0,65964.8,0.0522367,0.0519075,0.351206,34,0.00286572,10,1.82302e-05,-3.45444,0.24564,0.240189,3.28703,0.05190748,
2,1,0,1,0,65966.3,0.0597277,0.0593792,0.37175,34,0.00342651,10,2.20742e-05,-3.42975,0.337264,0.174937,2.53439,0.0593792,
2,1,0,1,0,65967.8,0.0672187,0.0668955,0.390777,34,0.00401668,10,2.61412e-05,-3.40807,0.398714,0.147976,2.24457,0.0668955,
2,1,0,1,0,65969.3,0.0747092,0.0744185,0.404714,34,0.00463157,10,3.01182e-05,-3.39285,0.536991,0.109871,1.73494,0.0744185,
2,1,0,0,0,65970.8,0.0822001,0.0819209,0.41856,34,0.00526815,10,3.42888e-05,-3.37824,0.454437,0.129831,2.12551,0.0819209,
2,1,0,1,0,65972.3,0.0896911,0.0893957,0.439081,34,0.00592851,10,3.92519e-05,-3.35746,0.351944,0.16764,2.87229,0.0893957,
2,1,0,0,0,65973.7,0.097182,0.0968493,0.46741,34,0.00662463,10,4.52684e-05,-3.3303,0.204474,0.288545,5.25816,0.0968493,
2,1,0,1,0,65975.2,0.104673,0.104345,0.506367,34,0.0073719,10,5.2837e-05,-3.29553,0.22064,0.267404,5.26394,0.104345,
2,1,0,0,0,65976.7,0.112164,0.111814,0.541607,34,0.00817619,10,6.05591e-05,-3.26632,0.334092,0.176598,3.72137,0.111814,
2,1,0,1,0,65978.2,0.119655,0.119319,0.565777,34,0.00902585,10,6.75081e-05,-3.24735,0.726211,0.0812436,1.79369,0.119319,
2,1,0,0,0,65979.7,0.127146,0.126842,0.575816,34,0.00990219,10,7.30375e-05,-3.23972,1.19559,0.0493479,1.1118,0.1268418,
2,1,0,1,0,65981.2,0.134637,0.134301,0.568547,34,0.0107854,10,7.63562e-05,-3.24523,-0.301386,-0.195762,-4.338,0.134301,
2,1,0,1,0,65982.7,0.142127,0.141826,0.508516,34,0.0116186,10,7.21209e-05,-3.2937,-0.104108,-0.566718,-11.1835,0.141826,
2,1,0,1,0,65984.2,0.149618,0.149312,0.411452,34,0.0123253,10,6.14349e-05,-3.38568,-0.0807756,-0.730419,-11.7473,0.149312,
2,1,0,1,0,65985.7,0.157109,0.156828,0.346457,34,0.0129053,10,5.43344e-05,-3.46035,-0.131808,-0.447622,-6.07395,0.156828,
2,1,0,1,0,65987.2,0.1646,0.164271,0.320354,34,0.0134194,10,5.26249e-05,-3.49437,-0.2742,-0.215172,-2.68632,0.164271,
2,1,0,1,0,65988.7,0.172091,0.171779,0.305488,34,0.0139049,10,5.24764e-05,-3.51501,-0.654563,-0.0901364,-1.08006,0.171779,
2,1,0,1,0,65990.2,0.179582,0.17925,0.298954,34,0.0143754,10,5.35876e-05,-3.5244,-1.21247,-0.0486611,-0.569471,0.1792503,
2,1,0,1,0,65991.7,0.187074,0.186774,0.295832,34,0.0148378,10,5.52537e-05,-3.52896,-1.60692,-0.0367162,-0.422856,0.186774,
2,1,0,1,0,65993.2,0.194564,0.194279,0.292636,34,0.0152951,10,5.6853e-05,-3.53367,-2.24361,-0.026297,-0.299136,0.194279,
2,1,0,1,0,65994.7,0.202056,0.201755,0.290402,34,0.0157483,10,5.85903e-05,-3.537,-2.06869,-0.0285205,-0.322456,0.201755,
2,1,0,1,0,65996.2,0.209547,0.209244,0.288416,34,0.016199,10,6.03493e-05,-3.53998,-1.6802,-0.0351148,-0.39548,0.209244,
2,1,0,1,0,65997.7,0.217038,0.21669,0.285734,34,0.0166463,10,6.19158e-05,-3.54404,-2.96291,-0.0199129,-0.222825,0.21669,
2,1,0,1,0,65999.2,0.224529,0.224183,0.285512,34,0.0170914,10,6.4007e-05,-3.54438,-2.56418,-0.0230093,-0.255586,0.224183,
2,1,0,1,0,66000.7,0.232019,0.23174,0.283015,34,0.0175339,10,6.5586e-05,-3.54819,-4.18862,-0.0140858,-0.155988,0.23174,
2,1,0,0,0,66002.2,0.23951,0.239204,0.281729,34,0.0179739,10,6.73905e-05,-3.55017,-2.15256,-0.0274093,-0.301891,0.239204,
2,1,0,1,0,66003.7,0.247001,0.246701,0.280204,34,0.0184115,10,6.91264e-05,-3.55253,-2.34108,-0.025202,-0.275072,0.246701,
2,1,0,0,0,66005.2,0.254492,0.254171,0.278583,34,0.0188467,10,7.08077e-05,-3.55505,-1.7543,-0.0336317,-0.366055,0.254171,
2,1,0,1,0,66006.7,0.261983,0.261681,0.277584,34,0.0192795,10,7.26385e-05,-3.5566,-1.72567,-0.0341896,-0.369538,0.261681,
2,1,0,0,0,66008.2,0.269474,0.269159,0.275123,34,0.01971,10,7.40517e-05,-3.56047,47.7525,0.00123554,0.0132755,0.269159,
2,1,0,1,0,66009.7,0.276965,0.276706,0.273715,34,0.0201379,10,7.57386e-05,-3.5627,-12.5471,-0.00470228,-0.0502141,0.276706,
2,1,0,0,0,66011.2,0.284456,0.284136,0.271959,34,0.020563,10,7.72733e-05,-3.5655,-2.59771,-0.0227123,-0.241268,0.284136,
2,1,0,1,0,66012.7,0.291947,0.291622,0.270168,34,0.0209851,10,7.87869e-05,-3.56837,-3.989,-0.0147907,-0.155918,0.291622,
2,1,0,1,0,66014.2,0.299437,0.299151,0.269142,34,0.0214051,10,8.05141e-05,-3.57002,-0.00292946,-20.1402,-113.243,0.299151,
2,0,0,1,0,66015.6,0.293744,0.293445,-0.0164046,34,0.0214514,10,-4.81384e-06,-4.78504,-0.0042857,-13.7667,5.74731,0.293445,
2,0,0,1,0,66017.1,0.286253,0.285949,-0.0467807,34,0.0213863,10,-1.33769e-05,-4.32993,-0.0332416,-1.77488,3.25292,0.285949,
2,0,0,0,0,66018.6,0.278763,0.278447,-0.0676508,34,0.021283,10,-1.88372e-05,-4.16973,-0.0648175,-0.910248,2.41649,0.278447,
2,0,0,1,0,66020.1,0.271272,0.27097,-0.0847329,34,0.0211517,10,-2.29601e-05,-4.07195,-0.101136,-0.583373,1.92253,0.27097,
2,0,0,0,0,66021.6,0.263781,0.263477,-0.0981264,34,0.0209977,10,-2.58541e-05,-4.00821,-0.131503,-0.448659,1.72149,0.2634773,
2,0,0,1,0,66023.1,0.25629,0.255958,-0.110991,34,0.0208239,10,-2.84091e-05,-3.95471,-0.173787,-0.339497,1.46253,0.255958,
2,0,0,0,0,66024.6,0.248799,0.24849,-0.121233,34,0.0206331,10,-3.0125e-05,-3.91638,-0.190519,-0.30968,1.46038,0.24849,
2,0,0,1,0,66026.1,0.241308,0.240989,-0.131358,34,0.020427,10,-3.16558e-05,-3.88154,-0.355403,-0.166009,0.851714,0.240989,
2,0,0,0,0,66027.6,0.233817,0.233485,-0.139736,34,0.0202069,10,-3.26263e-05,-3.85469,-0.25953,-0.227334,1.24547,0.233485,
2,0,0,1,0,66029.1,0.226326,0.226017,-0.14889,34,0.0199735,10,-3.36517e-05,-3.82714,-0.311352,-0.189496,1.09867,0.226017,
2,0,0,0,0,66030.6,0.218835,0.218526,-0.157628,34,0.0197267,10,-3.44457e-05,-3.80237,-0.315496,-0.187007,1.14831,0.2185256,
2,0,0,1,0,66032,0.211344,0.211054,-0.165968,34,0.0194671,10,-3.50283e-05,-3.77997,-0.452901,-0.130271,0.84265,0.211054,
2,0,0,1,0,66033.5,0.203854,0.203563,-0.17382,34,0.0191945,10,-3.53833e-05,-3.7599,-0.348986,-0.169061,1.15165,0.203563,
2,0,0,1,0,66035,0.196362,0.196053,-0.183509,34,0.0189092,10,-3.59774e-05,-3.73634,-0.32844,-0.179637,1.2805,0.196053,
2,0,0,1,0,66036.5,0.188871,0.18854,-0.192567,34,0.0186094,10,-3.63065e-05,-3.71542,-0.24649,-0.239361,1.7929,0.18854,
2,0,0,1,0,66038,0.181381,0.181069,-0.203812,34,0.0182943,10,-3.69041e-05,-3.69077,-0.354456,-0.166452,1.32434,0.181069,
2,0,0,1,0,66039.5,0.173889,0.173562,-0.216481,34,0.0179618,10,-3.7573e-05,-3.66458,-0.285044,-0.206986,1.74487,0.173562,
2,0,0,1,0,66041,0.166398,0.166041,-0.231833,34,0.0176084,10,-3.84936e-05,-3.63483,-0.268458,-0.219774,1.99017,0.166041,
2,0,0,1,0,66042.5,0.158907,0.158582,-0.249527,34,0.0172291,10,-3.95705e-05,-3.60288,-0.177788,-0.331855,3.26068,0.158582,
2,0,0,1,0,66044,0.151416,0.151063,-0.279827,34,0.0168146,10,-4.22716e-05,-3.55311,-0.132489,-0.44532,4.87069,0.151063,
2,0,0,1,0,66045.5,0.143925,0.143595,-0.324817,34,0.0163457,10,-4.6642e-05,-3.48836,-0.0865891,-0.681379,8.65705,0.143595,
2,0,0,1,0,66047,0.136434,0.136095,-0.397097,34,0.0157873,10,-5.40428e-05,-3.4011,-0.0840732,-0.701769,10.8571,0.136095,
2,0,0,1,0,66048.5,0.128943,0.128621,-0.480745,34,0.0151108,10,-6.18337e-05,-3.31809,-0.107683,-0.547906,10.2296,0.128621,
2,0,0,0,0,66050,0.121453,0.12108,-0.546254,34,0.0143181,10,-6.61401e-05,-3.26261,-0.208855,-0.282492,6.0104,0.12108,
2,0,0,1,0,66051.5,0.113962,0.113606,-0.573409,34,0.0134526,10,-6.51425e-05,-3.24154,-0.879722,-0.0670666,1.50362,0.113606,
2,0,0,0,0,66053,0.106471,0.106172,-0.576053,34,0.0125663,10,-6.11609e-05,-3.23954,7.25533,0.00813195,-0.183778,0.106172,
2,0,0,1,0,66054.5,0.0989798,0.0986806,-0.571484,34,0.0116836,10,-5.63944e-05,-3.243,1.69444,0.0348197,-0.774893,0.0986806,
2,0,0,0,0,66056,0.0914889,0.0911369,-0.563503,34,0.0108139,10,-5.13559e-05,-3.2491,0.710586,0.0830301,-1.81743,0.09113685,
2,0,0,1,0,66057.5,0.083998,0.0836196,-0.547222,34,0.00996308,10,-4.57585e-05,-3.26184,0.520661,0.113318,-2.41825,0.0836196,
2,0,0,0,0,66059,0.076507,0.076165,-0.531406,34,0.00913551,10,-4.04745e-05,-3.27457,0.541494,0.108958,-2.25972,0.076165,
2,0,0,1,0,66060.5,0.069016,0.0686912,-0.514565,34,0.00833196,10,-3.53461e-05,-3.28856,0.839821,0.0702531,-1.41656,0.0686912,
2,0,0,0,0,66062,0.0615251,0.0612313,-0.499962,34,0.00755074,10,-3.06133e-05,-3.30106,0.562005,0.104981,-2.05122,0.0612313,
2,0,0,1,0,66063.5,0.0540342,0.0537427,-0.484585,34,0.00679341,10,-2.60429e-05,-3.31463,0.61072,0.0966073,-1.82722,0.0537427,
2,0,0,1,0,66065,0.0465436,0.0462354,-0.468526,34,0.00606011,10,-2.16625e-05,-3.32927,0.498321,0.118398,-2.16715,0.0462354,
2,0,0,1,0,66066.5,0.0390526,0.0387118,-0.451404,34,0.00535187,10,-1.74746e-05,-3.34544,0.342242,0.172393,-3.03176,0.0387118,
2,0,0,1,0,66068,0.0315615,0.0312273,-0.435473,34,0.00466884,10,-1.35986e-05,-3.36104,0.506785,0.11642,-1.98046,0.0312273,
2,0,0,1,0,66069.5,0.0240706,0.023759,-0.421491,34,0.00400846,10,-1.00142e-05,-3.37521,0.643009,0.0917562,-1.51268,0.02375898,
2,0,0,1,0,66071,0.0165795,0.0162703,-0.413305,34,0.00336525,10,-6.7246e-06,-3.38373,1.00637,0.0586267,-0.945626,0.0162703,
2,0,0,1,0,66072.5,0.00908846,0.00878681,-0.4092,34,0.00273164,10,-3.59556e-06,-3.38806,20.3529,0.00289884,-0.0462712,0.00878681,
2,0,0,1,0,66074,0.00159739,0.00123546,-0.415615,34,0.00209818,10,-5.13475e-07,-3.38131, , , ,0.00123546,
2,0,0,0,0,66074.3,0.000199195,-0.000163081,-0.412414,34,0.00197895,10,6.72571e-08,-3.38467, , , ,-0.000163081,

File: 20221101_1-115_003_TrumpetPlot_ParaChange_from10_every3_03_CV_C01_34.csv
mode,ox/red,error,control changes,counter inc.,time/s,control/V,Ewe/V,<I>/mA,cycle number,(Q-Qo)/C,I Range,P/W,log(|I|),Tafel slope mV/dec,alpha_eff,dI/d(E-IR),E-IR/V,
2,0,0,1,0,67924.4,2.44065e-05,-0.000363498,-0.0936697,35,0.0000000E+000,10,3.40488e-08,-4.0284, , , ,-0.000363498,
2,1,0,1,0,67925.9,0.0072904,0.00697534,0.197207,35,0.000245113,10,1.37559e-06,-3.70508,0.0794078,0.743,5.71299,0.00697534,
2,1,0,1,0,67927.4,0.0147815,0.0144301,0.227485,35,0.000585983,10,3.28264e-06,-3.64305,0.159219,0.37056,3.29668,0.0144301,
2,1,0,1,0,67928.9,0.0222725,0.0219389,0.251742,35,0.000966637,10,5.52295e-06,-3.59904,0.175302,0.336562,3.31394,0.0219389,
2,1,0,1,0,67930.4,0.0297635,0.029452,0.278258,35,0.00138464,10,8.19523e-06,-3.55555,0.195603,0.301632,3.26562,0.029452,
2,1,0,1,0,67931.9,0.0372545,0.0369088,0.302393,35,0.00183985,10,1.1161e-05,-3.51943,0.216866,0.272057,3.22819,0.0369088,
2,1,0,1,0,67933.4,0.0447456,0.0443912,0.32729,35,0.00233238,10,1.45288e-05,-3.48507,0.252433,0.233725,2.9802,0.0443912,
2,1,0,1,0,67934.9,0.0522367,0.0518607,0.349043,35,0.00286006,10,1.81016e-05,-3.45712,0.243866,0.241936,3.29575,0.0518607,
2,1,0,1,0,67936.4,0.0597277,0.0593772,0.370191,35,0.00342047,10,2.19809e-05,-3.43157,0.301739,0.195533,2.82179,0.0593772,
2,1,0,1,0,67937.9,0.0672187,0.0669016,0.388819,35,0.0040097,10,2.60126e-05,-3.41025,0.373047,0.158157,2.39596,0.0669016,
2,1,0,1,0,67939.4,0.0747092,0.0744026,0.402047,35,0.00462331,10,2.99134e-05,-3.39572,0.608839,0.0969058,1.52505,0.0744026,
2,1,0,0,0,67940.9,0.0822001,0.0818965,0.415025,35,0.00525893,10,3.39891e-05,-3.38193,0.529657,0.111393,1.81228,0.0818965,
2,1,0,1,0,67942.4,0.0896911,0.0893829,0.436083,35,0.00591827,10,3.89784e-05,-3.36043,0.295366,0.199752,3.40665,0.0893829,
2,1,0,0,0,67943.9,0.097182,0.0967814,0.464208,35,0.0066139,10,4.49267e-05,-3.33329,0.208434,0.283063,5.14006,0.0967814,
2,1,0,1,0,67945.4,0.104673,0.10435,0.504552,35,0.00736036,10,5.26498e-05,-3.29709,0.202917,0.290759,5.69696,0.10435,
2,1,0,0,0,67946.9,0.112164,0.111884,0.539822,35,0.00816408,10,6.03973e-05,-3.26775,0.34339,0.171816,3.60702,0.1118837,
2,1,0,1,0,67948.4,0.119655,0.119331,0.562721,35,0.00901237,10,6.715e-05,-3.24971,0.758071,0.0778291,1.7088,0.119331,
2,1,0,0,0,67949.9,0.127146,0.126827,0.573451,35,0.00988689,10,7.2729e-05,-3.2415,2.15607,0.0273646,0.613446,0.126827,
2,1,0,1,0,67951.4,0.134637,0.134319,0.564127,35,0.0107667,10,7.57728e-05,-3.24862,-0.287057,-0.205534,-4.5227,0.134319,
2,1,0,1,0,67952.9,0.142127,0.141793,0.499994,35,0.0115936,10,7.08958e-05,-3.30104,-0.0974483,-0.605449,-11.7872,0.141793,
2,1,0,1,0,67954.4,0.149618,0.14928,0.405022,35,0.0122927,10,6.04615e-05,-3.39252,-0.0843069,-0.699824,-11.0996,0.14928,
2,1,0,1,0,67955.9,0.157109,0.156773,0.344665,35,0.0128687,10,5.40341e-05,-3.4626,-0.136198,-0.433194,-5.83192,0.156773,
2,1,0,1,0,67957.4,0.1646,0.164269,0.318512,35,0.0133818,10,5.23215e-05,-3.49687,-0.298285,-0.197797,-2.45516,0.164269,
2,1,0,1,0,67958.9,0.172091,0.171782,0.304852,35,0.0138672,10,5.23681e-05,-3.51591,-0.566364,-0.104173,-1.24287,0.171782,
2,1,0,1,0,67960.4,0.179582,0.179248,0.297875,35,0.0143388,10,5.33935e-05,-3.52597,-1.47545,-0.0399879,-0.466222,0.179248,
2,1,0,1,0,67961.9,0.187074,0.186749,0.294512,35,0.0148025,10,5.5e-05,-3.5309,-2.11251,-0.0279288,-0.320714,0.186749,
2,1,0,1,0,67963.4,0.194564,0.194227,0.291893,35,0.0152611,10,5.66934e-05,-3.53478,-3.12849,-0.0188589,-0.21465,0.194227,
2,1,0,1,0,67964.9,0.202056,0.20175,0.289285,35,0.0157157,10,5.83633e-05,-3.53867,-1.19649,-0.0493111,-0.556121,0.20175,
2,1,0,1,0,67966.4,0.209547,0.209237,0.288129,35,0.0161674,10,6.02871e-05,-3.54041,-2.51211,-0.0234862,-0.26411,0.209237,
2,1,0,1,0,67967.9,0.217038,0.216721,0.284869,35,0.0166156,10,6.17371e-05,-3.54535,-1.9885,-0.0296706,-0.330903,0.216721,
2,1,0,1,0,67969.3,0.224529,0.224223,0.283661,35,0.0170612,10,6.36032e-05,-3.5472,-1.65261,-0.035701,-0.395171,0.224223,
2,1,0,1,0,67970.8,0.232019,0.231712,0.282198,35,0.0175039,10,6.53887e-05,-3.54945,5.16921,0.0114137,0.125654,0.231712,
2,1,0,0,0,67972.3,0.23951,0.239214,0.28207,35,0.0179445,10,6.74752e-05,-3.54964,-12.1427,-0.00485891,-0.0532418,0.239214,
2,1,0,1,0,67973.8,0.247001,0.246677,0.279883,35,0.0183827,10,6.90407e-05,-3.55302,-2.43135,-0.0242663,-0.264349,0.246677,
2,1,0,0,0,67975.3,0.254492,0.254194,0.277283,35,0.018819,10,7.04837e-05,-3.55708,-1.79866,-0.0328022,-0.356251,0.2541945,
2,1,0,1,0,67976.8,0.261983,0.261654,0.276318,35,0.0192523,10,7.22999e-05,-3.55859,-2.25188,-0.0262004,-0.283314,0.261654,
2,1,0,0,0,67978.3,0.269474,0.269178,0.275641,35,0.0196833,10,7.41965e-05,-3.55966,4.96573,0.0118814,0.127571,0.269178,
2,1,0,1,0,67979.8,0.276965,0.276645,0.27319,35,0.0201123,10,7.55766e-05,-3.56354,-1.29114,-0.0456959,-0.488258,0.276645,
2,1,0,0,0,67981.3,0.284456,0.284173,0.27129,35,0.0205382,10,7.70934e-05,-3.56657,-4.16612,-0.0141619,-0.150836,0.284173,
2,1,0,1,0,67982.8,0.291947,0.291585,0.269525,35,0.020962,10,7.85896e-05,-3.5694,-2.96874,-0.0198738,-0.209076,0.291585,
2,1,0,1,0,67984.3,0.299437,0.299132,0.268079,35,0.0213826,10,8.01911e-05,-3.57174,-0.00277842,-21.2351,-117.902,0.299132,
2,0,0,1,0,67985.7,0.293744,0.293392,-0.0143083,35,0.0214288,10,-4.19794e-06,-4.84441,-0.00325532,-18.1242,5.72107,0.293392,
2,0,0,1,0,67987.2,0.286253,0.285963,-0.0448573,35,0.0213649,10,-1.28275e-05,-4.34817,-0.0315369,-1.87083,3.30983,0.285963,
2,0,0,0,0,67988.7,0.278763,0.278411,-0.0660068,35,0.021263,10,-1.8377e-05,-4.18041,-0.0596867,-0.988494,2.52507,0.278411,
2,0,0,1,0,67990.2,0.271272,0.270952,-0.082738,35,0.0211324,10,-2.2418e-05,-4.0823,-0.112674,-0.523636,1.688,0.270952,
2,0,0,0,0,67991.7,0.263781,0.263479,-0.0973269,35,0.0209789,10,-2.56436e-05,-4.01177,-0.128342,-0.45971,1.74273,0.263479,
2,0,0,1,0,67993.2,0.25629,0.255944,-0.109111,35,0.0208057,10,-2.79264e-05,-3.96213,-0.183573,-0.321399,1.36135,0.255944,
2,0,0,0,0,67994.7,0.248799,0.248504,-0.120114,35,0.0206157,10,-2.98488e-05,-3.92041,-0.217027,-0.271855,1.26737,0.248504,
2,0,0,1,0,67996.2,0.241308,0.241019,-0.128753,35,0.0204106,10,-3.10319e-05,-3.89024,-0.26458,-0.222995,1.12576,0.241019,
2,0,0,0,0,67997.7,0.233817,0.233458,-0.139201,35,0.0201912,10,-3.24975e-05,-3.85636,-0.226992,-0.259921,1.41268,0.233458,
2,0,0,1,0,67999.2,0.226326,0.225986,-0.147199,35,0.0199575,10,-3.3265e-05,-3.83209,-0.297724,-0.19817,1.14383,0.225986,
2,0,0,0,0,68000.7,0.218835,0.218462,-0.15668,35,0.0197108,10,-3.42285e-05,-3.80499,-0.298662,-0.197548,1.20432,0.218462,
2,0,0,1,0,68002.2,0.211344,0.21102,-0.164634,35,0.0194513,10,-3.47412e-05,-3.78348,-0.343608,-0.171707,1.10319,0.21102,
2,0,0,1,0,68003.7,0.203854,0.203507,-0.172796,35,0.0191788,10,-3.51653e-05,-3.76247,-0.341199,-0.17292,1.17304,0.203507,
2,0,0,1,0,68005.2,0.196363,0.19606,-0.183072,35,0.0188931,10,-3.58932e-05,-3.73738,-0.29613,-0.199237,1.41827,0.19606,
2,0,0,1,0,68006.7,0.188871,0.188529,-0.19127,35,0.0185928,10,-3.60599e-05,-3.71835,-0.229974,-0.256551,1.91331,0.188529,
2,0,0,1,0,68008.2,0.181381,0.181012,-0.204175,35,0.0182775,10,-3.6958e-05,-3.69,-0.316128,-0.186633,1.47895,0.1810118,
2,0,0,1,0,68009.7,0.173889,0.17357,-0.215473,35,0.0179446,10,-3.73995e-05,-3.66661,-0.240837,-0.244979,2.05421,0.17357,
2,0,0,1,0,68011.2,0.166398,0.166089,-0.229865,35,0.0175911,10,-3.81779e-05,-3.63853,-0.281677,-0.20946,1.89521,0.1660886,
2,0,0,1,0,68012.7,0.158907,0.158545,-0.249029,35,0.0172118,10,-3.94823e-05,-3.60375,-0.199716,-0.295419,2.88909,0.158545,
2,0,0,1,0,68014.2,0.151416,0.151088,-0.278764,35,0.0167973,10,-4.21178e-05,-3.55476,-0.133386,-0.442324,4.81078,0.151088,
2,0,0,1,0,68015.7,0.143925,0.143617,-0.323061,35,0.0163285,10,-4.63971e-05,-3.49072,-0.0898806,-0.656426,8.33445,0.143617,
2,0,0,1,0,68017.2,0.136434,0.136088,-0.394979,35,0.0157714,10,-5.3752e-05,-3.40343,-0.0835559,-0.706114,10.8531,0.136088,
2,0,0,1,0,68018.7,0.128943,0.128609,-0.476825,35,0.015097,10,-6.13241e-05,-3.32164,-0.105176,-0.560963,10.4143,0.128609,
2,0,0,0,0,68020.2,0.121453,0.121137,-0.54343,35,0.0143066,10,-6.58294e-05,-3.26486,-0.201044,-0.293468,6.21031,0.121137,
2,0,0,1,0,68021.7,0.113962,0.113641,-0.569891,35,0.0134437,10,-6.47629e-05,-3.24421,-0.897049,-0.0657712,1.46511,0.1136408,
2,0,0,0,0,68023.2,0.106471,0.106143,-0.574432,35,0.0125604,10,-6.09717e-05,-3.24076,13.4541,0.00438529,-0.0984096,0.106143,
2,0,0,1,0,68024.7,0.0989798,0.0986456,-0.568191,35,0.0116805,10,-5.60495e-05,-3.24551,1.45177,0.0406401,-0.900485,0.0986456,
2,0,0,0,0,68026.2,0.0914889,0.0911294,-0.560239,35,0.0108131,10,-5.10543e-05,-3.25163,0.956497,0.0616834,-1.3451,0.0911294,
2,0,0,1,0,68027.6,0.083998,0.0836801,-0.545323,35,0.0099632,10,-4.56327e-05,-3.26335,0.510907,0.115481,-2.45401,0.0836801,
2,0,0,0,0,68029.1,0.076507,0.0761597,-0.530627,35,0.00913557,10,-4.04123e-05,-3.27521,0.573775,0.102828,-2.12838,0.0761597,
2,0,0,1,0,68030.6,0.069016,0.0686827,-0.512749,35,0.00833199,10,-3.5217e-05,-3.2901,0.547798,0.107704,-2.16396,0.0686827,
2,0,0,0,0,68032.1,0.0615251,0.0612366,-0.499109,35,0.00755136,10,-3.05637e-05,-3.3018,0.544679,0.108321,-2.11518,0.0612366,
2,0,0,1,0,68033.6,0.0540342,0.0537194,-0.48303,35,0.0067946,10,-2.59481e-05,-3.31603,0.752196,0.078437,-1.47662,0.0537194,
2,0,0,1,0,68035.1,0.0465436,0.0461909,-0.465801,35,0.00606211,10,-2.15157e-05,-3.3318,0.542993,0.108657,-1.9809,0.0461909,
2,0,0,1,0,68036.6,0.0390526,0.0386819,-0.449363,35,0.00535498,10,-1.73822e-05,-3.3474,0.368512,0.160103,-2.79937,0.0386819,
2,0,0,1,0,68038.1,0.0315615,0.0312029,-0.433306,35,0.00467293,10,-1.35204e-05,-3.3632,0.441278,0.133703,-2.26284,0.0312029,
2,0,0,1,0,68039.6,0.0240706,0.0237567,-0.419794,35,0.0040131,10,-9.97293e-06,-3.37696,0.681078,0.0866273,-1.42184,0.0237567,
2,0,0,1,0,68041.1,0.0165795,0.0162256,-0.411536,35,0.00337023,10,-6.67742e-06,-3.38559,1.95593,0.0301648,-0.485478,0.0162256,
2,0,0,1,0,68042.6,0.00908846,0.00877724,-0.40847,35,0.0027363,10,-3.58524e-06,-3.38884,4.33285,0.0136169,-0.2174,0.00877724,
2,0,0,1,0,68044.1,0.00159739,0.0012483,-0.41449,35,0.00210208,10,-5.17406e-07,-3.38249, , , ,0.001248296,
2,0,0,0,0,68044.4,0.000199195,-0.000191712,-0.412046,35,0.0019828,10,7.89943e-08,-3.38505, , , ,-0.0001917123,