Folder: Figs_alphaMnO2_OER_Tafel_sleope/Figure_codes/Fig_3-5/rawdata_trumpetplot_data/after 10th (part 163)

File: 20221101_1-115_003_TrumpetPlot_ParaChange_from10_every3_11_CV_C01_12.csv
mode,ox/red,error,control changes,counter inc.,time/s,control/V,Ewe/V,<I>/mA,cycle number,(Q-Qo)/C,I Range,P/W,log(|I|),Tafel slope mV/dec,alpha_eff,dI/d(E-IR),E-IR/V,
2,1,0,1,0,24836.1,2.44065e-05,-0.000344411,9.92065,13,0.0000000E+000,10,-3.41678e-06,-2.00346, , , ,-0.000344411,
2,1,0,1,0,24836.1,0.0101427,0.00976869,13.8067,13,0.000307332,10,0.000134874,-1.85991,0.124501,0.473893,253.793,0.00976869,
2,1,0,1,0,24836.1,0.0205441,0.0201798,15.9056,13,0.000695645,10,0.000320971,-1.79845,0.22148,0.266389,165.093,0.0201798,
2,1,0,1,0,24836.2,0.0309482,0.0305866,17.4108,13,0.00112978,10,0.000532538,-1.75918,0.304973,0.19346,131.366,0.0305866,
2,1,0,1,0,24836.2,0.0413439,0.0410083,18.6755,13,0.00159924,10,0.000765849,-1.72873,0.38196,0.154467,112.442,0.04100826,
2,1,0,1,0,24836.2,0.0517425,0.0513727,19.8333,13,0.0021,10,0.00101889,-1.7026,0.406862,0.145012,112.333,0.0513727,
2,1,0,1,0,24836.2,0.0621438,0.0617562,21.0231,13,0.00263133,10,0.00129831,-1.6773,0.416416,0.141685,116.281,0.0617562,
2,1,0,1,0,24836.3,0.0725479,0.0721524,22.2573,13,0.00319388,10,0.00160592,-1.65253,0.421179,0.140083,121.587,0.0721524,
2,1,0,1,0,24836.3,0.0829437,0.0825645,23.4873,13,0.00378875,10,0.00193922,-1.62917,0.468515,0.12593,115.432,0.0825645,
2,1,0,1,0,24836.3,0.0933422,0.093,24.7325,13,0.00441545,10,0.00230012,-1.60673,0.460787,0.128042,123.585,0.093,
2,1,0,1,0,24836.3,0.103749,0.103395,25.9639,13,0.00507473,10,0.00268454,-1.58563,0.511724,0.115297,116.82,0.103395,
2,1,0,1,0,24836.4,0.114148,0.113791,27.2102,13,0.00576576,10,0.00309628,-1.56527,0.489559,0.120517,127.944,0.113791,
2,1,0,1,0,24836.4,0.124543,0.124161,28.6142,13,0.00649117,10,0.00355277,-1.54342,0.448405,0.131578,147.021,0.124161,
2,1,0,1,0,24836.4,0.134942,0.134577,30.254,13,0.00725647,10,0.00407151,-1.51922,0.417857,0.141197,166.822,0.134577,
2,1,0,1,0,24836.4,0.145349,0.145032,31.9846,13,0.00806588,10,0.00463879,-1.49506,0.462696,0.127514,158.993,0.145032,
2,1,0,1,0,24836.5,0.155747,0.155402,33.4996,13,0.00891763,10,0.0052059,-1.47496,0.589781,0.100037,130.647,0.155402,
2,1,0,1,0,24836.5,0.166143,0.165815,34.5944,13,0.00980419,10,0.00573627,-1.46099,1.0856,0.0543478,73.3235,0.165815,
2,1,0,1,0,24836.5,0.176542,0.176221,34.8424,13,0.0107097,10,0.00613996,-1.45789,-1.91323,-0.0308378,-41.8405,0.176221,
2,1,0,1,0,24836.6,0.186949,0.186654,33.6035,13,0.0116029,10,0.00627224,-1.47361,-0.385432,-0.153075,-200.235,0.186654,
2,1,0,1,0,24836.6,0.197347,0.197009,30.7867,13,0.0124425,10,0.00606525,-1.51164,-0.218406,-0.27014,-324.122,0.197009,
2,1,0,1,0,24836.6,0.207743,0.207427,27.2053,13,0.0131964,10,0.00564312,-1.56535,-0.182652,-0.323018,-342.764,0.2074274,
2,1,0,1,0,24836.6,0.218141,0.217829,23.8624,13,0.0138586,10,0.00519792,-1.62229,-0.1915,-0.308094,-287.245,0.217829,
2,1,0,1,0,24836.7,0.228548,0.22823,21.2727,13,0.0144434,10,0.00485507,-1.67218,-0.229279,-0.257328,-213.87,0.22823,
2,1,0,1,0,24836.7,0.238947,0.238616,19.3955,13,0.0149705,10,0.00462807,-1.7123,-0.29052,-0.203084,-153.834,0.238616,
2,1,0,1,0,24836.7,0.249343,0.249047,18.0456,13,0.0154562,10,0.00449421,-1.74363,-0.377248,-0.156396,-110.234,0.249047,
2,1,0,1,0,24836.7,0.259741,0.259423,17.0573,13,0.0159118,10,0.00442507,-1.76809,-0.47814,-0.123395,-82.1926,0.259423,
2,1,0,1,0,24836.8,0.270148,0.269849,16.3041,13,0.016345,10,0.00439966,-1.7877,-0.613364,-0.0961908,-61.2604,0.2698493,
2,1,0,1,0,24836.8,0.280547,0.28023,15.7177,13,0.016761,10,0.00440457,-1.80361,-0.712894,-0.0827612,-50.7608,0.2802296,
2,1,0,1,0,24836.8,0.290942,0.290619,15.2232,13,0.017163,10,0.00442417,-1.81749,-0.810166,-0.0728245,-43.2766,0.290619,
2,1,0,0,0,24836.8,0.300012,0.299689,14.855,13,0.0175044,10,0.00445188,-1.82813,0.000991383,59.5128,29631,0.2996892,
2,1,0,1,0,24836.9,0.290704,0.290399,3.57221,13,0.0176915,10,0.00103736,-2.44706,0.0108908,5.4174,711.864,0.2903989,
2,0,0,1,0,24836.9,0.280305,0.279999,-1.54873,13,0.0177094,10,-0.000433645,-2.81002,-0.00738487,-7.9893,344.268,0.279999,
2,0,0,1,0,24836.9,0.269909,0.269596,-4.28812,13,0.0176299,10,-0.00115606,-2.36773,-0.0480292,-1.22842,201.943,0.269596,
2,0,0,1,0,24836.9,0.2595,0.259203,-5.99124,13,0.0174947,10,-0.00155295,-2.22248,-0.102798,-0.573943,133.249,0.259203,
2,0,0,1,0,24837,0.249104,0.248758,-7.15811,13,0.0173229,10,-0.00178064,-2.1452,-0.175777,-0.335653,93.5099,0.248758,
2,0,0,1,0,24837,0.238705,0.238415,-8.03856,13,0.0171248,10,-0.00191651,-2.09482,-0.243394,-0.242405,76.0702,0.2384146,
2,0,0,1,0,24837,0.22831,0.228013,-8.75922,13,0.016906,10,-0.00199722,-2.05753,-0.31328,-0.18833,64.3899,0.228013,
2,0,0,1,0,24837,0.2179,0.217619,-9.39857,13,0.0166697,10,-0.00204531,-2.02694,-0.384272,-0.153537,56.2052,0.217619,
2,0,0,1,0,24837.1,0.207504,0.207178,-9.94545,13,0.0164181,10,-0.00206048,-2.00238,-0.437455,-0.134871,52.4171,0.207178,
2,0,0,1,0,24837.1,0.197106,0.196765,-10.493,13,0.0161522,10,-0.00206466,-1.9791,-0.441808,-0.133542,54.7284,0.196765,
2,0,0,1,0,24837.1,0.18671,0.186373,-11.0436,13,0.0158721,10,-0.00205823,-1.95689,-0.465664,-0.126701,54.5728,0.186373,
2,0,0,1,0,24837.1,0.1763,0.175967,-11.6422,13,0.0155773,10,-0.00204865,-1.93396,-0.441317,-0.133691,60.7528,0.175967,
2,0,0,1,0,24837.2,0.165905,0.165531,-12.3457,13,0.0152658,10,-0.00204359,-1.90848,-0.379536,-0.155453,74.9625,0.165531,
2,0,0,1,0,24837.2,0.155506,0.155189,-13.2767,13,0.0149333,10,-0.0020604,-1.87691,-0.284077,-0.20769,107.714,0.155189,
2,0,0,1,0,24837.2,0.145105,0.144832,-14.6202,13,0.0145716,10,-0.00211747,-1.83505,-0.214052,-0.275634,157.625,0.1448316,
2,0,0,1,0,24837.2,0.134701,0.134401,-16.657,13,0.0141665,10,-0.00223872,-1.7784,-0.162142,-0.363879,237.018,0.134401,
2,0,0,1,0,24837.3,0.124305,0.124019,-19.4995,13,0.0136977,10,-0.00241831,-1.70998,-0.149741,-0.394013,299.923,0.124019,
2,0,0,1,0,24837.3,0.113906,0.113614,-22.7314,13,0.0131487,10,-0.00258261,-1.64337,-0.170582,-0.345874,306.237,0.113614,
2,0,0,1,0,24837.3,0.103505,0.103206,-25.8032,13,0.0125173,10,-0.00266305,-1.58833,-0.210379,-0.280446,281.957,0.1032064,
2,0,0,1,0,24837.4,0.0931008,0.0928271,-28.445,13,0.0118105,10,-0.00264046,-1.54599,-0.288789,-0.204301,226.536,0.0928271,
2,0,0,1,0,24837.4,0.0827051,0.0824246,-30.4703,13,0.0110431,10,-0.0025115,-1.51612,-0.434452,-0.135803,161.234,0.0824246,
2,0,0,1,0,24837.4,0.0723065,0.0719636,-31.7447,13,0.0102323,10,-0.00228446,-1.49833,-0.916514,-0.0643743,79.6738,0.0719636,
2,0,0,1,0,24837.4,0.0618997,0.0615992,-32.2025,13,0.00939916,10,-0.00198365,-1.49211,-6.87631,-0.00858018,10.7775,0.0615992,
2,0,0,1,0,24837.5,0.0515011,0.0511988,-32.0852,13,0.00856258,10,-0.00164272,-1.4937,2.46292,0.0239553,-29.9647,0.0511988,
2,0,0,1,0,24837.5,0.0411053,0.0407697,-31.6693,13,0.00773361,10,-0.00129115,-1.49936,1.5303,0.0385545,-47.6525,0.04076967,
2,0,0,1,0,24837.5,0.0307068,0.0303862,-31.1574,13,0.00691668,10,-0.000946753,-1.50644,1.39449,0.0423093,-51.4699,0.03038617,
2,0,0,1,0,24837.5,0.0202999,0.0199793,-30.602,13,0.00611379,10,-0.000611407,-1.51425,1.18665,0.0497197,-59.3219,0.0199793,
2,0,0,1,0,24837.6,0.00990136,0.00958736,-29.886,13,0.00532742,10,-0.000286527,-1.52453,0.868976,0.067896,-79.1244,0.00958736,
2,0,0,1,0,24837.6,-0.000494411,-0.000906427,-28.9721,13,0.00456215,10,2.62611e-05,-1.53802,0.682344,0.0864667,-97.6567,-0.000906427,
2,0,0,1,0,24837.6,-0.010893,-0.0112655,-27.8167,13,0.00382383,10,0.00031337,-1.55569,0.567912,0.103889,-112.778,-0.0112655,
2,0,0,1,0,24837.6,-0.0212998,-0.0216543,-26.6592,13,0.00311608,10,0.000577288,-1.57415,0.581012,0.101547,-105.628,-0.0216543,
2,0,0,1,0,24837.7,-0.0316984,-0.0320898,-25.6808,13,0.00243642,10,0.000824093,-1.59039,0.747446,0.0789354,-79.1428,-0.0320898,
2,0,0,1,0,24837.7,-0.0420942,-0.0424956,-25.0138,13,0.00177803,10,0.00106297,-1.60182,1.1542,0.0511176,-49.9584,-0.04249559,
2,0,0,1,0,24837.7,-0.0524927,-0.0528876,-24.6706,13,0.00113264,10,0.00130477,-1.60782,2.87879,0.0204947,-19.7476,-0.0528876,
2,0,0,1,0,24837.7,-0.0628996,-0.0632435,-24.5946,13,0.000492785,10,0.00155545,-1.60916,-21.216,-0.00278092,2.66854,-0.0632435,
2,0,0,1,0,24837.8,-0.0732982,-0.0736811,-24.7149,13,-0.000147734,10,0.00182102,-1.60704,-2.54009,-0.0232275,22.4154,-0.0736811,
2,0,0,1,0,24837.8,-0.0836939,-0.0840582,-25.0329,13,-0.000794096,10,0.00210422,-1.60149,-1.50513,-0.0391994,38.3023,-0.0840582,
2,0,0,1,0,24837.8,-0.0940925,-0.0944396,-25.515,13,-0.00145074,10,0.00240962,-1.5932,-1.10668,-0.0533128,53.0712,-0.0944396,
2,0,0,1,1,24837.8,-0.0978574,-0.0982285,-21.0796,13,-0.00196059,10,0.00207062,-1.67614,-0.0267999,-2.2015,1776.25,-0.0982285,
2,0,0,1,1,24837.9,-0.0874588,-0.0878439,-8.62918,13,-0.00232776,10,0.000758021,-2.06403,-0.0219622,-2.68644,891.859,-0.0878439,
2,0,0,1,1,24837.9,-0.0770519,-0.0774445,-1.03302,13,-0.00244618,10,8.00016e-05,-2.98589,-0.0109824,-5.37222,608.778,-0.0774445,
2,1,0,1,1,24837.9,-0.0666562,-0.0670917,4.32763,13,-0.00239897,10,-0.000290348,-2.36375,0.0214226,2.7541,443.083,-0.0670917,
2,1,0,1,1,24837.9,-0.0562576,-0.0567072,8.34481,13,-0.00223134,10,-0.000473211,-2.07858,0.0570316,1.03451,333.381,-0.0567072,
2,1,0,1,1,24838,-0.0458563,-0.0462335,11.3711,13,-0.00197297,10,-0.000525725,-1.9442,0.10498,0.562012,247.998,-0.04623352,
2,1,0,1,1,24838,-0.0354522,-0.0358426,13.6219,13,-0.00164654,10,-0.000488243,-1.86576,0.167828,0.35155,186.258,-0.0358426,
2,1,0,1,1,24838,-0.0250564,-0.025493,15.2883,13,-0.0012695,10,-0.000389745,-1.81564,0.257259,0.229341,136.643,-0.02549302,
2,1,0,1,1,24838,-0.0146579,-0.0150257,16.5069,13,-0.000855138,10,-0.000248028,-1.78234,0.382561,0.154224,99.2161,-0.0150257,
2,1,0,1,1,24838.1,-0.00425653,-0.004638,17.3802,13,-0.000413918,10,-8.06092e-05,-1.75995,0.565926,0.104254,70.6675,-0.004637999,
2,1,0,0,1,24838.1,-7.54729e-05,-0.000363498,17.6402,13,-0.000229895,10,-6.41217e-06,-1.7535, , , ,-0.000363498,

File: 20221101_1-115_003_TrumpetPlot_ParaChange_from10_every3_11_CV_C01_13.csv
mode,ox/red,error,control changes,counter inc.,time/s,control/V,Ewe/V,<I>/mA,cycle number,(Q-Qo)/C,I Range,P/W,log(|I|),Tafel slope mV/dec,alpha_eff,dI/d(E-IR),E-IR/V,
2,1,0,1,0,26806.2,2.44065e-05,-0.000306236,10.0771,14,0.0000000E+000,10,-3.08598e-06,-1.99666, , , ,-0.000306236,
2,1,0,1,0,26806.2,0.0101427,0.00979308,13.9321,14,0.000310743,10,0.000136438,-1.85598,0.126915,0.464877,251.193,0.00979308,
2,1,0,1,0,26806.3,0.0205441,0.0201925,16.0227,14,0.00070221,10,0.000323538,-1.79526,0.222,0.265766,165.933,0.0201925,
2,1,0,1,0,26806.3,0.0309482,0.0306131,17.5355,14,0.00113954,10,0.000536817,-1.75608,0.308347,0.191343,130.856,0.0306131,
2,1,0,1,0,26806.3,0.0413439,0.0409987,18.793,14,0.00161224,10,0.000770488,-1.726,0.379493,0.155471,113.933,0.0409987,
2,1,0,1,0,26806.3,0.0517425,0.0514013,19.9551,14,0.00211625,10,0.00102572,-1.69995,0.407841,0.144664,112.714,0.0514013,
2,1,0,1,0,26806.4,0.0621438,0.0617753,21.1395,14,0.00265069,10,0.0013059,-1.67491,0.428074,0.137827,113.719,0.0617753,
2,1,0,1,0,26806.4,0.0725479,0.072234,22.366,14,0.00321616,10,0.00161559,-1.65041,0.430545,0.137036,119.571,0.072234,
2,1,0,1,0,26806.4,0.0829437,0.0825454,23.6039,14,0.00381386,10,0.00194839,-1.62702,0.470461,0.125409,115.47,0.0825454,
2,1,0,1,0,26806.4,0.0933422,0.0929788,24.8495,14,0.00444349,10,0.00231047,-1.60468,0.467704,0.126148,122.301,0.0929788,
2,1,0,1,0,26806.5,0.103749,0.103458,26.077,14,0.00510573,10,0.00269786,-1.58374,0.505684,0.116674,118.734,0.103458,
2,1,0,1,0,26806.5,0.114148,0.113785,27.3272,14,0.00579984,10,0.00310943,-1.5634,0.4937,0.119506,127.416,0.113785,
2,1,0,1,0,26806.5,0.124543,0.12421,28.7284,14,0.00652814,10,0.00356835,-1.54169,0.454153,0.129912,145.679,0.12421,
2,1,0,1,0,26806.6,0.134942,0.134598,30.3423,14,0.00729597,10,0.004084,-1.51795,0.42637,0.138377,163.942,0.134598,
2,1,0,1,0,26806.6,0.145349,0.145015,32.0598,14,0.00810738,10,0.00464916,-1.49404,0.4653,0.1268,158.506,0.145015,
2,1,0,1,0,26806.6,0.155747,0.155413,33.5806,14,0.00896116,10,0.00521888,-1.47391,0.580425,0.10165,133.091,0.155413,
2,1,0,1,0,26806.6,0.166143,0.165763,34.7158,14,0.0098504,10,0.00575459,-1.45947,1.04626,0.0563911,76.3464,0.165763,
2,1,0,1,0,26806.7,0.176542,0.176218,35.0369,14,0.0107597,10,0.00617412,-1.45547,-2.48609,-0.0237321,-32.3765,0.176218,
2,1,0,1,0,26806.7,0.186949,0.186631,33.9281,14,0.0116594,10,0.00633203,-1.46944,-0.42548,-0.138667,-183.15,0.186631,
2,1,0,1,0,26806.7,0.197347,0.197008,31.2764,14,0.0125097,10,0.0061617,-1.50478,-0.237024,-0.248919,-303.406,0.197008,
2,1,0,1,0,26806.7,0.207743,0.207407,27.7869,14,0.0132779,10,0.0057632,-1.55616,-0.18556,-0.317957,-344.578,0.207407,
2,1,0,1,0,26806.8,0.218141,0.217853,24.3918,14,0.0139547,10,0.00531383,-1.61276,-0.190026,-0.310484,-295.769,0.217853,
2,1,0,1,0,26806.8,0.228548,0.228252,21.6801,14,0.0145516,10,0.00494853,-1.66394,-0.22338,-0.264124,-223.641,0.228252,
2,1,0,1,0,26806.8,0.238947,0.238635,19.6609,14,0.0150873,10,0.00469179,-1.7064,-0.28146,-0.209621,-161.006,0.238635,
2,1,0,1,0,26806.8,0.249343,0.249014,18.211,14,0.0155786,10,0.00453479,-1.73967,-0.351695,-0.167759,-119.356,0.249014,
2,1,0,1,0,26806.9,0.259741,0.259421,17.1481,14,0.0160376,10,0.00444858,-1.76578,-0.441857,-0.133527,-89.4068,0.259421,
2,1,0,1,0,26806.9,0.270148,0.269873,16.3512,14,0.0164725,10,0.00441275,-1.78645,-0.569158,-0.103662,-66.1998,0.269873,
2,1,0,1,0,26806.9,0.280547,0.280258,15.7315,14,0.0168893,10,0.00440887,-1.80323,-0.667928,-0.0883329,-54.2285,0.280258,
2,1,0,1,0,26806.9,0.290942,0.290631,15.2275,14,0.0172914,10,0.00442557,-1.81737,-0.777852,-0.0758499,-45.0697,0.290631,
2,1,0,0,0,26807,0.300012,0.299651,14.8474,14,0.0176326,10,0.00444903,-1.82835,0.00103715,56.8869,28359,0.299651,
2,1,0,1,0,26807,0.290704,0.290408,3.62542,14,0.0178209,10,0.00105285,-2.44064,0.0109751,5.3758,716.708,0.290408,
2,0,0,1,0,26807,0.280305,0.280017,-1.57442,14,0.0178392,10,-0.000440866,-2.80288,-0.00727976,-8.10466,354.607,0.2800175,
2,0,0,1,0,26807,0.269909,0.26961,-4.38529,14,0.0177581,10,-0.00118232,-2.358,-0.0479727,-1.22987,206.791,0.26961,
2,0,0,1,0,26807.1,0.2595,0.259213,-6.13308,14,0.0176196,10,-0.00158978,-2.21232,-0.101896,-0.579023,137.728,0.259213,
2,0,0,1,0,26807.1,0.249104,0.248796,-7.33871,14,0.0174435,10,-0.00182584,-2.13438,-0.173418,-0.340219,97.0602,0.248796,
2,0,0,1,0,26807.1,0.238705,0.238406,-8.2312,14,0.0172407,10,-0.00196237,-2.08454,-0.246723,-0.239134,76.7899,0.238406,
2,0,0,1,0,26807.1,0.22831,0.227997,-8.94667,14,0.0170169,10,-0.00203981,-2.04834,-0.314991,-0.187307,65.4642,0.227997,
2,0,0,1,0,26807.2,0.2179,0.217649,-9.59266,14,0.0167756,10,-0.00208783,-2.01806,-0.388298,-0.151945,56.7712,0.217649,
2,0,0,1,0,26807.2,0.207504,0.207169,-10.1383,14,0.016519,10,-0.00210034,-1.99403,-0.452221,-0.130467,51.6879,0.207169,
2,0,0,1,0,26807.2,0.197106,0.196782,-10.6753,14,0.0162481,10,-0.00210071,-1.97162,-0.472618,-0.124836,52.0954,0.196782,
2,0,0,1,0,26807.2,0.18671,0.186387,-11.2281,14,0.0159633,10,-0.00209277,-1.94969,-0.476525,-0.123813,54.2353,0.186387,
2,0,0,1,0,26807.3,0.1763,0.175968,-11.8147,14,0.0156638,10,-0.00207902,-1.92758,-0.452468,-0.130396,60.1464,0.1759683,
2,0,0,1,0,26807.3,0.165905,0.165534,-12.51,14,0.0153478,10,-0.00207084,-1.90274,-0.396129,-0.148941,72.7601,0.165534,
2,0,0,1,0,26807.3,0.155506,0.155199,-13.4247,14,0.0150114,10,-0.0020835,-1.8721,-0.29678,-0.1988,104.224,0.155199,
2,0,0,1,0,26807.4,0.145105,0.144763,-14.7365,14,0.0146464,10,-0.0021333,-1.8316,-0.218814,-0.269636,155.331,0.144763,
2,0,0,1,0,26807.4,0.134701,0.134391,-16.7145,14,0.0142391,10,-0.00224627,-1.77691,-0.166762,-0.353797,231.115,0.134391,
2,0,0,1,0,26807.4,0.124305,0.124022,-19.4924,14,0.0137696,10,-0.00241749,-1.71014,-0.152088,-0.387933,295.25,0.124022,
2,0,0,1,0,26807.4,0.113906,0.113606,-22.6816,14,0.0132213,10,-0.00257676,-1.64433,-0.172288,-0.342451,302.634,0.1136058,
2,0,0,1,0,26807.5,0.103505,0.103206,-25.7565,14,0.0125912,10,-0.00265823,-1.58911,-0.21038,-0.280445,281.426,0.1032064,
2,0,0,1,0,26807.5,0.0931008,0.0928102,-28.424,14,0.0118854,10,-0.00263804,-1.54631,-0.285058,-0.206976,229.311,0.0928102,
2,0,0,1,0,26807.5,0.0827051,0.0824256,-30.4897,14,0.011118,10,-0.00251313,-1.51585,-0.423,-0.13948,165.766,0.0824256,
2,0,0,1,0,26807.5,0.0723065,0.071988,-31.837,14,0.0103057,10,-0.00229188,-1.49707,-0.833649,-0.0707732,87.8559,0.071988,
2,0,0,1,0,26807.6,0.0618996,0.0615727,-32.3942,14,0.00946897,10,-0.0019946,-1.48953,-3.69344,-0.0159743,20.1764,0.0615727,
2,0,0,1,0,26807.6,0.0515011,0.0511648,-32.3495,14,0.00862645,10,-0.00165515,-1.49013,3.21853,0.0183314,-23.1219,0.0511648,
2,0,0,1,0,26807.6,0.0411053,0.0407506,-31.9811,14,0.00778987,10,-0.00130325,-1.49511,1.64426,0.0358824,-44.7762,0.0407506,
2,0,0,1,0,26807.6,0.0307068,0.0304021,-31.4811,14,0.00696455,10,-0.00095709,-1.50195,1.45246,0.0406208,-49.9391,0.0304021,
2,0,0,1,0,26807.7,0.0202999,0.0199868,-30.9286,14,0.00615308,10,-0.000618163,-1.50964,1.18291,0.049877,-60.1576,0.0199868,
2,0,0,1,0,26807.7,0.00990136,0.00959584,-30.1994,14,0.00535822,10,-0.000289788,-1.52,0.867506,0.0680111,-80.1073,0.00959584,
2,0,0,1,0,26807.7,-0.000494411,-0.000900064,-29.2789,14,0.00458466,10,2.63529e-05,-1.53344,0.684468,0.0861984,-98.4177,-0.000900064,
2,0,0,1,0,26807.7,-0.010893,-0.0112422,-28.1215,14,0.00383826,10,0.000316148,-1.55096,0.568586,0.103766,-113.842,-0.0112422,
2,0,0,1,0,26807.8,-0.0212998,-0.0217031,-26.9328,14,0.00312286,10,0.000584526,-1.56972,0.572442,0.103067,-108.351,-0.02170313,
2,0,0,1,0,26807.8,-0.0316984,-0.0320665,-25.9251,14,0.0024363,10,0.000831327,-1.58628,0.705996,0.0835698,-84.5957,-0.0320665,
2,0,0,1,0,26807.8,-0.0420942,-0.0424786,-25.2238,14,0.00177203,10,0.00107147,-1.59819,1.10244,0.0535175,-52.7404,-0.0424786,
2,0,0,1,0,26807.8,-0.0524927,-0.0528505,-24.8438,14,0.00112166,10,0.00131301,-1.60478,2.43431,0.0242369,-23.516,-0.0528505,
2,0,0,1,0,26807.9,-0.0628996,-0.0632679,-24.7435,14,0.000477641,10,0.00156547,-1.60654,34.7278,0.00169893,-1.63999,-0.0632679,
2,0,0,1,0,26807.9,-0.0732982,-0.0736578,-24.8313,14,-0.000166292,10,0.00182902,-1.605,-2.75788,-0.0213932,20.7463,-0.0736578,
2,0,0,1,0,26807.9,-0.0836939,-0.0840688,-25.1275,14,-0.000815461,10,0.00211244,-1.59985,-1.54332,-0.0382293,37.5042,-0.0840688,
2,0,0,1,0,26808,-0.0940925,-0.094447,-25.5899,14,-0.00147438,10,0.00241689,-1.59193,-1.17384,-0.0502623,50.1751,-0.094447,
2,0,0,1,1,26808,-0.0978574,-0.0982847,-21.2035,14,-0.00198584,10,0.00208398,-1.67359,-0.027407,-2.15274,1747.07,-0.0982847,
2,0,0,1,1,26808,-0.0874588,-0.0878322,-8.80978,14,-0.00235739,10,0.000773783,-2.05503,-0.0225782,-2.61314,887.126,-0.0878322,
2,0,0,1,1,26808,-0.077052,-0.0774625,-1.20351,14,-0.00248062,10,9.32269e-05,-2.91955,-0.00907239,-6.50325,608.596,-0.0774625,
2,1,0,1,1,26808,-0.0666562,-0.0670801,4.20644,14,-0.00243734,10,-0.000282168,-2.37609,0.0206121,2.86239,445.168,-0.0670801,
2,1,0,1,1,26808.1,-0.0562576,-0.0566838,8.27266,14,-0.00227236,10,-0.000468926,-2.08235,0.0557438,1.05841,337.948,-0.0566838,
2,1,0,1,1,26808.1,-0.0458563,-0.0462346,11.3633,14,-0.00201506,10,-0.000525376,-1.9445,0.101436,0.581646,256.319,-0.0462346,
2,1,0,1,1,26808.1,-0.0354522,-0.0358034,13.6753,14,-0.00168797,10,-0.00048962,-1.86406,0.161974,0.364257,193.833,-0.0358034,
2,1,0,1,1,26808.2,-0.0250564,-0.0254283,15.4011,14,-0.00130865,10,-0.000391624,-1.81245,0.25067,0.235369,141.305,-0.0254283,
2,1,0,1,1,26808.2,-0.0146579,-0.0150321,16.6763,14,-0.000890543,10,-0.00025068,-1.7779,0.362958,0.162553,105.693,-0.0150321,
2,1,0,1,1,26808.2,-0.00425653,-0.00462527,17.5878,14,-0.00044427,10,-8.13486e-05,-1.75479,0.554062,0.106486,73.0732,-0.00462527,
2,1,0,0,1,26808.2,-7.54729e-05,-0.000344411,17.8641,14,-0.000257943,10,-6.15257e-06,-1.74802, , , ,-0.000344411,