Folder: Figs_alphaMnO2_OER_Tafel_sleope/Figure_codes/Fig_3-5/rawdata_trumpetplot_data/after 10th (part 33)

File: 20221101_1-115_003_TrumpetPlot_ParaChange_from10_every3_03_CV_C01_29.csv
mode,ox/red,error,control changes,counter inc.,time/s,control/V,Ewe/V,<I>/mA,cycle number,(Q-Qo)/C,I Range,P/W,log(|I|),Tafel slope mV/dec,alpha_eff,dI/d(E-IR),E-IR/V,
2,0,0,1,0,58073.8,2.44065e-05,-0.000306236,-0.110207,30,0.0000000E+000,10,3.37492e-08,-3.95779, , , ,-0.000306236,
2,1,0,1,0,58075.2,0.00729041,0.0069455,0.199404,30,0.000245324,10,1.38496e-06,-3.70027,0.0856167,0.689118,5.31091,0.0069455,
2,1,0,1,0,58076.7,0.0147815,0.0144027,0.23005,30,0.00058831,10,3.31335e-06,-3.63818,0.150948,0.390863,3.52083,0.0144027,
2,1,0,1,0,58078.2,0.0222725,0.0218668,0.257346,30,0.000972933,10,5.62734e-06,-3.58948,0.178797,0.329983,3.29948,0.0218668,
2,1,0,1,0,58079.7,0.0297635,0.0294128,0.281973,30,0.00139542,10,8.29359e-06,-3.54979,0.200247,0.294636,3.23256,0.0294128,
2,1,0,1,0,58081.2,0.0372545,0.0369142,0.307001,30,0.00185595,10,1.13327e-05,-3.51286,0.224512,0.262792,3.15094,0.0369142,
2,1,0,1,0,58082.7,0.0447456,0.0443903,0.332572,30,0.00235419,10,1.4763e-05,-3.47811,0.241263,0.244546,3.16774,0.0443903,
2,1,0,1,0,58084.2,0.0522367,0.0518546,0.353989,30,0.00288795,10,1.8356e-05,-3.45101,0.235247,0.2508,3.46756,0.0518546,
2,1,0,1,0,58085.7,0.0597277,0.059355,0.375992,30,0.00345436,10,2.2317e-05,-3.42482,0.297972,0.198005,2.89874,0.059355,
2,1,0,1,0,58087.2,0.0672187,0.0668783,0.393623,30,0.00405004,10,2.63248e-05,-3.40492,0.456241,0.129318,1.98021,0.0668783,
2,1,0,1,0,58088.7,0.0747092,0.0744142,0.407732,30,0.0046701,10,3.03411e-05,-3.38962,0.504389,0.116973,1.86097,0.0744142,
2,1,0,0,0,58090.2,0.0822001,0.0818541,0.421485,30,0.00531188,10,3.45003e-05,-3.37522,0.496069,0.118935,1.95889,0.08185406,
2,1,0,1,0,58091.7,0.0896911,0.0893596,0.441358,30,0.00597794,10,3.94396e-05,-3.35521,0.293015,0.201355,3.47905,0.0893596,
2,1,0,0,0,58093.2,0.097182,0.0968143,0.471,30,0.00668085,10,4.55995e-05,-3.32698,0.18984,0.310787,5.71472,0.0968143,
2,1,0,1,0,58094.7,0.104673,0.104329,0.511398,30,0.00743651,10,5.33539e-05,-3.29124,0.218337,0.270224,5.37719,0.104329,
2,1,0,0,0,58096.2,0.112164,0.111832,0.547374,30,0.00825028,10,6.12138e-05,-3.26172,0.361864,0.163045,3.46931,0.111832,
2,1,0,1,0,58097.7,0.119655,0.119313,0.570642,30,0.00910896,10,6.80849e-05,-3.24364,0.848472,0.0695368,1.55081,0.119313,
2,1,0,0,0,58099.2,0.127146,0.126761,0.582086,30,0.00999504,10,7.37859e-05,-3.23501,1.30342,0.0452657,1.03091,0.126761,
2,1,0,1,0,58100.7,0.134637,0.134253,0.575736,30,0.0108892,10,7.72943e-05,-3.23978,-0.306841,-0.192282,-4.31555,0.134253,
2,1,0,1,0,58102.2,0.142127,0.141795,0.513568,30,0.0117324,10,7.28214e-05,-3.2894,-0.0976274,-0.604338,-12.0315,0.141795,
2,1,0,1,0,58103.7,0.149618,0.14928,0.41419,30,0.0124455,10,6.18301e-05,-3.3828,-0.0805589,-0.732384,-11.8644,0.14928,
2,1,0,1,0,58105.2,0.157109,0.15674,0.349574,30,0.0130303,10,5.47921e-05,-3.45646,-0.131596,-0.448343,-6.12013,0.15674,
2,1,0,1,0,58106.7,0.1646,0.164273,0.321371,30,0.0135484,10,5.27927e-05,-3.49299,-0.308285,-0.191382,-2.40218,0.164273,
2,1,0,1,0,58108.2,0.172091,0.171763,0.306476,30,0.0140367,10,5.26412e-05,-3.5136,-0.530548,-0.111206,-1.33506,0.171763,
2,1,0,1,0,58109.7,0.179582,0.179266,0.299704,30,0.0145097,10,5.37268e-05,-3.52331,-1.55946,-0.0378337,-0.443573,0.179266,
2,1,0,1,0,58111.2,0.187074,0.186723,0.296193,30,0.0149736,10,5.53061e-05,-3.52842,-1.80955,-0.0326049,-0.374975,0.186723,
2,1,0,1,0,58112.7,0.194564,0.19421,0.293081,30,0.0154324,10,5.69191e-05,-3.53301,-7.09183,-0.00831943,-0.0950444,0.19421,
2,1,0,1,0,58114.2,0.202056,0.201713,0.29023,30,0.0158866,10,5.85432e-05,-3.53726,-1.35046,-0.0436889,-0.493328,0.2017131,
2,1,0,1,0,58115.7,0.209547,0.209233,0.288141,30,0.0163371,10,6.02887e-05,-3.5404,-1.80949,-0.0326059,-0.366903,0.209233,
2,1,0,1,0,58117.2,0.217038,0.216719,0.284335,30,0.0167842,10,6.16209e-05,-3.54617,-2.37446,-0.0248478,-0.27709,0.216719,
2,1,0,1,0,58118.7,0.224529,0.224179,0.284186,30,0.0172281,10,6.37086e-05,-3.5464,-15.425,-0.00382495,-0.0422621,0.224179,
2,1,0,1,0,58120.2,0.232019,0.231635,0.2825,30,0.0176696,10,6.54369e-05,-3.54898,-2.17064,-0.0271809,-0.299787,0.231635,
2,1,0,0,0,58121.7,0.23951,0.239164,0.279753,30,0.0181088,10,6.69069e-05,-3.55323,-3.35883,-0.0175657,-0.192548,0.239164,
2,1,0,1,0,58123.2,0.247001,0.246661,0.279523,30,0.0185454,10,6.89476e-05,-3.55358,-1.14112,-0.0517034,-0.562807,0.246661,
2,1,0,0,0,58124.7,0.254492,0.254141,0.277019,30,0.0189797,10,7.0402e-05,-3.55749,-1.70448,-0.0346147,-0.37523,0.254141,
2,1,0,1,0,58126.2,0.261983,0.261629,0.276666,30,0.0194114,10,7.23838e-05,-3.55804,-3.64546,-0.0161845,-0.17426,0.261629,
2,1,0,0,0,58127.7,0.269474,0.269155,0.275304,30,0.0198411,10,7.40993e-05,-3.56019,-23.7496,-0.00248426,-0.0265996,0.2691547,
2,1,0,1,0,58129.2,0.276965,0.27663,0.273334,30,0.0202681,10,7.56122e-05,-3.56331,-2.00838,-0.0293769,-0.312721,0.27663,
2,1,0,0,0,58130.7,0.284456,0.284118,0.271741,30,0.0206925,10,7.72065e-05,-3.56585,-1.51531,-0.0389359,-0.410608,0.284118,
2,1,0,1,0,58132.2,0.291947,0.29158,0.268942,30,0.0211137,10,7.84182e-05,-3.57034,-1.35096,-0.0436726,-0.459063,0.2915802,
2,1,0,1,0,58133.7,0.299437,0.29911,0.267267,30,0.0215323,10,7.9942e-05,-3.57306,-0.0028639,-20.6013,-114.158,0.29911,
2,0,0,1,0,58135,0.293744,0.29336,-0.0168622,30,0.0215775,10,-4.9467e-06,-4.77309,-0.004113,-14.3448,5.80737,0.29336,
2,0,0,1,0,58136.5,0.286253,0.285873,-0.0469108,30,0.0215119,10,-1.34105e-05,-4.32873,-0.0334316,-1.7648,3.15309,0.285873,
2,0,0,0,0,58138,0.278763,0.278396,-0.0681278,30,0.0214083,10,-1.89665e-05,-4.16668,-0.0749039,-0.787676,2.07633,0.278396,
2,0,0,1,0,58139.5,0.271272,0.27092,-0.0846402,30,0.0212771,10,-2.29307e-05,-4.07242,-0.102474,-0.575757,1.88779,0.27092,
2,0,0,0,0,58141,0.263781,0.263421,-0.0984694,30,0.0211228,10,-2.59389e-05,-4.0067,-0.146035,-0.404013,1.54781,0.263421,
2,0,0,1,0,58142.5,0.25629,0.255975,-0.109924,30,0.0209493,10,-2.81378e-05,-3.95891,-0.19202,-0.307259,1.31405,0.255975,
2,0,0,0,0,58144,0.248799,0.24849,-0.120271,30,0.0207588,10,-2.98861e-05,-3.91984,-0.242908,-0.24289,1.14649,0.24849,
2,0,0,1,0,58145.5,0.241308,0.240957,-0.130153,30,0.0205528,10,-3.13614e-05,-3.88554,-0.236021,-0.249977,1.27719,0.240957,
2,0,0,0,0,58147,0.233817,0.233464,-0.140028,30,0.0203325,10,-3.26914e-05,-3.85379,-0.255603,-0.230827,1.25891,0.233464,
2,0,0,1,0,58148.5,0.226326,0.226012,-0.148613,30,0.0200988,10,-3.35883e-05,-3.82794,-0.348249,-0.169419,0.979223,0.226012,
2,0,0,0,0,58150,0.218835,0.218479,-0.157411,30,0.0198523,10,-3.43911e-05,-3.80296,-0.261841,-0.225328,1.37964,0.218479,
2,0,0,1,0,58151.5,0.211344,0.211014,-0.165085,30,0.0195928,10,-3.48352e-05,-3.78229,-0.395401,-0.149215,0.963595,0.211014,
2,0,0,1,0,58153,0.203854,0.203475,-0.173497,30,0.0193202,10,-3.53021e-05,-3.76071,-0.388717,-0.151781,1.02946,0.203475,
2,0,0,1,0,58154.5,0.196363,0.195988,-0.182895,30,0.0190345,10,-3.58452e-05,-3.7378,-0.288611,-0.204428,1.45828,0.195988,
2,0,0,1,0,58156,0.188871,0.188503,-0.192673,30,0.0187341,10,-3.63193e-05,-3.71518,-0.277265,-0.212793,1.60231,0.188503,
2,0,0,1,0,58157.5,0.181381,0.181011,-0.203964,30,0.0184182,10,-3.69196e-05,-3.69045,-0.332238,-0.177583,1.4137,0.181011,
2,0,0,1,0,58159,0.173889,0.173528,-0.215938,30,0.0180852,10,-3.74714e-05,-3.66567,-0.239985,-0.245849,2.0718,0.173528,
2,0,0,1,0,58160.5,0.166398,0.166058,-0.231402,30,0.017731,10,-3.84262e-05,-3.63563,-0.267603,-0.220476,1.9977,0.166058,
2,0,0,1,0,58162,0.158907,0.158546,-0.250449,30,0.0173506,10,-3.97075e-05,-3.60128,-0.192677,-0.306212,3.00425,0.158546,
2,0,0,1,0,58163.5,0.151416,0.151008,-0.280113,30,0.0169342,10,-4.22994e-05,-3.55267,-0.142648,-0.413605,4.54815,0.151008,
2,0,0,1,0,58165,0.143925,0.143578,-0.32778,30,0.0164619,10,-4.70618e-05,-3.48442,-0.0876659,-0.673009,8.60926,0.143578,
2,0,0,1,0,58166.5,0.136434,0.13609,-0.401943,30,0.015898,10,-5.47006e-05,-3.39584,-0.0835099,-0.706503,11.0528,0.13609,
2,0,0,1,0,58168,0.128943,0.128627,-0.487924,30,0.0152124,10,-6.27604e-05,-3.31165,-0.104728,-0.563363,10.6526,0.128627,
2,0,0,0,0,58169.5,0.121453,0.121105,-0.55522,30,0.0144081,10,-6.72399e-05,-3.25554,-0.192816,-0.305991,6.61049,0.121105,
2,0,0,1,0,58171,0.113962,0.113595,-0.582965,30,0.0135288,10,-6.62221e-05,-3.23436,-0.940179,-0.062754,1.42967,0.1135952,
2,0,0,0,0,58172.5,0.106471,0.106094,-0.585143,30,0.0126288,10,-6.20801e-05,-3.23274,5.18625,0.0113762,-0.260559,0.106094,
2,0,0,1,0,58174,0.0989798,0.0986339,-0.578145,30,0.0117347,10,-5.70247e-05,-3.23796,1.28575,0.0458878,-1.03388,0.0986339,
2,0,0,0,0,58175.5,0.0914889,0.0910944,-0.567597,30,0.0108558,10,-5.1705e-05,-3.24596,0.722207,0.0816941,-1.80777,0.0910944,
2,0,0,1,0,58177,0.083998,0.0836133,-0.551399,30,0.00999726,10,-4.61043e-05,-3.25853,0.467159,0.126295,-2.7108,0.0836133,
2,0,0,0,0,58178.5,0.076507,0.0761533,-0.53544,30,0.00916322,10,-4.07755e-05,-3.27129,0.502696,0.117367,-2.44711,0.0761533,
2,0,0,1,0,58180,0.069016,0.0686467,-0.517757,30,0.00835455,10,-3.55423e-05,-3.28587,0.576335,0.102371,-2.07317,0.0686467,
2,0,0,0,0,58181.5,0.0615251,0.0611316,-0.502557,30,0.0075696,10,-3.07221e-05,-3.29881,0.626961,0.0941047,-1.84958,0.0611316,
2,0,0,1,0,58183,0.0540342,0.0536844,-0.48768,30,0.00680821,10,-2.61808e-05,-3.31187,0.55703,0.105919,-2.0104,0.0536844,
2,0,0,1,0,58184.5,0.0465436,0.0461654,-0.469532,30,0.00607136,10,-2.16762e-05,-3.32833,0.462987,0.127433,-2.34043,0.0461654,
2,0,0,1,0,58186,0.0390526,0.0386609,-0.453389,30,0.00535974,10,-1.75284e-05,-3.34353,0.402724,0.146502,-2.58847,0.0386609,
2,0,0,1,0,58187.5,0.0315615,0.0311996,-0.438227,30,0.00467343,10,-1.36725e-05,-3.3583,0.509108,0.115889,-1.97706,0.0311996,
2,0,0,1,0,58189,0.0240706,0.023672,-0.422299,30,0.00401013,10,-9.99665e-06,-3.37438,0.53732,0.109804,-1.81659,0.023672,
2,0,0,1,0,58190.5,0.0165795,0.0162446,-0.413267,30,0.00336492,10,-6.71337e-06,-3.38377,1.21413,0.0485945,-0.785523,0.0162446,
2,0,0,1,0,58192,0.00908846,0.00871684,-0.408155,30,0.00273074,10,-3.55782e-06,-3.38917,20.6146,0.00286205,-0.0456779,0.00871684,
2,0,0,1,0,58193.5,0.00159739,0.0012142,-0.413863,30,0.00209801,10,-5.02513e-07,-3.38314, , , ,0.0012142,
2,0,0,0,0,58193.8,0.000199195,-0.000218435,-0.410968,30,0.00197913,10,8.97695e-08,-3.38619, , , ,-0.000218435,

File: 20221101_1-115_003_TrumpetPlot_ParaChange_from10_every3_03_CV_C01_30.csv
mode,ox/red,error,control changes,counter inc.,time/s,control/V,Ewe/V,<I>/mA,cycle number,(Q-Qo)/C,I Range,P/W,log(|I|),Tafel slope mV/dec,alpha_eff,dI/d(E-IR),E-IR/V,
2,0,0,1,0,60043.9,2.44065e-05,-0.000401673,-0.099394,31,0.0000000E+000,10,3.99239e-08,-4.00264, , , ,-0.000401673,
2,1,0,1,0,60045.4,0.00729041,0.00692541,0.198572,31,0.000242138,10,1.37519e-06,-3.70208,0.0830554,0.710369,5.48396,0.00692541,
2,1,0,1,0,60046.9,0.0147815,0.0144164,0.229961,31,0.000583328,10,3.3152e-06,-3.63835,0.166038,0.355341,3.18653,0.0144164,
2,1,0,1,0,60048.4,0.0222725,0.0218606,0.255276,31,0.000965629,10,5.58048e-06,-3.59299,0.176978,0.333374,3.31522,0.0218606,
2,1,0,1,0,60049.9,0.0297635,0.0294464,0.28141,31,0.00138594,10,8.28653e-06,-3.55066,0.192462,0.306555,3.35499,0.0294464,
2,1,0,1,0,60051.4,0.0372545,0.0368952,0.306139,31,0.00184402,10,1.12951e-05,-3.51408,0.19827,0.297574,3.55299,0.0368952,
2,1,0,1,0,60052.9,0.0447456,0.044421,0.33021,31,0.0023396,10,1.46682e-05,-3.48121,0.254069,0.23222,2.99243,0.04442098,
2,1,0,1,0,60054.4,0.0522367,0.0518438,0.353145,31,0.00287029,10,1.83084e-05,-3.45205,0.256239,0.230254,3.16826,0.0518438,
2,1,0,1,0,60055.9,0.0597277,0.0593908,0.373895,31,0.00343371,10,2.22059e-05,-3.42725,0.321866,0.183306,2.66971,0.0593908,
2,1,0,1,0,60057.4,0.0672187,0.0669017,0.392459,31,0.00402646,10,2.62562e-05,-3.40621,0.410872,0.143597,2.19461,0.0669017,
2,1,0,1,0,60058.9,0.0747092,0.0743708,0.40657,31,0.00464371,10,3.02369e-05,-3.39087,0.642401,0.0918429,1.45656,0.0743708,
2,1,0,0,0,60060.4,0.0822001,0.0818392,0.419885,31,0.00528255,10,3.4363e-05,-3.37687,0.480456,0.1228,2.01686,0.0818392,
2,1,0,1,0,60061.9,0.0896911,0.0893395,0.440676,31,0.00594554,10,3.93698e-05,-3.35588,0.290305,0.203234,3.4964,0.0893395,
2,1,0,0,0,60063.4,0.097182,0.0968546,0.46938,31,0.00664499,10,4.54616e-05,-3.32848,0.21769,0.271028,4.96587,0.09685456,
2,1,0,1,0,60064.9,0.104673,0.104354,0.510334,31,0.00739665,10,5.32552e-05,-3.29215,0.212617,0.277495,5.49996,0.104354,
2,1,0,0,0,60066.4,0.112164,0.111807,0.544195,31,0.00820582,10,6.0845e-05,-3.26425,0.35587,0.165791,3.51545,0.111807,
2,1,0,1,0,60067.9,0.119655,0.119326,0.567379,31,0.00905881,10,6.77029e-05,-3.24613,0.702397,0.0839981,1.86043,0.119326,
2,1,0,0,0,60069.4,0.127146,0.126763,0.578661,31,0.00993833,10,7.33531e-05,-3.23758,1.4495,0.0407036,0.920831,0.126763,
2,1,0,1,0,60070.8,0.134637,0.134289,0.570852,31,0.0108253,10,7.66592e-05,-3.24348,-0.296707,-0.198849,-4.42732,0.134289,
2,1,0,1,0,60072.3,0.142127,0.141808,0.50794,31,0.0116607,10,7.203e-05,-3.29419,-0.0991346,-0.595151,-11.7524,0.141808,
2,1,0,1,0,60073.8,0.149618,0.149295,0.410443,31,0.0123673,10,6.12768e-05,-3.38675,-0.0819991,-0.71952,-11.5563,0.149295,
2,1,0,1,0,60075.3,0.157109,0.156761,0.348531,31,0.0129479,10,5.4636e-05,-3.45776,-0.135376,-0.435824,-5.92014,0.1567608,
2,1,0,1,0,60076.8,0.1646,0.164261,0.321126,31,0.0134633,10,5.27485e-05,-3.49332,-0.293119,-0.201283,-2.52187,0.1642611,
2,1,0,1,0,60078.3,0.172091,0.171761,0.305855,31,0.0139489,10,5.25339e-05,-3.51448,-0.457019,-0.129097,-1.54626,0.171761,
2,1,0,1,0,60079.8,0.179582,0.179238,0.298937,31,0.0144191,10,5.35808e-05,-3.52442,-1.18559,-0.0497642,-0.582051,0.179238,
2,1,0,1,0,60081.3,0.187074,0.186747,0.294745,31,0.0148807,10,5.50427e-05,-3.53055,-7.65895,-0.00770341,-0.0883736,0.186747,
2,1,0,1,0,60082.8,0.194564,0.194211,0.291186,31,0.0153366,10,5.65515e-05,-3.53583,29.4102,0.0020061,0.022826,0.194211,
2,1,0,1,0,60084.3,0.202056,0.201724,0.289875,31,0.0157886,10,5.84746e-05,-3.53779,-1.09403,-0.053929,-0.607781,0.2017238,
2,1,0,1,0,60085.8,0.209547,0.20925,0.288234,31,0.0162381,10,6.03131e-05,-3.54025,-4.68637,-0.0125897,-0.141146,0.20925,
2,1,0,1,0,60087.3,0.217038,0.216707,0.284404,31,0.0166842,10,6.16325e-05,-3.54606,-3.38035,-0.0174538,-0.194919,0.216707,
2,1,0,1,0,60088.8,0.224529,0.224174,0.284139,31,0.0171278,10,6.36965e-05,-3.54647,-3.95774,-0.0149075,-0.165374,0.224174,
2,1,0,1,0,60090.3,0.232019,0.231688,0.28228,31,0.0175686,10,6.5401e-05,-3.54932,-2.82733,-0.0208678,-0.229643,0.231688,
2,1,0,0,0,60091.8,0.23951,0.23915,0.280988,31,0.018007,10,6.71985e-05,-3.55131,-2.57995,-0.0228687,-0.25008,0.23915,
2,1,0,1,0,60093.3,0.247001,0.246706,0.279467,31,0.018443,10,6.89463e-05,-3.55367,-2.77745,-0.0212425,-0.231146,0.2467059,
2,1,0,0,0,60094.8,0.254492,0.254137,0.276794,31,0.0188766,10,7.03436e-05,-3.55784,-9.04653,-0.00652184,-0.070645,0.254137,
2,1,0,1,0,60096.3,0.261983,0.261667,0.276052,31,0.0193078,10,7.22337e-05,-3.55901,-1.5826,-0.0372804,-0.401398,0.261667,
2,1,0,0,0,60097.8,0.269474,0.269075,0.274572,31,0.0197364,10,7.38805e-05,-3.56134,-6.56042,-0.00899333,-0.0963162,0.269075,
2,1,0,1,0,60099.3,0.276965,0.276644,0.272589,31,0.0201627,10,7.54102e-05,-3.56449,-3.06265,-0.0192643,-0.205735,0.276644,
2,1,0,0,0,60100.8,0.284456,0.284135,0.271292,31,0.0205865,10,7.70835e-05,-3.56656,-3.22243,-0.0183091,-0.193957,0.284135,
2,1,0,1,0,60102.3,0.291947,0.291631,0.268695,31,0.0210069,10,7.83597e-05,-3.57074,-1.83573,-0.0321398,-0.337341,0.291631,
2,1,0,1,0,60103.8,0.299437,0.299108,0.267739,31,0.0214247,10,8.00828e-05,-3.57229,-0.0028995,-20.3484,-114.585,0.299108,
2,0,0,1,0,60105.2,0.293744,0.293407,-0.016323,31,0.0214713,10,-4.78928e-06,-4.7872,-0.00419504,-14.0642,5.76337,0.293407,
2,0,0,1,0,60106.7,0.286253,0.285928,-0.0463226,31,0.0214068,10,-1.32449e-05,-4.33421,-0.0302287,-1.95178,3.5528,0.285928,
2,0,0,0,0,60108.2,0.278763,0.278433,-0.0673573,31,0.021304,10,-1.87545e-05,-4.17162,-0.0663461,-0.889276,2.33906,0.278433,
2,0,0,1,0,60109.7,0.271272,0.270913,-0.0841676,31,0.0211734,10,-2.28021e-05,-4.07486,-0.0821984,-0.717775,2.34811,0.270913,
2,0,0,0,0,60111.2,0.263781,0.263478,-0.0986078,31,0.0210196,10,-2.5981e-05,-4.00609,-0.129175,-0.456744,1.75966,0.263478,
2,0,0,1,0,60112.7,0.25629,0.255939,-0.111043,31,0.0208463,10,-2.84202e-05,-3.95451,-0.222422,-0.265261,1.13695,0.255939,
2,0,0,0,0,60114.2,0.248799,0.248469,-0.121146,31,0.0206563,10,-3.0101e-05,-3.91669,-0.171443,-0.344138,1.62799,0.248469,
2,0,0,1,0,60115.7,0.241308,0.240975,-0.131134,31,0.0204506,10,-3.16e-05,-3.88229,-0.259412,-0.227437,1.16853,0.240975,
2,0,0,0,0,60117.2,0.233817,0.233507,-0.140449,31,0.0202309,10,-3.27958e-05,-3.85248,-0.251969,-0.234156,1.28005,0.233507,
2,0,0,1,0,60118.7,0.226326,0.225945,-0.148239,31,0.0199976,10,-3.34939e-05,-3.82904,-0.299535,-0.196972,1.14764,0.225945,
2,0,0,0,0,60120.2,0.218835,0.218492,-0.158093,31,0.0197516,10,-3.4542e-05,-3.80109,-0.368535,-0.160093,0.980444,0.218492,
2,0,0,1,0,60121.7,0.211344,0.210991,-0.166735,31,0.0194928,10,-3.51797e-05,-3.77797,-0.52705,-0.111944,0.725601,0.2109914,
2,0,0,1,0,60123.2,0.203854,0.203497,-0.173492,31,0.019221,10,-3.53052e-05,-3.76072,-0.390666,-0.151024,1.02888,0.203497,
2,0,0,1,0,60124.7,0.196363,0.196032,-0.183074,31,0.0189365,10,-3.58884e-05,-3.73737,-0.341972,-0.172529,1.23149,0.196032,
2,0,0,1,0,60126.2,0.188871,0.188521,-0.192773,31,0.0186373,10,-3.63417e-05,-3.71495,-0.25609,-0.230388,1.72861,0.188521,
2,0,0,1,0,60127.7,0.181381,0.181017,-0.203771,31,0.0183224,10,-3.6886e-05,-3.69086,-0.260481,-0.226504,1.7976,0.181017,
2,0,0,1,0,60129.1,0.173889,0.173558,-0.217009,31,0.0179902,10,-3.76636e-05,-3.66352,-0.274008,-0.215322,1.81501,0.173558,
2,0,0,1,0,60130.6,0.166398,0.166021,-0.231712,31,0.017637,10,-3.84689e-05,-3.63505,-0.272,-0.216912,1.96652,0.166021,
2,0,0,1,0,60132.1,0.158907,0.158522,-0.249223,31,0.017258,10,-3.95074e-05,-3.60341,-0.199755,-0.295362,2.89978,0.158522,
2,0,0,1,0,60133.6,0.151416,0.151072,-0.279178,31,0.0168448,10,-4.21759e-05,-3.55412,-0.138809,-0.425044,4.63996,0.151072,
2,0,0,1,0,60135.1,0.143925,0.143544,-0.32409,31,0.0163769,10,-4.65211e-05,-3.48933,-0.0883246,-0.667991,8.48111,0.143544,
2,0,0,1,0,60136.6,0.136434,0.136081,-0.396659,31,0.0158202,10,-5.39777e-05,-3.40158,-0.0844556,-0.698592,10.7892,0.136081,
2,0,0,1,0,60138.1,0.128943,0.12864,-0.480411,31,0.0151442,10,-6.18e-05,-3.31839,-0.103095,-0.572288,10.6951,0.12864,
2,0,0,0,0,60139.6,0.121453,0.121119,-0.548694,31,0.01435,10,-6.64571e-05,-3.26067,-0.18946,-0.311412,6.65608,0.121119,
2,0,0,1,0,60141.1,0.113962,0.113613,-0.578619,31,0.0134794,10,-6.57388e-05,-3.23761,-0.755289,-0.0781158,1.76605,0.113613,
2,0,0,0,0,60142.6,0.106471,0.106128,-0.582743,31,0.0125856,10,-6.18452e-05,-3.23452,3.40174,0.0173441,-0.39518,0.106128,
2,0,0,1,0,60144.1,0.0989798,0.098653,-0.576006,31,0.0116963,10,-5.68247e-05,-3.23957,2.11711,0.0278682,-0.625747,0.098653,
2,0,0,0,0,60145.6,0.0914889,0.0911358,-0.568356,31,0.0108203,10,-5.17975e-05,-3.24538,0.805866,0.0732132,-1.61554,0.0911358,
2,0,0,1,0,60147.1,0.083998,0.0836578,-0.550545,31,0.00996341,10,-4.60574e-05,-3.25921,0.452407,0.130414,-2.80249,0.0836578,
2,0,0,0,0,60148.6,0.076507,0.0761067,-0.535498,31,0.00913054,10,-4.0755e-05,-3.27124,0.490327,0.120328,-2.51309,0.07610666,
2,0,0,1,0,60150.1,0.069016,0.0687103,-0.5178,31,0.00832248,10,-3.55782e-05,-3.28584,0.554569,0.106389,-2.15624,0.0687103,
2,0,0,0,0,60151.6,0.0615251,0.0611867,-0.503551,31,0.00753796,10,-3.08106e-05,-3.29796,0.485975,0.121405,-2.38853,0.0611867,
2,0,0,1,0,60153.1,0.0540342,0.053713,-0.488015,31,0.00677701,10,-2.62128e-05,-3.31157,0.540901,0.109077,-2.0728,0.05371299,
2,0,0,1,0,60154.6,0.0465436,0.0461358,-0.469817,31,0.00604023,10,-2.16754e-05,-3.32807,0.498803,0.118283,-2.17493,0.0461358,
2,0,0,1,0,60156.1,0.0390526,0.0387596,-0.453412,31,0.00532881,10,-1.75741e-05,-3.34351,0.425439,0.13868,-2.45299,0.0387596,
2,0,0,1,0,60157.6,0.0315615,0.0311701,-0.43882,31,0.00464208,10,-1.36781e-05,-3.35771,0.448898,0.131433,-2.25119,0.0311701,
2,0,0,1,0,60159.1,0.0240706,0.0237101,-0.423346,31,0.00397833,10,-1.00376e-05,-3.3733,0.573611,0.102857,-1.70601,0.0237101,
2,0,0,1,0,60160.6,0.0165795,0.0162118,-0.413379,31,0.00333277,10,-6.7016e-06,-3.38365,1.21565,0.0485335,-0.784468,0.0162118,
2,0,0,1,0,60162.1,0.00908846,0.0087051,-0.409095,31,0.00269859,10,-3.56121e-06,-3.38818,8.02316,0.00735371,-0.117271,0.0087051,
2,0,0,1,0,60163.6,0.00159739,0.00118345,-0.415183,31,0.00206608,10,-4.91347e-07,-3.38176, , , ,0.001183446,
2,0,0,0,0,60163.9,0.000199195,-0.000189804,-0.411339,31,0.00194738,10,7.80735e-08,-3.3858, , , ,-0.000189804,