Folder: Figs_alphaMnO2_OER_Tafel_sleope/Figure_codes/Fig_3-5/rawdata_trumpetplot_data/after 10th (part 134)

File: 20221101_1-115_003_TrumpetPlot_ParaChange_from10_every3_09_CV_C01_24.csv
mode,ox/red,error,control changes,counter inc.,time/s,control/V,Ewe/V,<I>/mA,cycle number,(Q-Qo)/C,I Range,P/W,log(|I|),Tafel slope mV/dec,alpha_eff,dI/d(E-IR),E-IR/V,
2,0,0,0,0,48465.6,2.44065e-05,-0.000401673,-5.24871,25,0.0000000E+000,10,2.10826e-06,-2.27995, , , ,-0.000401673,
2,1,0,1,0,48465.7,0.00978761,0.00947775,0.906671,25,-0.000128654,10,8.5932e-06,-3.04255,0.00547354,10.7791,288.139,0.00947775,
2,1,0,1,0,48465.8,0.0197755,0.0194408,2.75949,25,6.89111e-05,10,5.36467e-05,-2.55917,0.0531178,1.11074,118.603,0.0194408,
2,1,0,1,0,48465.9,0.0297635,0.0294244,3.66727,25,0.000394845,10,0.000107907,-2.43566,0.119125,0.495278,70.7164,0.0294244,
2,1,0,1,0,48466,0.0397514,0.0393999,4.29583,25,0.000794784,10,0.000169255,-2.36695,0.16456,0.358531,60.1067,0.0393999,
2,1,0,1,0,48466.1,0.0497484,0.0494036,4.8446,25,0.00125248,10,0.000239341,-2.31474,0.211353,0.279153,52.6643,0.0494036,
2,1,0,1,0,48466.2,0.0597273,0.0593772,5.33532,25,0.00176126,10,0.000316796,-2.27284,0.249192,0.236765,49.2537,0.0593772,
2,1,0,1,0,48466.3,0.0697152,0.0693923,5.7862,25,0.0023181,10,0.000401518,-2.23761,0.310279,0.190152,42.9511,0.0693923,
2,1,0,1,0,48466.4,0.0797031,0.0793694,6.19241,25,0.00291799,10,0.000491488,-2.20814,0.38221,0.154366,37.3059,0.0793694,
2,1,0,1,0,48466.5,0.0896911,0.0893768,6.53309,25,0.00355529,10,0.000583907,-2.18488,0.452875,0.130279,33.2532,0.08937677,
2,1,0,1,0,48466.6,0.099679,0.0993312,6.89227,25,0.00422565,10,0.000684617,-2.16164,0.41496,0.142183,38.2229,0.0993312,
2,1,0,1,0,48466.7,0.109667,0.109384,7.39048,25,0.00493787,10,0.000808399,-2.13133,0.285756,0.20647,59.577,0.109384,
2,1,0,1,0,48466.8,0.119655,0.119355,8.05672,25,0.00570946,10,0.000961607,-2.09384,0.26854,0.219707,69.0517,0.119355,
2,1,0,1,0,48466.9,0.129643,0.12931,8.6796,25,0.00654802,10,0.00112236,-2.0615,0.376993,0.156502,53.0146,0.12931,
2,1,0,1,0,48467,0.139631,0.139301,9.10686,25,0.00743944,10,0.00126859,-2.04063,0.637737,0.0925146,32.8661,0.1393009,
2,1,0,1,0,48467.1,0.149619,0.149282,9.22892,25,0.00835919,10,0.00137771,-2.03485,-1.18364,-0.0498462,-17.9093,0.149282,
2,1,0,1,0,48467.2,0.159607,0.159261,8.54054,25,0.00925618,10,0.00136017,-2.06851,-0.159783,-0.36925,-122.845,0.159261,
2,1,0,1,0,48467.3,0.169595,0.169272,7.04812,25,0.0100384,10,0.00119305,-2.15193,-0.103119,-0.572152,-157.344,0.169272,
2,1,0,1,0,48467.4,0.179582,0.179227,5.71973,25,0.0106722,10,0.00102513,-2.24262,-0.12691,-0.464897,-103.995,0.179227,
2,1,0,1,0,48467.5,0.18957,0.189298,4.92416,25,0.0112009,10,0.000932134,-2.30767,-0.191821,-0.307578,-59.1914,0.189298,
2,1,0,1,0,48467.6,0.199558,0.199239,4.47709,25,0.0116687,10,0.000892012,-2.349,-0.313723,-0.188064,-32.8233,0.199239,
2,1,0,1,0,48467.7,0.209546,0.20922,4.21087,25,0.012102,10,0.000881,-2.37563,-0.403054,-0.146382,-24.0478,0.20922,
2,1,0,1,0,48467.8,0.219534,0.219229,4.03482,25,0.0125138,10,0.000884551,-2.39418,-0.687102,-0.0858679,-13.5249,0.219229,
2,1,0,1,0,48467.9,0.229522,0.229169,3.91684,25,0.0129118,10,0.00089762,-2.40706,-0.734994,-0.0802727,-12.2838,0.229169,
2,1,0,1,0,48468,0.23951,0.239203,3.83836,25,0.0133001,10,0.000918145,-2.41585,-1.69347,-0.0348397,-5.22182,0.239203,
2,1,0,1,0,48468.1,0.249498,0.249159,3.78073,25,0.013681,10,0.000942003,-2.42242,-1.42805,-0.0413152,-6.09377,0.249159,
2,1,0,1,0,48468.2,0.259486,0.259224,3.73129,25,0.0140567,10,0.000967238,-2.42814,-1.57214,-0.0375285,-5.45788,0.259224,
2,1,0,1,0,48468.3,0.269474,0.269158,3.6787,25,0.0144277,10,0.000990152,-2.43431,-1.87956,-0.0313903,-4.51194,0.269158,
2,1,0,1,0,48468.4,0.279462,0.279192,3.6411,25,0.0147943,10,0.00101657,-2.43877,-2.44299,-0.0241507,-3.43408,0.279192,
2,1,0,1,0,48468.5,0.28945,0.289104,3.59671,25,0.0151568,10,0.00103982,-2.44409,-2.6003,-0.0226897,-3.18781,0.289104,
2,1,0,1,0,48468.6,0.299438,0.299125,3.55718,25,0.0155148,10,0.00106404,-2.44889,-0.0393666,-1.49873,-194.999,0.299125,
2,0,0,1,0,48468.7,0.291747,0.291397,-0.502272,25,0.0156029,10,-0.000146361,-3.29906,-0.00416662,-14.1602,180.304,0.291397,
2,0,0,1,0,48468.8,0.281759,0.28141,-1.48101,25,0.0154939,10,-0.00041677,-2.82944,-0.0611626,-0.964641,55.2439,0.28141,
2,0,0,1,0,48468.9,0.271771,0.271487,-1.88648,25,0.0153233,10,-0.000512154,-2.72435,-0.129119,-0.456944,33.601,0.271487,
2,0,0,1,0,48469,0.261783,0.261435,-2.14315,25,0.0151208,10,-0.000560294,-2.66895,-0.242942,-0.242856,20.302,0.261435,
2,0,0,1,0,48469.1,0.251795,0.251439,-2.33337,25,0.0148964,10,-0.0005867,-2.63202,-0.310531,-0.189997,17.2934,0.251439,
2,0,0,1,0,48469.2,0.241807,0.241451,-2.48677,25,0.0146547,10,-0.000600433,-2.60436,-0.405402,-0.145535,14.1705,0.2414512,
2,0,0,1,0,48469.3,0.231815,0.231478,-2.63374,25,0.0143983,10,-0.000609652,-2.57943,-0.393373,-0.149985,15.4062,0.231478,
2,0,0,1,0,48469.4,0.221831,0.221508,-2.76296,25,0.0141287,10,-0.000612017,-2.55863,-0.539087,-0.109444,11.7829,0.221508,
2,0,0,1,0,48469.5,0.211843,0.211549,-2.88546,25,0.0138464,10,-0.000610415,-2.53979,-0.63462,-0.092969,10.4515,0.211549,
2,0,0,1,0,48469.6,0.201856,0.20151,-3.00513,25,0.0135518,10,-0.000605565,-2.52214,-0.605334,-0.0974668,11.4325,0.20151,
2,0,0,1,0,48469.7,0.191868,0.191504,-3.13692,25,0.0132447,10,-0.000600733,-2.5035,-0.505879,-0.116629,14.2948,0.191504,
2,0,0,1,0,48469.8,0.18188,0.181536,-3.28404,25,0.0129244,10,-0.000596171,-2.48359,-0.412654,-0.142977,18.2794,0.181536,
2,0,0,1,0,48469.9,0.171892,0.171579,-3.45039,25,0.0125882,10,-0.000592012,-2.46213,-0.422031,-0.1398,18.8231,0.171579,
2,0,0,1,0,48470,0.161904,0.161606,-3.67986,25,0.0122324,10,-0.000594686,-2.43417,-0.299663,-0.196888,28.3011,0.161606,
2,0,0,1,0,48470.1,0.151916,0.151565,-4.02751,25,0.0118482,10,-0.000610427,-2.39496,-0.207628,-0.284162,44.77,0.1515646,
2,0,0,1,0,48470.2,0.141928,0.141602,-4.6526,25,0.0114171,10,-0.000658818,-2.3323,-0.123767,-0.476704,86.6932,0.141602,
2,0,0,1,0,48470.3,0.13194,0.13161,-5.69697,25,0.0109038,10,-0.000749775,-2.24436,-0.105608,-0.558668,124.094,0.13161,
2,0,0,1,0,48470.4,0.121952,0.121612,-6.96044,25,0.0102713,10,-0.000846472,-2.15736,-0.134408,-0.438961,119.095,0.121612,
2,0,0,1,0,48470.5,0.111964,0.111655,-8.06612,25,0.00951854,10,-0.000900623,-2.09334,-0.19279,-0.306032,96.1971,0.111655,
2,0,0,1,0,48470.6,0.101976,0.101636,-8.86166,25,0.00866981,10,-0.000900664,-2.05248,-0.348649,-0.169225,58.435,0.101636,
2,0,0,1,0,48470.7,0.0919883,0.0916668,-9.20806,25,0.00776263,10,-0.000844073,-2.03583,-1.56714,-0.0376481,13.5276,0.0916668,
2,0,0,1,0,48470.8,0.0820004,0.0817178,-9.11483,25,0.00684441,10,-0.000744843,-2.04025,0.840665,0.0701825,-24.9634,0.0817178,
2,0,0,1,0,48470.9,0.0720124,0.0716625,-8.82116,25,0.00594788,10,-0.000632147,-2.05447,0.713025,0.082746,-28.4965,0.0716625,
2,0,0,1,0,48471,0.0620245,0.0616815,-8.56313,25,0.00507977,10,-0.000528187,-2.06737,0.786415,0.075024,-25.0745,0.0616815,
2,0,0,1,0,48471.1,0.0520366,0.0516776,-8.33265,25,0.00423562,10,-0.000430612,-2.07922,0.783332,0.0753193,-24.4778,0.0516776,
2,0,0,1,0,48471.2,0.0420486,0.0417315,-8.07326,25,0.00341556,10,-0.000336909,-2.09295,0.719034,0.0820546,-25.8656,0.0417315,
2,0,0,1,0,48471.3,0.0320607,0.0317098,-7.77917,25,0.00262377,10,-0.000246676,-2.10907,0.540981,0.109061,-33.0712,0.0317098,
2,0,0,1,0,48471.4,0.0220728,0.0217461,-7.41026,25,0.00186454,10,-0.000161144,-2.13017,0.431194,0.136829,-39.557,0.0217461,
2,0,0,1,0,48471.5,0.0120848,0.0117769,-7.02295,25,0.00114352,10,-8.27084e-05,-2.15348,0.425321,0.138719,-38.0482,0.0117769,
2,0,0,1,0,48471.6,0.0020969,0.00171659,-6.74317,25,0.000458331,10,-1.15752e-05,-2.17114,0.769544,0.0766688,-20.0943,0.00171659,
2,0,0,1,0,48471.7,-0.00789103,-0.0082947,-6.51031,25,-0.000202395,10,5.4001e-05,-2.1864,1.1023,0.0535245,-13.6274,-0.0082947,
2,0,0,1,0,48471.8,-0.017879,-0.018279,-6.45751,25,-0.000848946,10,0.000118037,-2.18994,-7.45475,-0.00791442,1.99353,-0.018279,
2,0,0,1,0,48471.9,-0.0278669,-0.028244,-6.49889,25,-0.00149555,10,0.000183555,-2.18716,-1.69396,-0.0348297,8.84332,-0.028244,
2,0,0,1,0,48472,-0.0378548,-0.0382593,-6.64399,25,-0.00215148,10,0.000254194,-2.17757,-0.959056,-0.0615188,15.9349,-0.0382593,
2,0,0,1,0,48472.1,-0.0478428,-0.0482007,-6.83856,25,-0.00282435,10,0.000329623,-2.16504,-0.605282,-0.0974753,26.0238,-0.0482007,
2,0,0,1,0,48472.2,-0.0578216,-0.0581951,-7.09901,25,-0.00351953,10,0.000413127,-2.1488,-0.575625,-0.102497,28.3901,-0.0581951,
2,0,0,1,0,48472.3,-0.0678187,-0.0681982,-7.41541,25,-0.00424397,10,0.000505718,-2.12986,-0.482963,-0.122162,35.3443,-0.0681982,
2,0,0,1,0,48472.4,-0.0778066,-0.0781162,-7.78644,25,-0.00500302,10,0.000608247,-2.10866,-0.445518,-0.13243,40.281,-0.0781162,
2,0,0,1,0,48472.5,-0.0877945,-0.0881615,-8.23722,25,-0.00580325,10,0.000726205,-2.08422,-0.400201,-0.147426,47.3966,-0.0881615,
2,0,0,1,0,48472.6,-0.0977825,-0.09817,-8.70595,25,-0.00664988,10,0.000854663,-2.06018,-0.413405,-0.142717,48.5173,-0.09816999,
2,0,0,1,1,48472.7,-0.0927386,-0.0931027,-2.92082,25,-0.00722482,10,0.000271937,-2.53449,-0.0134532,-4.38558,494.473,-0.0931027,
2,1,0,1,1,48472.8,-0.0827529,-0.0831327,0.567218,25,-0.00732153,10,-4.71543e-05,-3.24625,0.00275451,21.4194,250.809,-0.0831327,
2,1,0,1,1,48472.9,-0.0727627,-0.0731223,2.49245,25,-0.00715965,10,-0.000182254,-2.60337,0.0382254,1.54348,148.042,-0.0731223,
2,1,0,1,1,48473,-0.0627748,-0.063156,3.65093,25,-0.00684713,10,-0.000230578,-2.4376,0.0926895,0.636534,90.5083,-0.063156,
2,1,0,1,1,48473.1,-0.0527868,-0.0531366,4.37076,25,-0.00644216,10,-0.000232247,-2.35944,0.189962,0.310589,52.9098,-0.0531366,
2,1,0,1,1,48473.2,-0.0427989,-0.0431881,4.80195,25,-0.00598094,10,-0.000207387,-2.31858,0.329026,0.179317,33.6052,-0.0431881,
2,1,0,1,1,48473.3,-0.0328109,-0.0331785,5.04951,25,-0.00548714,10,-0.000167535,-2.29675,0.721558,0.0817675,16.0998,-0.0331785,
2,1,0,1,1,48473.4,-0.022823,-0.0231529,5.16165,25,-0.00497572,10,-0.000119507,-2.28721,1.80115,0.0327568,6.59553,-0.0231529,
2,1,0,1,1,48473.5,-0.0128351,-0.0131754,5.19063,25,-0.00445734,10,-6.83888e-05,-2.28478,61.5432,0.000958676,0.194263,-0.0131754,
2,1,0,1,1,48473.6,-0.00284713,-0.00322577,5.18994,25,-0.00393781,10,-1.67415e-05,-2.28484,-9.09289,-0.00648859,-1.31294,-0.00322577,
2,1,0,1,1,48473.6,-2.55332e-05,-0.000401673,5.19621,25,-0.00379187,10,-2.08718e-06,-2.28431, , , ,-0.000401673,

File: 20221101_1-115_003_TrumpetPlot_ParaChange_from10_every3_09_CV_C01_25.csv
mode,ox/red,error,control changes,counter inc.,time/s,control/V,Ewe/V,<I>/mA,cycle number,(Q-Qo)/C,I Range,P/W,log(|I|),Tafel slope mV/dec,alpha_eff,dI/d(E-IR),E-IR/V,
2,0,0,0,0,50435.8,2.44065e-05,-0.000306236,-5.26397,26,0.0000000E+000,10,1.61202e-06,-2.27869, , , ,-0.000306236,
2,1,0,1,0,50435.9,0.00978761,0.00943567,0.90425,26,-0.000128002,10,8.5322e-06,-3.04371,0.00547129,10.7836,286.798,0.00943567,
2,1,0,1,0,50436,0.0197755,0.0194371,2.74927,26,6.8407e-05,10,5.34378e-05,-2.56078,0.0529956,1.1133,118.509,0.0194371,
2,1,0,1,0,50436.1,0.0297635,0.0294348,3.65708,26,0.000392885,10,0.000107645,-2.43687,0.11901,0.495757,70.6279,0.0294348,
2,1,0,1,0,50436.2,0.0397514,0.0393792,4.28322,26,0.000791456,10,0.00016867,-2.36823,0.164748,0.358123,59.8866,0.0393792,
2,1,0,1,0,50436.3,0.0497484,0.0494023,4.8325,26,0.00124767,10,0.000238737,-2.31583,0.211551,0.278892,52.4899,0.0494023,
2,1,0,1,0,50436.4,0.0597273,0.0593824,5.31825,26,0.00175458,10,0.000315811,-2.27423,0.258263,0.228449,47.3672,0.0593824,
2,1,0,1,0,50436.5,0.0697152,0.0694052,5.76492,26,0.00230907,10,0.000400115,-2.23921,0.317538,0.185804,41.8118,0.0694052,
2,1,0,1,0,50436.6,0.0797031,0.0793451,6.16857,26,0.00290608,10,0.000489446,-2.20982,0.38638,0.152699,36.7486,0.0793451,
2,1,0,1,0,50436.7,0.0896911,0.0893461,6.50446,26,0.00353998,10,0.000581147,-2.18679,0.446608,0.132107,33.5558,0.0893461,
2,1,0,1,0,50436.8,0.099679,0.0993096,6.86847,26,0.00420691,10,0.000682106,-2.16314,0.383973,0.153657,41.1435,0.0993096,
2,1,0,1,0,50436.9,0.109667,0.109354,7.37587,26,0.00491652,10,0.000806583,-2.13219,0.276221,0.213597,61.5225,0.109354,
2,1,0,1,0,50437,0.119655,0.119313,8.04024,26,0.00568641,10,0.000959303,-2.09473,0.275514,0.214145,67.2207,0.119313,
2,1,0,1,0,50437.1,0.129643,0.129313,8.65776,26,0.00652245,10,0.00111956,-2.06259,0.387172,0.152387,51.4691,0.129313,
2,1,0,1,0,50437.2,0.139631,0.139267,9.05833,26,0.0074097,10,0.00126153,-2.04295,0.692143,0.0852424,30.1356,0.139267,
2,1,0,1,0,50437.3,0.149619,0.149301,9.15425,26,0.00832282,10,0.00136674,-2.03838,-0.975799,-0.0604633,-21.5454,0.149301,
2,1,0,1,0,50437.4,0.159607,0.159278,8.43526,26,0.00920946,10,0.00134355,-2.0739,-0.158279,-0.37276,-122.459,0.1592776,
2,1,0,1,0,50437.5,0.169595,0.169244,6.97537,26,0.00998101,10,0.00118054,-2.15643,-0.108604,-0.543258,-147.83,0.169244,
2,1,0,1,0,50437.6,0.179582,0.179266,5.72023,26,0.0106107,10,0.00102544,-2.24259,-0.132596,-0.44496,-99.541,0.179266,
2,1,0,1,0,50437.7,0.18957,0.189225,4.96362,26,0.0111413,10,0.000939241,-2.3042,-0.2017,-0.292514,-56.7632,0.189225,
2,1,0,1,0,50437.8,0.199558,0.199262,4.52363,26,0.0116132,10,0.000901388,-2.34451,-0.321733,-0.183382,-32.4036,0.199262,
2,1,0,1,0,50437.9,0.209546,0.209203,4.25728,26,0.0120507,10,0.000890634,-2.37087,-0.386674,-0.152583,-25.357,0.209203,
2,1,0,1,0,50438,0.219534,0.219213,4.07899,26,0.0124662,10,0.000894168,-2.38945,-0.670106,-0.0880457,-13.9975,0.219213,
2,1,0,1,0,50438.1,0.229522,0.229206,3.94876,26,0.0128672,10,0.000905079,-2.40354,-0.829401,-0.0711357,-10.9755,0.229206,
2,1,0,1,0,50438.2,0.23951,0.239171,3.86838,26,0.0132578,10,0.000925203,-2.41247,-1.39663,-0.0422447,-6.38012,0.2391707,
2,1,0,1,0,50438.3,0.249498,0.249156,3.80567,26,0.0136406,10,0.000948205,-2.41957,-1.31206,-0.0449676,-6.67683,0.249156,
2,1,0,1,0,50438.4,0.259486,0.259145,3.75036,26,0.0140178,10,0.000971888,-2.42593,-1.17326,-0.0502872,-7.3548,0.259145,
2,1,0,1,0,50438.5,0.269474,0.269157,3.69845,26,0.0143899,10,0.000995465,-2.43198,-1.39132,-0.0424058,-6.12224,0.269157,
2,1,0,1,0,50438.6,0.279462,0.279139,3.65281,26,0.0147576,10,0.00101964,-2.43737,-2.56353,-0.0230151,-3.28389,0.279139,
2,1,0,1,0,50438.7,0.28945,0.2891,3.6109,26,0.0151207,10,0.00104391,-2.44238,-3.94573,-0.0149529,-2.10935,0.2891,
2,1,0,1,0,50438.8,0.299438,0.299152,3.56933,26,0.0154793,10,0.00106777,-2.44741,-0.0373643,-1.57905,-205.503,0.299152,
2,0,0,1,0,50438.9,0.291747,0.29142,-0.497591,26,0.0155675,10,-0.000145008,-3.30313,-0.00425639,-13.8615,177.608,0.29142,
2,0,0,1,0,50439,0.281759,0.281402,-1.48344,26,0.0154592,10,-0.000417443,-2.82873,-0.0595905,-0.990091,56.7604,0.281402,
2,0,0,1,0,50439.1,0.271771,0.271438,-1.89017,26,0.015289,10,-0.000513064,-2.7235,-0.128861,-0.457858,33.7015,0.2714377,
2,0,0,1,0,50439.2,0.261783,0.261478,-2.15279,26,0.0150865,10,-0.000562908,-2.667,-0.245783,-0.240049,20.1227,0.261478,
2,0,0,1,0,50439.3,0.251795,0.251498,-2.34064,26,0.0148619,10,-0.000588666,-2.63067,-0.30592,-0.192861,17.6336,0.251498,
2,0,0,1,0,50439.4,0.241807,0.24149,-2.49521,26,0.0146196,10,-0.000602569,-2.60289,-0.36528,-0.16152,15.7753,0.24149,
2,0,0,1,0,50439.5,0.231815,0.231449,-2.64494,26,0.0143626,10,-0.000612169,-2.57758,-0.385161,-0.153183,15.7962,0.231449,
2,0,0,1,0,50439.6,0.221831,0.221504,-2.76962,26,0.0140923,10,-0.000613482,-2.55758,-0.463908,-0.12718,13.7426,0.221504,
2,0,0,1,0,50439.7,0.211844,0.211486,-2.89152,26,0.0138092,10,-0.000611515,-2.53887,-0.598328,-0.0986082,11.1287,0.2114858,
2,0,0,1,0,50439.8,0.201856,0.201498,-3.01295,26,0.0135138,10,-0.000607103,-2.52101,-0.576985,-0.102256,12.0348,0.201498,
2,0,0,1,0,50439.9,0.191868,0.191536,-3.14091,26,0.013206,10,-0.000601597,-2.50295,-0.555424,-0.106225,13.048,0.191536,
2,0,0,1,0,50440,0.18188,0.18158,-3.29205,26,0.0128852,10,-0.000597771,-2.48253,-0.435016,-0.135627,17.3853,0.18158,
2,0,0,1,0,50440.1,0.171892,0.171543,-3.45504,26,0.0125486,10,-0.000592689,-2.46155,-0.446388,-0.132172,17.83,0.171543,
2,0,0,1,0,50440.2,0.161904,0.161627,-3.68247,26,0.0121925,10,-0.000595185,-2.43386,-0.316781,-0.186249,26.7698,0.1616268,
2,0,0,1,0,50440.3,0.151916,0.151541,-4.02258,26,0.0118084,10,-0.000609585,-2.39549,-0.212594,-0.277524,43.6803,0.151541,
2,0,0,1,0,50440.4,0.141928,0.141605,-4.64127,26,0.0113781,10,-0.000657225,-2.33336,-0.130829,-0.450971,81.7904,0.141605,
2,0,0,1,0,50440.5,0.13194,0.131563,-5.67845,26,0.0108667,10,-0.000747072,-2.24577,-0.104063,-0.566966,125.617,0.131563,
2,0,0,1,0,50440.6,0.121952,0.121616,-6.92551,26,0.0102367,10,-0.00084225,-2.15955,-0.133434,-0.442166,119.417,0.121616,
2,0,0,1,0,50440.7,0.111964,0.111652,-8.02063,26,0.00948731,10,-0.00089552,-2.09579,-0.192954,-0.305772,95.6736,0.111652,
2,0,0,1,0,50440.8,0.101976,0.101611,-8.82117,26,0.00864244,10,-0.000896331,-2.05447,-0.35471,-0.166333,57.1611,0.101611,
2,0,0,1,0,50440.9,0.0919883,0.0916718,-9.15889,26,0.00773995,10,-0.000839612,-2.03816,-1.55414,-0.0379632,13.566,0.0916718,
2,0,0,1,0,50441,0.0820004,0.0816721,-9.05536,26,0.00682722,10,-0.00073957,-2.04309,0.823838,0.071616,-25.2911,0.0816721,
2,0,0,1,0,50441.1,0.0720124,0.0716208,-8.75949,26,0.00593677,10,-0.000627362,-2.05752,0.686782,0.0859079,-29.3734,0.0716208,
2,0,0,1,0,50441.2,0.0620245,0.0616541,-8.51067,26,0.00507439,10,-0.000524717,-2.07004,0.848994,0.069494,-23.0782,0.0616541,
2,0,0,1,0,50441.3,0.0520366,0.0516998,-8.28976,26,0.00423486,10,-0.000428578,-2.08146,0.833045,0.0708245,-22.9034,0.0516998,
2,0,0,1,0,50441.4,0.0420486,0.0417406,-8.04549,26,0.00341813,10,-0.000335824,-2.09445,0.732232,0.0805756,-25.3024,0.04174063,
2,0,0,1,0,50441.5,0.0320607,0.0316858,-7.76338,26,0.00262853,10,-0.000245989,-2.10995,0.532713,0.110754,-33.5326,0.0316858,
2,0,0,1,0,50441.6,0.0220728,0.0217557,-7.40484,26,0.00187026,10,-0.000161097,-2.13048,0.458604,0.128651,-37.1772,0.0217557,
2,0,0,1,0,50441.7,0.0120848,0.0117204,-7.03843,26,0.00114872,10,-8.24935e-05,-2.15252,0.436683,0.13511,-37.1108,0.0117204,
2,0,0,1,0,50441.8,0.0020969,0.00170921,-6.77105,26,0.000461732,10,-1.15732e-05,-2.16934,0.827291,0.0713171,-18.7607,0.001709211,
2,0,0,1,0,50441.9,-0.00789103,-0.00828889,-6.54073,26,-0.000201712,10,5.42154e-05,-2.18437,1.18807,0.0496605,-12.6966,-0.00828889,
2,0,0,1,0,50442,-0.017879,-0.0182923,-6.48458,26,-0.000851145,10,0.000118618,-2.18812,-24.5072,-0.00240745,0.608869,-0.0182923,
2,0,0,1,0,50442.1,-0.0278669,-0.028247,-6.52645,26,-0.0015005,10,0.000184353,-2.18532,-1.72512,-0.0342005,8.71935,-0.028247,
2,0,0,1,0,50442.2,-0.0378548,-0.0382427,-6.66032,26,-0.00215907,10,0.000254709,-2.17651,-0.9654,-0.0611146,15.8838,-0.0382427,
2,0,0,1,0,50442.3,-0.0478428,-0.0482007,-6.85397,26,-0.00283418,10,0.000330366,-2.16406,-0.594764,-0.099199,26.5657,-0.0482007,
2,0,0,1,0,50442.4,-0.0578216,-0.0582441,-7.1135,26,-0.00353116,10,0.000414319,-2.14792,-0.556829,-0.105957,29.4008,-0.0582441,
2,0,0,1,0,50442.5,-0.0678187,-0.068216,-7.42636,26,-0.00425713,10,0.000506597,-2.12922,-0.473135,-0.1247,36.1273,-0.068216,
2,0,0,1,0,50442.6,-0.0778066,-0.0781916,-7.80089,26,-0.00501754,10,0.000609965,-2.10786,-0.4611,-0.127955,38.9634,-0.0781916,
2,0,0,1,0,50442.7,-0.0877945,-0.0881793,-8.24552,26,-0.00581875,10,0.000727085,-2.08378,-0.40961,-0.14404,46.3354,-0.0881793,
2,0,0,1,0,50442.8,-0.0977825,-0.0981739,-8.71371,26,-0.00666603,10,0.000855459,-2.0598,-0.410184,-0.143838,48.9352,-0.0981739,
2,0,0,1,1,50442.9,-0.0927386,-0.0931114,-2.89613,26,-0.00723886,10,0.000269663,-2.53818,-0.0134094,-4.39991,492.277,-0.0931114,
2,1,0,1,1,50443,-0.0827529,-0.0831526,0.569639,26,-0.00733455,10,-4.7367e-05,-3.2444,0.00289507,20.3795,248.189,-0.0831526,
2,1,0,1,1,50443.1,-0.0727627,-0.0731912,2.48799,26,-0.00717315,10,-0.000182099,-2.60415,0.0382327,1.54318,147.506,-0.0731912,
2,1,0,1,1,50443.2,-0.0627748,-0.0631408,3.63998,26,-0.00686182,10,-0.000229832,-2.4389,0.0917563,0.643008,91.1418,-0.0631408,
2,1,0,1,1,50443.3,-0.0527868,-0.0531213,4.36451,26,-0.00645795,10,-0.000231848,-2.36006,0.182154,0.323903,55.035,-0.05312128,
2,1,0,1,1,50443.4,-0.0427989,-0.0431829,4.79511,26,-0.00599759,10,-0.000207067,-2.3192,0.311586,0.189354,35.4414,-0.04318288,
2,1,0,1,1,50443.5,-0.0328109,-0.0331789,5.05121,26,-0.00550426,10,-0.000167594,-2.2966,0.689148,0.0856129,16.845,-0.0331789,
2,1,0,1,1,50443.6,-0.022823,-0.0231571,5.16246,26,-0.00499288,10,-0.000119547,-2.28714,1.62398,0.0363306,7.31523,-0.0231571,
2,1,0,1,1,50443.7,-0.0128351,-0.0132075,5.19812,26,-0.00447419,10,-6.86544e-05,-2.28415,13.5313,0.00436025,0.884362,-0.0132075,
2,1,0,1,1,50443.8,-0.00284713,-0.00320875,5.1967,26,-0.00395402,10,-1.66749e-05,-2.28427,-6.36448,-0.0092702,-1.87901,-0.00320875,
2,1,0,1,1,50443.8,-2.55332e-05,-0.000287149,5.21147,26,-0.00380787,10,-1.49647e-06,-2.28304, , , ,-0.0002871489,