Folder: Figs_alphaMnO2_OER_Tafel_sleope/Figure_codes/Fig_3-5/rawdata_trumpetplot_data/after 10th (part 5)

File: 20221101_1-115_003_TrumpetPlot_ParaChange_from10_every3_02_CV_C01_8.csv
mode,ox/red,error,control changes,counter inc.,time/s,control/V,Ewe/V,<I>/mA,cycle number,(Q-Qo)/C,I Range,P/W,log(|I|),Tafel slope mV/dec,alpha_eff,dI/d(E-IR),E-IR/V,
2,0,0,1,0,16101.1,2.44065e-05,-0.000306236,-0.352535,9,0.0000000E+000,10,1.07959e-07,-3.4528, , , ,-0.000306236,
2,0,0,1,0,16108.3,0.00729061,0.006948,-0.0936036,9,-0.000886561,10,-6.50358e-07,-4.02871,-0.0319106,-1.84891,6.82465,0.006948,
2,0,0,1,0,16115.8,0.0147815,0.0144185,-0.0586724,9,-0.00133124,10,-8.45967e-07,-4.23157,-0.0384062,-1.53621,3.51629,0.0144185,
2,0,0,1,0,16123.3,0.0222725,0.0219569,-0.0385011,9,-0.00158045,10,-8.45366e-07,-4.41453,-0.0395374,-1.49226,2.23321,0.02195695,
2,0,0,1,0,16130.8,0.0297635,0.0294499,-0.0225157,9,-0.0016971,10,-6.63085e-07,-4.64751,-0.0312446,-1.88833,1.63987,0.0294499,
2,0,0,1,0,16138.3,0.0372544,0.0369469,-0.010073,9,-0.00170781,10,-3.72168e-07,-4.99684,-0.0138944,-4.24633,1.65118,0.0369469,
2,0,0,1,0,16145.8,0.0447454,0.0444684,0.00161961,9,-0.00162746,10,7.20216e-08,-5.79059,0.0124569,4.73633,1.55682,0.0444684,
2,0,0,1,0,16153.3,0.0522363,0.0519018,0.0118322,9,-0.00146224,10,6.14112e-07,-4.92693,0.0182283,3.23673,1.4553,0.0519018,
2,1,0,1,0,16160.8,0.0597273,0.0593968,0.0218229,9,-0.0012222,10,1.29621e-06,-4.66109,0.0403901,1.46076,1.20129,0.0593968,
2,1,0,1,0,16168.3,0.0672183,0.0668982,0.0296707,9,-0.000913952,10,1.98491e-06,-4.52767,0.0550905,1.07096,1.22436,0.06689816,
2,1,0,1,0,16175.8,0.0747092,0.0743814,0.037332,9,-0.000545314,10,2.77681e-06,-4.42792,0.0869824,0.678298,0.992683,0.0743814,
2,1,0,1,0,16183.2,0.0822001,0.0819102,0.0433327,9,-0.000120889,10,3.54939e-06,-4.36318,0.089231,0.661205,1.13706,0.0819102,
2,1,0,1,0,16190.7,0.0896911,0.0894105,0.0530135,9,0.000362222,10,4.73997e-06,-4.27561,0.0848545,0.695308,1.45238,0.0894105,
2,1,0,1,0,16198.2,0.0971821,0.0968928,0.0642223,9,0.000922654,10,6.22268e-06,-4.19231,0.0862375,0.684157,1.7133,0.0968928,
2,1,0,1,0,16205.7,0.104673,0.104373,0.0765173,9,0.0015681,10,7.98633e-06,-4.11624,0.0981439,0.601158,1.77181,0.104373,
2,1,0,1,0,16213.2,0.112164,0.111817,0.0872282,9,0.00230251,10,9.75359e-06,-4.05934,0.177563,0.332276,1.119,0.111817,
2,1,0,1,0,16220.7,0.119655,0.119346,0.096496,9,0.00311022,10,1.15164e-05,-4.01549,0.176654,0.333987,1.25203,0.119346,
2,1,0,1,0,16228.2,0.127146,0.126828,0.104574,9,0.0039894,10,1.32629e-05,-3.98058,0.282651,0.208738,0.854857,0.126828,
2,1,0,1,0,16235.7,0.134637,0.134309,0.106231,9,0.00491463,10,1.42678e-05,-3.97375,-0.27789,-0.212314,-0.877275,0.1343092,
2,1,0,1,0,16243.2,0.142128,0.141797,0.0906632,9,0.00578275,10,1.28557e-05,-4.04257,-0.0668451,-0.882638,-3.09595,0.141797,
2,1,0,1,0,16250.7,0.149619,0.149331,0.0685257,9,0.00649204,10,1.0233e-05,-4.16415,-0.0744864,-0.792091,-2.14867,0.1493309,
2,1,0,1,0,16258.2,0.15711,0.156765,0.0570771,9,0.00707173,10,8.94772e-06,-4.24354,-0.123769,-0.476694,-1.06027,0.156765,
2,1,0,1,0,16265.6,0.164601,0.164334,0.051919,9,0.00758754,10,8.53204e-06,-4.28467,-0.315573,-0.186961,-0.379126,0.164334,
2,1,0,1,0,16273.1,0.172091,0.171773,0.0494353,9,0.00807664,10,8.49166e-06,-4.30596,-0.305202,-0.193315,-0.374636,0.171773,
2,1,0,1,0,16280.6,0.179582,0.179295,0.0487446,9,0.00854915,10,8.73966e-06,-4.31207,0.67763,0.0870682,0.165635,0.179295,
2,1,0,1,0,16288.1,0.187073,0.186774,0.0482232,9,0.00901828,10,9.00684e-06,-4.31674,-6.64109,-0.00888408,-0.0168443,0.186774,
2,1,0,1,0,16295.6,0.194564,0.194249,0.0491068,9,0.00948611,10,9.53893e-06,-4.30886,-6.09899,-0.00967374,-0.0184201,0.194249,
2,1,0,1,0,16303.1,0.202055,0.201743,0.0492491,9,0.00995616,10,9.93564e-06,-4.3076,-5.24832,-0.0112417,-0.0213691,0.201743,
2,1,0,1,0,16310.6,0.209546,0.209224,0.0490994,9,0.010428,10,1.02728e-05,-4.30892,0.625524,0.0943209,0.182392,0.209224,
2,1,0,1,0,16318.1,0.217037,0.216737,0.0495796,9,0.0109043,10,1.07457e-05,-4.3047,-2.68033,-0.0220122,-0.0430238,0.2167367,
2,1,0,1,0,16325.6,0.224528,0.224215,0.0507362,9,0.0113824,10,1.13758e-05,-4.29468,0.443974,0.132891,0.263314,0.224215,
2,1,0,1,0,16333.1,0.232019,0.231717,0.0520493,9,0.0118707,10,1.20607e-05,-4.28358,0.947234,0.0622866,0.127014,0.231717,
2,1,0,1,0,16340.6,0.23951,0.239214,0.0529764,9,0.0123646,10,1.26727e-05,-4.27592,1.29622,0.0455169,0.0943186,0.239214,
2,1,0,1,0,16348,0.247001,0.246705,0.0540594,9,0.0128657,10,1.33367e-05,-4.26713,1.48294,0.0397857,0.0837847,0.246705,
2,1,0,1,0,16355.5,0.254492,0.254191,0.0551183,9,0.0133735,10,1.40106e-05,-4.2587,1.03449,0.0570329,0.122888,0.2541914,
2,1,0,1,0,16363,0.261983,0.261668,0.0564099,9,0.0138902,10,1.47607e-05,-4.24864,1.12493,0.0524477,0.114978,0.261668,
2,1,0,1,0,16370.5,0.269474,0.269151,0.0572767,9,0.0144125,10,1.54161e-05,-4.24202,0.961979,0.0613319,0.137314,0.2691505,
2,1,0,1,0,16378,0.276965,0.276613,0.0578148,9,0.0149426,10,1.59923e-05,-4.23796,2.85335,0.0206775,0.0469551,0.276613,
2,1,0,1,0,16385.5,0.284456,0.284136,0.0585052,9,0.0154766,10,1.66235e-05,-4.23281,0.822003,0.0717759,0.164686,0.284136,
2,1,0,1,0,16393,0.291947,0.291633,0.0592808,9,0.0160155,10,1.72883e-05,-4.22709,-3.58551,-0.0164551,-0.0382721,0.291633,
2,1,0,1,0,16400.5,0.299438,0.29916,0.0600146,9,0.0165587,10,1.7954e-05,-4.22174,-0.00501703,-11.7599,-19.1678,0.29916,
2,1,0,1,0,16407.3,0.293745,0.293443,0.0123644,9,0.0166465,10,3.62825e-06,-4.90783,0.0184896,3.19099,1.60789,0.293443,
2,1,0,1,0,16414.8,0.286254,0.285931,0.00454367,9,0.0166131,10,1.29918e-06,-5.34259,0.00962931,6.12713,0.932563,0.285931,
2,1,0,1,0,16422.3,0.278763,0.278456,-0.00119531,9,0.0165292,10,-3.3284e-07,-5.92252,-0.00247651,-23.8238,0.699507,0.278456,
2,1,0,1,0,16429.8,0.271272,0.270958,-0.00566274,9,0.0164072,10,-1.53437e-06,-5.24697,-0.0289907,-2.03513,0.453871,0.270958,
2,0,0,1,0,16437.3,0.263781,0.263479,-0.00987134,9,0.0162535,10,-2.6009e-06,-5.00562,-0.053683,-1.09904,0.407653,0.263479,
2,0,0,1,0,16444.8,0.25629,0.255962,-0.0138239,9,0.0160714,10,-3.5384e-06,-4.85937,-0.0675704,-0.873164,0.453018,0.255962,
2,0,0,1,0,16452.3,0.248799,0.2485,-0.0166982,9,0.015863,10,-4.14951e-06,-4.77733,-0.0906891,-0.650574,0.425489,0.2485,
2,0,0,1,0,16459.8,0.241308,0.240966,-0.0202397,9,0.0156302,10,-4.87709e-06,-4.6938,-0.0914936,-0.644854,0.491159,0.240966,
2,0,0,1,0,16467.3,0.233817,0.233507,-0.0227825,9,0.0153726,10,-5.31987e-06,-4.6424,-0.125308,-0.47084,0.418103,0.233507,
2,0,0,1,0,16474.7,0.226326,0.226055,-0.0256472,9,0.0150941,10,-5.7977e-06,-4.59096,-0.168059,-0.351068,0.350806,0.226055,
2,0,0,1,0,16482.2,0.218835,0.218495,-0.028121,9,0.0147937,10,-6.1443e-06,-4.55097,-0.412644,-0.14298,0.157583,0.218495,
2,0,0,1,0,16489.7,0.211344,0.211025,-0.03085,9,0.0144733,10,-6.51013e-06,-4.51074,-0.126119,-0.467811,0.560482,0.2110254,
2,0,0,1,0,16497.2,0.203853,0.203525,-0.0335628,9,0.0141289,10,-6.83087e-06,-4.47414,-0.233839,-0.25231,0.333902,0.2035251,
2,0,0,1,0,16504.7,0.196362,0.196046,-0.0367606,9,0.0137621,10,-7.20677e-06,-4.43462,-0.234485,-0.251615,0.36316,0.196046,
2,0,0,1,0,16512.2,0.188871,0.188576,-0.0405578,9,0.013368,10,-7.64825e-06,-4.39193,-0.235753,-0.250262,0.397569,0.188576,
2,0,0,1,0,16519.7,0.18138,0.181074,-0.0444129,9,0.0129477,10,-8.04203e-06,-4.35249,-0.238942,-0.246921,0.428199,0.181074,
2,0,0,1,0,16527.2,0.173889,0.173577,-0.0488198,9,0.0124951,10,-8.474e-06,-4.3114,-0.176013,-0.335202,0.638831,0.173577,
2,0,0,1,0,16534.7,0.166398,0.166079,-0.0551854,9,0.0120015,10,-9.16513e-06,-4.25818,-0.14296,-0.412704,0.885637,0.166079,
2,0,0,1,0,16542.2,0.158907,0.158615,-0.0625282,9,0.0114529,10,-9.91788e-06,-4.20392,-0.113458,-0.520014,1.28125,0.158615,
2,0,0,1,0,16549.7,0.151417,0.151082,-0.0752295,9,0.0108243,10,-1.13658e-05,-4.12361,-0.0868338,-0.679459,2.01132,0.151082,
2,0,0,1,0,16557.1,0.143926,0.143634,-0.0953834,9,0.0100729,10,-1.37003e-05,-4.02053,-0.0663886,-0.888707,3.30757,0.143634,
2,0,0,1,0,16564.6,0.136435,0.136097,-0.123323,9,0.0091389,10,-1.67839e-05,-3.90895,-0.0774345,-0.761934,3.62841,0.136097,
2,0,0,1,0,16572.1,0.128944,0.128665,-0.144165,9,0.00800963,10,-1.85489e-05,-3.84114,-0.189223,-0.311801,1.7435,0.128665,
2,0,0,1,0,16579.6,0.121453,0.12115,-0.150815,9,0.00677571,10,-1.82712e-05,-3.82155,-5.76269,-0.0102383,0.0602437,0.12115,
2,0,0,1,0,16587.1,0.113962,0.113661,-0.147962,9,0.00553014,10,-1.68175e-05,-3.82985,1.01986,0.0578509,-0.33491,0.113661,
2,0,0,1,0,16594.6,0.106471,0.106154,-0.145331,9,0.00430729,10,-1.54275e-05,-3.83764,0.885844,0.0666031,-0.379936,0.106154,
2,0,0,1,0,16602.1,0.0989798,0.0986254,-0.140119,9,0.0031173,10,-1.38193e-05,-3.8535,0.423592,0.139285,-0.759829,0.0986254,
2,0,0,1,0,16609.6,0.0914889,0.0911485,-0.133633,9,0.00197259,10,-1.21804e-05,-3.87409,0.459805,0.128315,-0.671978,0.0911485,
2,0,0,1,0,16617.1,0.083998,0.0837077,-0.128152,9,0.000873247,10,-1.07273e-05,-3.89227,0.286087,0.206231,-1.03235,0.08370775,
2,0,0,1,0,16624.6,0.076507,0.0761215,-0.123554,9,-0.000187882,10,-9.40512e-06,-3.90814,0.40825,0.144519,-0.696645,0.0761215,
2,0,0,1,0,16632.1,0.069016,0.0687113,-0.119992,9,-0.00121629,10,-8.24478e-06,-3.92085,0.486307,0.121323,-0.569306,0.0687113,
2,0,0,1,0,16639.5,0.0615251,0.0611889,-0.11682,9,-0.00221903,10,-7.14809e-06,-3.93248,0.877602,0.0672287,-0.30708,0.0611889,
2,0,0,1,0,16647,0.0540342,0.0537098,-0.114613,9,-0.0031983,10,-6.15582e-06,-3.94077,0.667403,0.0884023,-0.393637,0.0537098,
2,0,0,1,0,16654.5,0.0465432,0.0461947,-0.110881,9,-0.00415553,10,-5.12212e-06,-3.95514,0.76664,0.0769592,-0.33477,0.0461947,
2,0,0,1,0,16662,0.0390522,0.0387326,-0.108018,9,-0.00509151,10,-4.18381e-06,-3.9665,0.528226,0.111695,-0.471996,0.0387326,
2,0,0,1,0,16669.5,0.0315613,0.031209,-0.105461,9,-0.00600418,10,-3.29133e-06,-3.97691,0.644785,0.0915034,-0.377923,0.031209,
2,0,0,1,0,16677,0.0240703,0.0237756,-0.10303,9,-0.00689764,10,-2.44959e-06,-3.98704,1.09615,0.0538248,-0.217289,0.0237756,
2,0,0,1,0,16684.5,0.0165794,0.0162531,-0.103162,9,-0.0077796,10,-1.67671e-06,-3.98648,-7.43963,-0.00793051,0.0317561,0.0162531,
2,0,0,1,0,16692,0.00908843,0.00875596,-0.104119,9,-0.00866389,10,-9.11659e-07,-3.98247,-1.09383,-0.0539389,0.219828,0.00875596,
2,0,0,1,0,16699.5,0.00159744,0.00121859,-0.10778,9,-0.00956577,10,-1.3134e-07,-3.96746, , , ,0.00121859,
2,0,0,1,0,16700.9,0.000199235,-0.000224141,-0.107808,9,-0.00973662,10,2.41641e-08,-3.96735, , , ,-0.000224141,

File: 20221101_1-115_003_TrumpetPlot_ParaChange_from10_every3_02_CV_C01_9.csv
mode,ox/red,error,control changes,counter inc.,time/s,control/V,Ewe/V,<I>/mA,cycle number,(Q-Qo)/C,I Range,P/W,log(|I|),Tafel slope mV/dec,alpha_eff,dI/d(E-IR),E-IR/V,
2,0,0,1,0,18071.2,2.44065e-05,-0.000325324,-0.359531,10,0.0000000E+000,10,1.16964e-07,-3.44426, , , ,-0.000325324,
2,0,0,1,0,18078.5,0.00729061,0.00699358,-0.0923647,10,-0.000898987,10,-6.45959e-07,-4.03449,-0.0305466,-1.93147,7.04716,0.00699358,
2,0,0,1,0,18086,0.0147815,0.014497,-0.0578341,10,-0.00134615,10,-8.3842e-07,-4.23782,-0.0375285,-1.57214,3.53309,0.014497,
2,0,0,1,0,18093.5,0.0222725,0.021975,-0.0361661,10,-0.00159446,10,-7.94749e-07,-4.4417,-0.0375794,-1.57001,2.22819,0.021975,
2,0,0,1,0,18100.9,0.0297635,0.0294541,-0.0212773,10,-0.00171061,10,-6.26703e-07,-4.67208,-0.0247707,-2.38185,1.93082,0.0294541,
2,0,0,1,0,18108.4,0.0372544,0.036896,-0.00740012,10,-0.00171804,10,-2.73035e-07,-5.13076,-0.0109792,-5.37379,1.53218,0.03689599,
2,0,0,1,0,18115.9,0.0447454,0.0444027,0.00360925,10,-0.0016318,10,1.6026e-07,-5.44258,0.00378821,15.5746,1.49334,0.0444027,
2,1,0,1,0,18123.4,0.0522363,0.0519102,0.0134493,10,-0.00146474,10,6.98157e-07,-4.8713,0.0234162,2.51963,1.29177,0.05191024,
2,1,0,1,0,18130.9,0.0597273,0.0594127,0.0223917,10,-0.00122651,10,1.33035e-06,-4.64991,0.0440116,1.34055,1.16676,0.0594127,
2,1,0,1,0,18138.4,0.0672183,0.0669289,0.0309968,10,-0.000921783,10,2.07458e-06,-4.50868,0.0660664,0.893041,1.08746,0.0669289,
2,1,0,1,0,18145.9,0.0747092,0.0743994,0.038146,10,-0.000555821,10,2.83804e-06,-4.41855,0.0949934,0.621096,0.929102,0.0743994,
2,1,0,1,0,18153.4,0.0822001,0.081888,0.0457088,10,-0.000132441,10,3.743e-06,-4.34,0.0980321,0.601844,1.08306,0.081888,
2,1,0,1,0,18160.9,0.0896911,0.0893713,0.0546203,10,0.000350576,10,4.88148e-06,-4.26265,0.109083,0.540875,1.15792,0.0893713,
2,1,0,1,0,18168.4,0.0971821,0.0968874,0.0652067,10,0.000906171,10,6.31771e-06,-4.18571,0.0911292,0.647432,1.6455,0.0968874,
2,1,0,1,0,18175.9,0.104673,0.104355,0.0772506,10,0.00154518,10,8.06147e-06,-4.1121,0.122316,0.482357,1.43323,0.104355,
2,1,0,1,0,18183.3,0.112164,0.111853,0.087053,10,0.00226788,10,9.73713e-06,-4.06022,0.19729,0.299052,1.01089,0.111853,
2,1,0,1,0,18190.8,0.119655,0.119345,0.0963545,10,0.00306243,10,1.14994e-05,-4.01613,0.178549,0.330441,1.24286,0.119345,
2,1,0,1,0,18198.3,0.127146,0.126828,0.104709,10,0.00392976,10,1.328e-05,-3.98002,0.249587,0.236391,0.971112,0.126828,
2,1,0,1,0,18205.8,0.134637,0.134304,0.106193,10,0.00484266,10,1.42621e-05,-3.97391,-0.238444,-0.247437,-1.02363,0.134304,
2,1,0,1,0,18213.3,0.142128,0.141821,0.0905591,10,0.00569784,10,1.28432e-05,-4.04307,-0.0730296,-0.807891,-2.84423,0.141821,
2,1,0,1,0,18220.8,0.149619,0.149283,0.0692679,10,0.00639683,10,1.03405e-05,-4.15947,-0.0791,-0.745891,-2.03019,0.1492832,
2,1,0,1,0,18228.3,0.15711,0.156791,0.0580651,10,0.00696744,10,9.10408e-06,-4.23608,-0.13893,-0.424675,-0.965259,0.1567909,
2,1,0,1,0,18235.8,0.164601,0.164321,0.0528402,10,0.00747731,10,8.68274e-06,-4.27704,-0.338174,-0.174466,-0.359494,0.164321,
2,1,0,1,0,18243.3,0.172091,0.171752,0.0509394,10,0.00795855,10,8.74895e-06,-4.29295,-1.38875,-0.0424841,-0.0847489,0.171752,
2,1,0,1,0,18250.8,0.179582,0.179261,0.0496892,10,0.00842849,10,8.90733e-06,-4.30374,-1.19704,-0.0492881,-0.0965596,0.179261,
2,1,0,1,0,18258.3,0.187073,0.186716,0.0501747,10,0.00889501,10,9.36839e-06,-4.29952,1.5888,0.0371349,0.0728171,0.186716,
2,1,0,1,0,18265.7,0.194564,0.194235,0.0503992,10,0.00936208,10,9.78928e-06,-4.29758,0.958799,0.0615353,0.120517,0.194235,
2,1,0,1,0,18273.2,0.202055,0.201754,0.0505285,10,0.00983066,10,1.01943e-05,-4.29646,312.241,0.000188956,0.000374303,0.201754,
2,1,0,1,0,18280.7,0.209546,0.209236,0.0514424,10,0.0103045,10,1.07636e-05,-4.28868,1.65749,0.035596,0.0717221,0.209236,
2,1,0,1,0,18288.2,0.217037,0.21673,0.0521474,10,0.0107821,10,1.13019e-05,-4.28277,0.505992,0.116603,0.239133,0.21673,
2,1,0,1,0,18295.7,0.224528,0.224246,0.0528288,10,0.0112648,10,1.18466e-05,-4.27713,2.61398,0.0225709,0.0466058,0.224246,
2,1,0,1,0,18303.2,0.232019,0.231697,0.0541384,10,0.0117541,10,1.25437e-05,-4.26649,0.612347,0.0963506,0.204723,0.2316969,
2,1,0,1,0,18310.7,0.23951,0.239246,0.0551963,10,0.012251,10,1.32055e-05,-4.25809,1.26243,0.0467353,0.10007,0.239246,
2,1,0,1,0,18318.2,0.247001,0.246642,0.0565981,10,0.0127548,10,1.39595e-05,-4.2472,0.835274,0.0706355,0.155391,0.246642,
2,1,0,1,0,18325.7,0.254492,0.254171,0.056733,10,0.0132672,10,1.44199e-05,-4.24616,1.33256,0.0442755,0.099041,0.254171,
2,1,0,1,0,18333.2,0.261983,0.261695,0.0583134,10,0.013785,10,1.52603e-05,-4.23423,0.619266,0.0952741,0.217562,0.261695,
2,1,0,1,0,18340.7,0.269474,0.269178,0.0588933,10,0.0143107,10,1.58528e-05,-4.22993,1.83651,0.0321261,0.0739639,0.269178,
2,1,0,1,0,18348.1,0.276965,0.276667,0.0601132,10,0.0148417,10,1.66313e-05,-4.22103,1.06672,0.0553095,0.130255,0.276667,
2,1,0,1,0,18355.6,0.284456,0.284185,0.0606319,10,0.0153793,10,1.72307e-05,-4.2173,5.39144,0.0109433,0.0258841,0.284185,
2,1,0,1,0,18363.1,0.291947,0.291619,0.0620712,10,0.0159218,10,1.81012e-05,-4.20711,0.431607,0.136698,0.329672,0.291619,
2,1,0,1,0,18370.6,0.299438,0.299136,0.0624034,10,0.0164707,10,1.86671e-05,-4.20479,-0.00512673,-11.5083,-18.9944,0.299136,
2,1,0,1,0,18377.5,0.293745,0.293419,0.0117838,10,0.0165653,10,3.45759e-06,-4.92872,0.0168201,3.50771,1.63189,0.293419,
2,1,0,1,0,18385,0.286254,0.285935,0.00366318,10,0.0165374,10,1.04743e-06,-5.43614,0.00705795,8.35937,0.924509,0.285935,
2,0,0,1,0,18392.4,0.278763,0.278441,-0.00245042,10,0.0164572,10,-6.82298e-07,-5.61076,-0.00708446,-8.32809,0.615573,0.278441,
2,1,0,1,0,18399.9,0.271272,0.270943,-0.00742163,10,0.0163381,10,-2.01084e-06,-5.1295,-0.0301619,-1.95611,0.542575,0.270943,
2,0,0,1,0,18407.4,0.263781,0.26346,-0.0106018,10,0.0161864,10,-2.79315e-06,-4.97462,-0.045244,-1.30404,0.549996,0.26346,
2,0,0,1,0,18414.9,0.25629,0.255955,-0.0148935,10,0.0160064,10,-3.81205e-06,-4.827,-0.0640548,-0.921087,0.516989,0.255955,
2,0,0,1,0,18422.4,0.248799,0.248477,-0.0177464,10,0.0157999,10,-4.40958e-06,-4.75089,-0.0960656,-0.614164,0.432899,0.2484768,
2,0,0,1,0,18429.9,0.241308,0.241013,-0.0207735,10,0.0155698,10,-5.00667e-06,-4.68249,-0.102232,-0.577119,0.467483,0.241013,
2,0,0,1,0,18437.4,0.233817,0.233488,-0.0238301,10,0.0153152,10,-5.56404e-06,-4.62287,-0.119687,-0.492952,0.45796,0.233488,
2,0,0,1,0,18444.9,0.226326,0.22602,-0.0265662,10,0.0150384,10,-6.00449e-06,-4.57567,-0.333323,-0.177006,0.183001,0.22602,
2,0,0,1,0,18452.4,0.218835,0.218521,-0.0292869,10,0.0147424,10,-6.39982e-06,-4.53333,-0.146607,-0.402437,0.463969,0.218521,
2,0,0,1,0,18459.9,0.211344,0.211054,-0.0324014,10,0.0144232,10,-6.83846e-06,-4.48944,-0.137799,-0.42816,0.538413,0.211054,
2,0,0,1,0,18467.4,0.203853,0.203545,-0.0351713,10,0.0140813,10,-7.15896e-06,-4.45381,-0.187531,-0.314615,0.431657,0.203545,
2,0,0,1,0,18474.8,0.196362,0.196068,-0.0379168,10,0.0137173,10,-7.43429e-06,-4.42117,-0.161786,-0.364679,0.541813,0.196068,
2,0,0,1,0,18482.3,0.188871,0.188512,-0.0409809,10,0.013328,10,-7.72539e-06,-4.38742,-0.169332,-0.348429,0.562569,0.188512,
2,0,0,1,0,18489.8,0.18138,0.181064,-0.044797,10,0.0129116,10,-8.11111e-06,-4.34875,-0.144251,-0.409009,0.71781,0.181064,
2,0,0,1,0,18497.3,0.173889,0.173567,-0.0493407,10,0.012464,10,-8.5639e-06,-4.30679,-0.165706,-0.356052,0.687558,0.173567,
2,0,0,1,0,18504.8,0.166398,0.166085,-0.0554436,10,0.0119751,10,-9.20836e-06,-4.25615,-0.139412,-0.423205,0.920602,0.166085,
2,0,0,1,0,18512.3,0.158907,0.158553,-0.0628304,10,0.0114329,10,-9.96196e-06,-4.20183,-0.115882,-0.509137,1.26444,0.158553,
2,0,0,1,0,18519.8,0.151417,0.151112,-0.0752187,10,0.0108128,10,-1.13665e-05,-4.12367,-0.0901725,-0.654301,1.94392,0.151112,
2,0,0,1,0,18527.3,0.143926,0.143626,-0.0947993,10,0.0100737,10,-1.36157e-05,-4.02319,-0.0649088,-0.908967,3.36752,0.143626,
2,0,0,1,0,18534.8,0.136435,0.136138,-0.121943,10,0.00915565,10,-1.66011e-05,-3.91384,-0.0753021,-0.783511,3.70249,0.136138,
2,0,0,1,0,18542.3,0.128944,0.128637,-0.142931,10,0.00804854,10,-1.83862e-05,-3.84487,-0.183931,-0.320772,1.77745,0.128637,
2,0,0,1,0,18549.8,0.121453,0.121152,-0.150517,10,0.00683139,10,-1.82353e-05,-3.82242,-1.59075,-0.0370894,0.217737,0.121152,
2,0,0,1,0,18557.2,0.113962,0.113623,-0.148107,10,0.00559818,10,-1.68284e-05,-3.82942,1.18168,0.0499291,-0.290041,0.113623,
2,0,0,1,0,18564.7,0.106471,0.106135,-0.146315,10,0.00438519,10,-1.55292e-05,-3.83471,0.734912,0.0802817,-0.457609,0.106135,
2,0,0,1,0,18572.2,0.0989798,0.0986381,-0.141235,10,0.0032022,10,-1.39312e-05,-3.85006,0.55904,0.105538,-0.579219,0.09863814,
2,0,0,1,0,18579.7,0.0914889,0.0911782,-0.135014,10,0.00206139,10,-1.23104e-05,-3.86962,0.334648,0.176305,-0.926613,0.0911782,
2,0,0,1,0,18587.2,0.083998,0.0836971,-0.128762,10,0.000966749,10,-1.0777e-05,-3.89021,0.305794,0.19294,-0.973051,0.0836971,
2,0,0,1,0,18594.7,0.076507,0.0761395,-0.124954,10,-9.03985e-05,10,-9.51396e-06,-3.90325,0.424615,0.138949,-0.676332,0.0761395,
2,0,0,1,0,18602.2,0.069016,0.0687103,-0.121338,10,-0.00111598,10,-8.33717e-06,-3.916,0.798829,0.0738581,-0.349536,0.06871026,
2,0,0,1,0,18609.7,0.0615251,0.0611952,-0.118175,10,-0.00211807,10,-7.23174e-06,-3.92747,0.69072,0.0854181,-0.394435,0.0611952,
2,0,0,1,0,18617.2,0.0540342,0.0537195,-0.116105,10,-0.00309885,10,-6.23709e-06,-3.93515,0.828058,0.071251,-0.321833,0.05371945,
2,0,0,1,0,18624.7,0.0465432,0.0462202,-0.112345,10,-0.00405957,10,-5.19261e-06,-3.94945,1.60524,0.0367546,-0.162195,0.0462202,
2,0,0,1,0,18632.2,0.0390522,0.0387263,-0.110342,10,-0.00499828,10,-4.27314e-06,-3.95726,0.477783,0.123487,-0.529859,0.0387263,
2,0,0,1,0,18639.6,0.0315613,0.0312462,-0.107337,10,-0.00591497,10,-3.35388e-06,-3.96925,0.71692,0.0822965,-0.345898,0.0312462,
2,0,0,1,0,18647.1,0.0240703,0.0237904,-0.105031,10,-0.00681178,10,-2.49873e-06,-3.97868,2.04615,0.0288347,-0.118382,0.0237904,
2,0,0,1,0,18654.6,0.0165794,0.0162987,-0.10451,10,-0.00769552,10,-1.70338e-06,-3.98084,1.97255,0.0299106,-0.121966,0.0162987,
2,0,0,1,0,18662.1,0.00908843,0.00876341,-0.104996,10,-0.00857919,10,-9.20123e-07,-3.97883,-2.11185,-0.0279375,0.115111,0.00876341,
2,0,0,1,0,18669.6,0.00159744,0.00123448,-0.108379,10,-0.00947651,10,-1.33791e-07,-3.96505, , , ,0.00123448,
2,0,0,1,0,18671,0.000199235,-0.000172587,-0.108672,10,-0.00964643,10,1.87554e-08,-3.96388, , , ,-0.000172587,