Folder: Figs_alphaMnO2_OER_Tafel_sleope/Figure_codes/Fig_3-5/rawdata_trumpetplot_data/after 10th (part 195)

File: 20221101_1-115_003_TrumpetPlot_ParaChange_from10_every3_13_CV_C01_6.csv
mode,ox/red,error,control changes,counter inc.,time/s,control/V,Ewe/V,<I>/mA,cycle number,(Q-Qo)/C,I Range,P/W,log(|I|),Tafel slope mV/dec,alpha_eff,dI/d(E-IR),E-IR/V,
2,1,0,1,0,13018.6,2.44065e-05,-0.000344411,23.0197,7,0.0000000E+000,10,-7.92824e-06,-1.6379, , , ,-0.000344411,
2,1,0,1,0,13018.7,0.0122624,0.0118481,27.188,7,0.000384033,10,0.000322127,-1.56562,0.242371,0.243428,256.513,0.0118481,
2,1,0,1,0,13018.7,0.0250636,0.0247172,29.9708,7,0.000842733,10,0.000740796,-1.5233,0.358571,0.164542,191.941,0.0247172,
2,1,0,1,0,13018.7,0.0378703,0.0375142,32.2122,7,0.00134095,10,0.00120841,-1.49198,0.449413,0.131283,164.861,0.0375142,
2,1,0,1,0,13018.7,0.0506632,0.0503388,34.2317,7,0.0018729,10,0.00172318,-1.46557,0.505302,0.116762,155.998,0.0503388,
2,1,0,1,0,13018.7,0.0634672,0.0631156,36.2842,7,0.00243713,10,0.0022901,-1.44028,0.510708,0.115526,163.57,0.0631156,
2,1,0,1,0,13018.7,0.0762629,0.0758659,38.4378,7,0.00303497,10,0.00291612,-1.41524,0.504824,0.116872,175.347,0.0758659,
2,1,0,1,0,13018.7,0.0890668,0.0886937,40.744,7,0.00366848,10,0.00361373,-1.38994,0.508283,0.116077,184.584,0.0886937,
2,1,0,1,0,13018.8,0.10186,0.10149,43.1613,7,0.00433982,10,0.00438042,-1.36491,0.510914,0.115479,194.564,0.1014896,
2,1,0,1,0,13018.8,0.114666,0.114286,45.6645,7,0.00505092,10,0.00521879,-1.34042,0.532628,0.110771,197.468,0.114286,
2,1,0,1,0,13018.8,0.127462,0.127104,48.3095,7,0.00580243,10,0.00614032,-1.31597,0.521787,0.113073,213.183,0.127104,
2,1,0,1,0,13018.8,0.140263,0.139934,51.1616,7,0.00659817,10,0.00715922,-1.29106,0.500137,0.117968,235.656,0.139934,
2,1,0,1,0,13018.8,0.153064,0.152696,54.3204,7,0.00744196,10,0.00829449,-1.26504,0.494528,0.119306,252.883,0.152696,
2,1,0,1,0,13018.8,0.165866,0.16549,57.5514,7,0.0083375,10,0.0095242,-1.23994,0.536997,0.10987,246.605,0.16549,
2,1,0,1,0,13018.9,0.178667,0.178303,60.4983,7,0.00928294,10,0.010787,-1.21826,0.673569,0.0875931,206.517,0.178303,
2,1,0,1,0,13018.9,0.191463,0.191116,62.7253,7,0.0102704,10,0.0119878,-1.20256,1.15367,0.0511412,124.815,0.191116,
2,1,0,1,0,13018.9,0.204269,0.20395,63.4487,7,0.0112826,10,0.0129404,-1.19758,-4.36349,-0.0135213,-33.3112,0.2039503,
2,1,0,1,0,13018.9,0.217062,0.216773,61.654,7,0.0122871,10,0.0133649,-1.21004,-0.562268,-0.104932,-250.979,0.216773,
2,1,0,1,0,13018.9,0.229866,0.22958,57.1068,7,0.01324,10,0.0131106,-1.24331,-0.302735,-0.19489,-432.579,0.22958,
2,1,0,1,0,13018.9,0.242662,0.242344,51.0178,7,0.0141054,10,0.0123639,-1.29228,-0.242554,-0.243245,-484.029,0.242344,
2,1,0,1,0,13019,0.255466,0.255155,45.0892,7,0.0148726,10,0.0115047,-1.34593,-0.245257,-0.240564,-424.133,0.255155,
2,1,0,1,0,13019,0.268259,0.267943,40.2394,7,0.0155532,10,0.0107818,-1.39535,-0.280822,-0.210097,-330.908,0.267943,
2,1,0,1,0,13019,0.281065,0.280783,36.5869,7,0.0161661,10,0.010273,-1.43667,-0.344489,-0.171268,-245.232,0.280783,
2,1,0,1,0,13019,0.293861,0.293561,33.873,7,0.0167286,10,0.0099438,-1.47015,-0.427474,-0.13802,-183.24,0.293561,
2,1,0,1,0,13019,0.298983,0.298826,30.3095,7,0.0170254,10,0.00905728,-1.51842,0.0283179,2.08349,2045.42,0.298826,
2,1,0,1,0,13019,0.286187,0.285983,10.9504,7,0.0173329,10,0.00313164,-1.96057,0.0230573,2.55884,1053.32,0.285983,
2,1,0,1,0,13019,0.273386,0.273134,0.794195,7,0.0174186,10,0.000216922,-3.10007,0.0439236,1.34324,612.231,0.273134,
2,0,0,1,0,13019.1,0.260585,0.260348,-5.40987,7,0.0173774,10,-0.00140845,-2.26681,-0.0279264,-2.1127,388.958,0.260348,
2,0,0,1,0,13019.1,0.247783,0.247496,-9.51747,7,0.0172555,10,-0.00235554,-2.02148,-0.0792125,-0.744832,269.263,0.247496,
2,0,0,1,0,13019.1,0.234982,0.234671,-12.4336,7,0.0170784,10,-0.00291781,-1.9054,-0.144369,-0.408676,196.172,0.234671,
2,0,0,1,0,13019.1,0.222187,0.221914,-14.6323,7,0.0168609,10,-0.0032471,-1.83469,-0.216801,-0.272139,154.646,0.221914,
2,0,0,1,0,13019.1,0.20938,0.209066,-16.4275,7,0.0166117,10,-0.00343443,-1.78443,-0.295438,-0.199703,127.664,0.209066,
2,0,0,1,0,13019.1,0.196587,0.19627,-17.9665,7,0.0163362,10,-0.00352628,-1.74554,-0.355867,-0.165792,116.122,0.1962698,
2,0,0,1,0,13019.2,0.183783,0.183446,-19.4183,7,0.0160368,10,-0.00356221,-1.71179,-0.391034,-0.150882,114.353,0.183446,
2,0,0,1,0,13019.2,0.170987,0.17066,-20.9024,7,0.0157141,10,-0.0035672,-1.6798,-0.392893,-0.150168,122.703,0.17066,
2,0,0,1,0,13019.2,0.158183,0.157895,-22.6446,7,0.0153659,10,-0.00357546,-1.64504,-0.341678,-0.172677,152.987,0.157895,
2,0,0,1,0,13019.2,0.145385,0.145109,-24.9227,7,0.0149861,10,-0.00361652,-1.60341,-0.27436,-0.215046,209.933,0.145109,
2,0,0,1,0,13019.2,0.132584,0.132293,-28.1237,7,0.0145628,10,-0.00372058,-1.55093,-0.219058,-0.269334,296.763,0.132293,
2,0,0,1,0,13019.2,0.119782,0.119508,-32.5255,7,0.0140788,10,-0.00388706,-1.48778,-0.192672,-0.306221,389.561,0.119508,
2,0,0,1,0,13019.3,0.106987,0.106742,-37.8932,7,0.0135154,10,-0.00404478,-1.42144,-0.200946,-0.293611,433.677,0.106742,
2,0,0,1,0,13019.3,0.0941801,0.0939618,-43.3773,7,0.0128641,10,-0.00407581,-1.36274,-0.241109,-0.244703,413.222,0.0939618,
2,0,0,1,0,13019.3,0.0813844,0.0811807,-48.4395,7,0.0121286,10,-0.00393235,-1.3148,-0.30167,-0.195578,368.55,0.0811807,
2,0,0,1,0,13019.3,0.0685832,0.068371,-52.6731,7,0.0113179,10,-0.00360131,-1.27841,-0.411994,-0.143206,293.612,0.06837099,
2,0,0,1,0,13019.3,0.0557876,0.0555422,-55.9363,7,0.0104472,10,-0.00310683,-1.25231,-0.624002,-0.094551,205.719,0.0555422,
2,0,0,1,0,13019.3,0.0429808,0.0426996,-57.9127,7,0.00953442,10,-0.00247285,-1.23723,-1.24804,-0.047274,106.578,0.0426996,
2,0,0,1,0,13019.4,0.030188,0.0298623,-58.7235,7,0.00859983,10,-0.00175362,-1.23119,-4.48825,-0.0131454,30.0866,0.0298623,
2,0,0,1,0,13019.4,0.017384,0.0170738,-58.8039,7,0.00765872,10,-0.00100401,-1.23059,10.3355,0.00570846,-13.0895,0.0170738,
2,0,0,1,0,13019.4,0.00458834,0.00428108,-58.4504,7,0.00672023,10,-0.000250231,-1.23321,3.5787,0.0164864,-37.5941,0.00428108,
2,0,0,1,0,13019.4,-0.00821564,-0.00858802,-57.7919,7,0.00578956,10,0.000496317,-1.23813,1.9004,0.0310461,-69.9592,-0.00858802,
2,0,0,1,0,13019.4,-0.0210196,-0.0213447,-56.6541,7,0.00487339,10,0.00120927,-1.24677,1.18417,0.0498239,-110.027,-0.02134471,
2,0,0,1,0,13019.4,-0.0338153,-0.0341565,-54.9872,7,0.00397966,10,0.00187817,-1.25974,0.869133,0.0678837,-145.565,-0.0341565,
2,0,0,1,0,13019.4,-0.0466193,-0.0470023,-53.0105,7,0.00311566,10,0.00249161,-1.27564,0.778213,0.0758148,-156.848,-0.0470023,
2,0,0,1,0,13019.5,-0.0594121,-0.0598343,-51.137,7,0.00228314,10,0.00305974,-1.29127,0.918851,0.0642107,-128.27,-0.0598343,
2,0,0,1,0,13019.5,-0.0722189,-0.0725592,-49.7445,7,0.00147691,10,0.00360942,-1.30325,1.32838,0.0444151,-86.3465,-0.0725592,
2,0,0,1,0,13019.5,-0.0850146,-0.0853774,-48.9119,7,0.000688376,10,0.00417597,-1.31059,2.69414,0.0218994,-41.876,-0.0853774,
2,0,0,1,0,13019.5,-0.0978158,-0.098185,-48.6512,7,-9.16128e-05,10,0.00477682,-1.31291,43.2372,0.00136457,-2.5942,-0.098185,
2,0,0,1,0,13019.5,-0.110611,-0.110994,-48.8465,7,-0.000871061,10,0.00542166,-1.31117,-3.59021,-0.0164336,31.3597,-0.110994,
2,0,0,1,0,13019.5,-0.123418,-0.123748,-49.4452,7,-0.001657,10,0.00611875,-1.30588,-1.86732,-0.0315961,61.0226,-0.123748,
2,0,0,1,0,13019.6,-0.136214,-0.136561,-50.3726,7,-0.00245533,10,0.00687894,-1.29781,-1.41749,-0.0416229,81.8752,-0.136561,
2,0,0,1,0,13019.6,-0.149015,-0.14937,-51.5245,7,-0.00327052,10,0.0076962,-1.28799,-1.22556,-0.0481412,96.8446,-0.14937,
2,0,0,1,0,13019.6,-0.161816,-0.162188,-52.8143,7,-0.00410536,10,0.00856584,-1.27725,-1.187,-0.0497051,102.457,-0.162188,
2,0,0,1,0,13019.6,-0.174615,-0.174895,-54.138,7,-0.00496114,10,0.00946846,-1.2665,-1.21121,-0.0487118,102.904,-0.174895,
2,0,0,1,0,13019.6,-0.187419,-0.187701,-55.4558,7,-0.00583801,10,0.0104091,-1.25605,-1.24031,-0.0475686,102.934,-0.187701,
2,0,0,1,0,13019.6,-0.199647,-0.199964,-56.6875,7,-0.00669626,10,0.0113355,-1.24651,0.310744,0.189867,-407.636,-0.1999644,
2,0,0,1,1,13019.6,-0.192535,-0.192983,-42.1601,7,-0.00719253,10,0.0081362,-1.3751,-0.0617619,-0.955282,1597.51,-0.192983,
2,0,0,1,1,13019.7,-0.179739,-0.180157,-26.1678,7,-0.0077294,10,0.0047143,-1.58223,-0.0572621,-1.03035,1049.03,-0.180157,
2,0,0,1,1,13019.7,-0.166932,-0.167318,-14.4467,7,-0.00804913,10,0.00241719,-1.84023,-0.0400275,-1.47399,810.822,-0.167318,
2,0,0,1,1,13019.7,-0.154139,-0.154538,-5.09528,7,-0.00820205,10,0.000787416,-2.29283,-0.0133251,-4.42774,665.903,-0.154538,
2,1,0,1,1,13019.7,-0.141335,-0.141781,2.66074,7,-0.00821898,10,-0.000377243,-2.575,0.0168635,3.49869,557.633,-0.141781,
2,1,0,1,1,13019.7,-0.12854,-0.128996,9.25183,7,-0.00812157,10,-0.00119345,-2.03377,0.042239,1.39681,480.325,-0.128996,
2,1,0,1,1,13019.7,-0.115736,-0.11618,15.0113,7,-0.00792573,10,-0.00174402,-1.82358,0.0809999,0.728396,419.793,-0.11618,
2,1,0,1,1,13019.8,-0.102932,-0.103329,20.0463,7,-0.00764381,10,-0.00207137,-1.69797,0.125371,0.470602,364.927,-0.103329,
2,1,0,1,1,13019.8,-0.0901362,-0.0905235,24.4167,7,-0.00728691,10,-0.00221029,-1.61231,0.174857,0.337418,319.835,-0.0905235,
2,1,0,1,1,13019.8,-0.0773322,-0.0777032,28.2638,7,-0.00686448,10,-0.00219619,-1.54877,0.230796,0.255637,280.888,-0.0777032,
2,1,0,1,1,13019.8,-0.0645393,-0.0649433,31.6098,7,-0.00638453,10,-0.00205285,-1.50018,0.296043,0.199295,245.265,-0.0649433,
2,1,0,1,1,13019.8,-0.0517325,-0.0521453,34.5259,7,-0.00585446,10,-0.00180036,-1.46186,0.374544,0.157525,211.868,-0.0521453,
2,1,0,1,1,13019.8,-0.0389369,-0.0393419,37.0149,7,-0.00528121,10,-0.00145624,-1.43162,0.4813,0.122585,176.823,-0.0393419,
2,1,0,1,1,13019.9,-0.0261357,-0.0264824,39.105,7,-0.00467144,10,-0.00103559,-1.40777,0.613299,0.0962011,146.58,-0.0264824,
2,1,0,1,1,13019.9,-0.01334,-0.0137204,40.7749,7,-0.0040317,10,-0.000559448,-1.38961,0.80751,0.0730641,116.128,-0.0137204,
2,1,0,1,1,13019.9,-0.000774628,-0.00118743,42.0589,7,-0.0033808,10,-4.99421e-05,-1.37614, , , ,-0.00118743,
2,1,0,0,1,13019.9,-0.000125413,-0.000554371,42.1229,7,-0.00334713,10,-2.33518e-05,-1.37548, , , ,-0.000554371,

File: 20221101_1-115_003_TrumpetPlot_ParaChange_from10_every3_13_CV_C01_7.csv
mode,ox/red,error,control changes,counter inc.,time/s,control/V,Ewe/V,<I>/mA,cycle number,(Q-Qo)/C,I Range,P/W,log(|I|),Tafel slope mV/dec,alpha_eff,dI/d(E-IR),E-IR/V,
2,1,0,1,0,14988.8,2.44065e-05,-0.000306236,24.4031,8,0.0000000E+000,10,-7.47311e-06,-1.61256, , , ,-0.000306236,
2,1,0,1,0,14988.8,0.0122624,0.0119054,28.7566,8,0.000407046,10,0.000342359,-1.54126,0.252764,0.233419,260.195,0.0119054,
2,1,0,1,0,14988.8,0.0250636,0.0246833,31.5377,8,0.000890944,10,0.000778456,-1.50117,0.379192,0.155594,191.05,0.0246833,
2,1,0,1,0,14988.8,0.0378703,0.0374813,33.7535,8,0.00141403,10,0.00126513,-1.47168,0.481837,0.122448,161.139,0.0374813,
2,1,0,1,0,14988.8,0.0506632,0.050308,35.7687,8,0.00197051,10,0.00179945,-1.4465,0.523576,0.112687,157.279,0.050308,
2,1,0,1,0,14988.8,0.0634672,0.0631517,37.8329,8,0.00255932,10,0.00238921,-1.42213,0.52539,0.112298,165.775,0.0631517,
2,1,0,1,0,14988.9,0.0762629,0.0758744,40.0182,8,0.0031821,10,0.00303636,-1.39774,0.515715,0.114404,178.689,0.0758744,
2,1,0,1,0,14988.9,0.0890668,0.0886788,42.3599,8,0.00384125,10,0.00375643,-1.37304,0.514067,0.114771,189.819,0.0886788,
2,1,0,1,0,14988.9,0.10186,0.101444,44.8607,8,0.00453923,10,0.00455085,-1.34813,0.525543,0.112265,196.525,0.101444,
2,1,0,1,0,14988.9,0.114666,0.114247,47.3923,8,0.00527753,10,0.00541445,-1.32429,0.522715,0.112872,209.033,0.114247,
2,1,0,1,0,14988.9,0.127462,0.127116,50.1985,8,0.00605853,10,0.00638106,-1.29931,0.519572,0.113555,222.544,0.127116,
2,1,0,1,0,14988.9,0.140263,0.139919,53.2107,8,0.00688572,10,0.00744517,-1.274,0.490573,0.120268,249.898,0.139919,
2,1,0,1,0,14989,0.153064,0.152754,56.527,8,0.00776374,10,0.00863472,-1.24774,0.50014,0.117967,260.136,0.1527539,
2,1,0,1,0,14989,0.165866,0.165516,59.7742,8,0.00869488,10,0.00989358,-1.22349,0.571384,0.103258,240.617,0.165516,
2,1,0,1,0,14989,0.178667,0.178306,62.5576,8,0.00967483,10,0.0111544,-1.20372,0.789458,0.0747349,182.061,0.178306,
2,1,0,1,0,14989,0.191463,0.191152,64.2615,8,0.0106916,10,0.0122837,-1.19205,2.30538,0.0255923,63.9254,0.191152,
2,1,0,1,0,14989,0.204269,0.203947,63.9212,8,0.0117205,10,0.0130366,-1.19435,-1.09282,-0.053989,-133.903,0.203947,
2,1,0,1,0,14989,0.217062,0.21677,60.7336,8,0.0127213,10,0.0131652,-1.21657,-0.393025,-0.150118,-353.845,0.21677,
2,1,0,1,0,14989.1,0.229866,0.229529,55.1207,8,0.0136501,10,0.0126518,-1.25869,-0.257537,-0.229093,-491.279,0.229529,
2,1,0,1,0,14989.1,0.242662,0.242399,48.5766,8,0.0144792,10,0.0117749,-1.31357,-0.224042,-0.263343,-499.466,0.242399,
2,1,0,1,0,14989.1,0.255466,0.255172,42.6668,8,0.015207,10,0.0108874,-1.36991,-0.23836,-0.247525,-413.17,0.255172,
2,1,0,1,0,14989.1,0.268259,0.267938,38.0258,8,0.0158503,10,0.0101886,-1.41992,-0.280203,-0.210562,-313.484,0.267938,
2,1,0,1,0,14989.1,0.281065,0.280747,34.6288,8,0.0164299,10,0.00972192,-1.46056,-0.357451,-0.165058,-223.752,0.280747,
2,1,0,1,0,14989.1,0.293861,0.293567,32.1749,8,0.0169632,10,0.0094455,-1.49248,-0.449779,-0.131176,-165.382,0.293567,
2,1,0,1,0,14989.1,0.298983,0.298811,28.5085,8,0.0172451,10,0.00851866,-1.54503,0.0245168,2.40651,2162.5,0.298811,
2,1,0,1,0,14989.2,0.286187,0.285955,8.44965,8,0.0175156,10,0.00241622,-2.07316,0.0165464,3.56573,1060.24,0.285955,
2,0,0,1,0,14989.2,0.273386,0.273088,-1.57181,8,0.0175622,10,-0.000429241,-2.8036,-0.0511054,-1.15448,593.732,0.273088,
2,0,0,1,0,14989.2,0.260585,0.260276,-7.50574,8,0.0174853,10,-0.00195356,-2.12461,-0.0433766,-1.36018,371.043,0.260276,
2,0,0,1,0,14989.2,0.247783,0.247468,-11.3387,8,0.017332,10,-0.00280598,-1.94543,-0.103787,-0.568473,247.04,0.247468,
2,0,0,1,0,14989.2,0.234982,0.234672,-14.0235,8,0.0171276,10,-0.00329092,-1.85314,-0.17951,-0.328673,178.423,0.234672,
2,0,0,1,0,14989.2,0.222187,0.221901,-16.0368,8,0.0168862,10,-0.00355859,-1.79488,-0.261944,-0.225239,140.314,0.221901,
2,0,0,1,0,14989.3,0.20938,0.209096,-17.6671,8,0.0166161,10,-0.00369413,-1.75283,-0.343047,-0.171988,118.296,0.209096,
2,0,0,1,0,14989.3,0.196587,0.196281,-19.0887,8,0.0163216,10,-0.00374676,-1.71922,-0.40657,-0.145117,108.041,0.196281,
2,0,0,1,0,14989.3,0.183783,0.183457,-20.4521,8,0.016005,10,-0.00375207,-1.68926,-0.435924,-0.135345,108.081,0.1834569,
2,0,0,1,0,14989.3,0.170987,0.170663,-21.8854,8,0.0156663,10,-0.00373503,-1.65985,-0.414726,-0.142263,121.768,0.170663,
2,0,0,1,0,14989.3,0.158183,0.15789,-23.6569,8,0.0153023,10,-0.0037352,-1.62604,-0.345467,-0.170783,158.071,0.1578905,
2,0,0,1,0,14989.3,0.145385,0.14506,-26.0401,8,0.0149056,10,-0.00377737,-1.58436,-0.267961,-0.220182,224.692,0.14506,
2,0,0,1,0,14989.4,0.132584,0.132324,-29.4797,8,0.0144625,10,-0.00390087,-1.53048,-0.212468,-0.277689,320.882,0.132324,
2,0,0,1,0,14989.4,0.119783,0.119536,-34.2661,8,0.0139538,10,-0.00409602,-1.46513,-0.189313,-0.311653,417.368,0.1195356,
2,0,0,1,0,14989.4,0.106987,0.106731,-39.9673,8,0.0133599,10,-0.00426575,-1.3983,-0.20188,-0.292252,455.108,0.1067312,
2,0,0,1,0,14989.4,0.0941801,0.0939671,-45.6557,8,0.0126738,10,-0.00429013,-1.34051,-0.244719,-0.241093,428.661,0.09396708,
2,0,0,1,0,14989.4,0.0813844,0.0811584,-50.8335,8,0.0119001,10,-0.00412556,-1.29385,-0.319964,-0.184396,364.516,0.0811584,
2,0,0,1,0,14989.4,0.0685832,0.0683466,-54.9768,8,0.0110518,10,-0.00375748,-1.25982,-0.443204,-0.133121,284.851,0.0683466,
2,0,0,1,0,14989.4,0.0557876,0.0555104,-57.9517,8,0.0101459,10,-0.00321692,-1.23693,-0.76353,-0.0772727,174.253,0.0555104,
2,0,0,1,0,14989.5,0.0429808,0.0426561,-59.5286,8,0.00920406,10,-0.00253926,-1.22527,-1.83689,-0.0321196,74.4446,0.0426561,
2,0,0,1,0,14989.5,0.030188,0.0298878,-59.9678,8,0.00824681,10,-0.0017923,-1.22208,-36.1204,-0.00163342,3.81787,0.0298878,
2,0,0,1,0,14989.5,0.017384,0.0170547,-59.7331,8,0.00728843,10,-0.00101873,-1.22379,3.8716,0.0152392,-35.4984,0.0170547,
2,0,0,1,0,14989.5,0.00458834,0.00428532,-59.0737,8,0.00633741,10,-0.00025315,-1.22861,2.19072,0.0269318,-62.0778,0.00428532,
2,0,0,1,0,14989.5,-0.00821564,-0.00859014,-58.0798,8,0.00539922,10,0.000498913,-1.23597,1.34759,0.0437818,-99.1514,-0.00859014,
2,0,0,1,0,14989.5,-0.0210196,-0.0213596,-56.5694,8,0.00448143,10,0.0012083,-1.24742,0.936282,0.0630152,-138.952,-0.0213596,
2,0,0,1,0,14989.6,-0.0338153,-0.0341958,-54.5799,8,0.0035919,10,0.0018664,-1.26297,0.760758,0.0775542,-165.111,-0.0341958,
2,0,0,1,0,14989.6,-0.0466193,-0.046979,-52.458,8,0.002736,10,0.00246443,-1.28019,0.754716,0.0781751,-160.092,-0.046979,
2,0,0,1,0,14989.6,-0.0594121,-0.0597601,-50.6023,8,0.00191235,10,0.003024,-1.29583,0.961298,0.0613753,-121.379,-0.0597601,
2,0,0,1,0,14989.6,-0.0722189,-0.0726101,-49.3437,8,0.00111362,10,0.00358285,-1.30677,1.52389,0.0387166,-74.6744,-0.0726101,
2,0,0,1,0,14989.6,-0.0850146,-0.0853784,-48.6817,8,0.000330116,10,0.00415637,-1.31263,3.93196,0.0150052,-28.5559,-0.0853784,
2,0,0,1,0,14989.6,-0.0978158,-0.0981924,-48.5997,8,-0.000447565,10,0.00477212,-1.31337,-9.42902,-0.00625728,11.882,-0.0981924,
2,0,0,1,0,14989.7,-0.110611,-0.110946,-48.973,8,-0.00122761,10,0.00543335,-1.31004,-2.50022,-0.0235979,45.1461,-0.110946,
2,0,0,1,0,14989.7,-0.123418,-0.123787,-49.7455,8,-0.00201702,10,0.00615786,-1.30325,-1.53817,-0.0383572,74.5266,-0.123787,
2,0,0,1,0,14989.7,-0.136214,-0.136519,-50.8083,8,-0.00282135,10,0.00693629,-1.29406,-1.26312,-0.0467096,92.7012,-0.136519,
2,0,0,1,0,14989.7,-0.149015,-0.14936,-52.089,8,-0.00364474,10,0.00778002,-1.28325,-1.16548,-0.0506228,102.941,-0.14936,
2,0,0,1,0,14989.7,-0.161816,-0.162163,-53.46,8,-0.00448925,10,0.00866921,-1.27197,-1.16021,-0.0508529,106.061,-0.162163,
2,0,0,1,0,14989.7,-0.174615,-0.174955,-54.8183,8,-0.00535556,10,0.00959076,-1.26107,-1.18763,-0.0496787,106.245,-0.174955,
2,0,0,1,0,14989.8,-0.187419,-0.187729,-56.1502,8,-0.00624349,10,0.010541,-1.25065,-1.24596,-0.047353,103.758,-0.187729,
2,0,0,1,0,14989.8,-0.199647,-0.199964,-57.3795,8,-0.0071124,10,0.0114739,-1.24124,0.270735,0.217925,-472.442,-0.1999644,
2,0,0,1,1,14989.8,-0.192535,-0.192973,-41.582,8,-0.00760825,10,0.00802419,-1.38109,-0.0574872,-1.02632,1697.93,-0.192973,
2,0,0,1,1,14989.8,-0.179739,-0.180151,-24.8545,8,-0.00812894,10,0.00447758,-1.60459,-0.0525582,-1.12256,1084.69,-0.180151,
2,0,0,1,1,14989.8,-0.166932,-0.16733,-12.8317,8,-0.00842503,10,0.00214713,-1.89171,-0.0343621,-1.71701,830.654,-0.16733,
2,0,0,1,1,14989.8,-0.154139,-0.15457,-3.34567,8,-0.0085509,10,0.00051714,-2.47552,-0.0124925,-4.72284,672.993,-0.15457,
2,1,0,1,1,14989.8,-0.141335,-0.141801,4.49431,8,-0.00853899,10,-0.000637296,-2.34734,0.0124258,4.74819,565.286,-0.1418006,
2,1,0,1,1,14989.9,-0.12854,-0.129005,11.1604,8,-0.00841164,10,-0.00143975,-1.95232,0.0513074,1.14993,483.618,-0.129005,
2,1,0,1,1,14989.9,-0.115736,-0.1162,16.9745,8,-0.00818479,10,-0.00197244,-1.7702,0.0915843,0.644215,420.805,-0.1162,
2,1,0,1,1,14989.9,-0.102932,-0.103348,22.0295,8,-0.00787137,10,-0.00227671,-1.65699,0.136834,0.431178,367.724,-0.103348,
2,1,0,1,1,14989.9,-0.0901362,-0.0905299,26.4235,8,-0.00748266,10,-0.00239212,-1.57801,0.188158,0.313566,321.78,-0.0905299,
2,1,0,1,1,14989.9,-0.0773322,-0.077734,30.2752,8,-0.00702798,10,-0.00235341,-1.51891,0.246731,0.239127,281.656,-0.077734,
2,1,0,1,1,14989.9,-0.0645393,-0.0649497,33.6392,8,-0.00651559,10,-0.00218485,-1.47315,0.313738,0.188055,246.34,-0.0649497,
2,1,0,1,1,14990,-0.0517325,-0.0521315,36.5543,8,-0.00595301,10,-0.00190563,-1.43706,0.400341,0.147374,209.868,-0.0521315,
2,1,0,1,1,14990,-0.0389369,-0.0393218,39.0348,8,-0.00534743,10,-0.00153492,-1.40855,0.509198,0.115868,176.206,-0.0393218,
2,1,0,1,1,14990,-0.0261357,-0.0265396,41.0839,8,-0.00470575,10,-0.00109035,-1.38633,0.65781,0.0896915,143.582,-0.0265396,
2,1,0,1,1,14990,-0.01334,-0.0137374,42.6893,8,-0.00403477,10,-0.000586437,-1.36968,0.885555,0.0666249,110.904,-0.0137374,
2,1,0,1,1,14990,-0.000774628,-0.0011938,43.9119,8,-0.00335421,10,-5.24219e-05,-1.35742, , , ,-0.001193797,
2,1,0,0,1,14990,-0.000125413,-0.000554371,43.9598,8,-0.00331906,10,-2.43701e-05,-1.35694, , , ,-0.000554371,