Folder: Figs_alphaMnO2_OER_Tafel_sleope/Figure_codes/Fig_3-5/rawdata_trumpetplot_data/after 10th (part 69)

File: 20221101_1-115_003_TrumpetPlot_ParaChange_from10_every3_05_CV_C01_33.csv
mode,ox/red,error,control changes,counter inc.,time/s,control/V,Ewe/V,<I>/mA,cycle number,(Q-Qo)/C,I Range,P/W,log(|I|),Tafel slope mV/dec,alpha_eff,dI/d(E-IR),E-IR/V,
2,0,0,1,0,66134.3,2.44065e-05,-0.00042076,-0.736062,34,0.0000000E+000,10,3.09706e-07,-3.13309, , , ,-0.00042076,
2,1,0,1,0,66134.7,0.00729063,0.00692566,0.630489,34,0.000110868,10,4.36656e-06,-3.20032,0.0361119,1.63381,38.9531,0.00692566,
2,1,0,1,0,66135.1,0.0147802,0.0144472,0.796286,34,0.000388597,10,1.15041e-05,-3.09893,0.112732,0.523365,16.2812,0.0144472,
2,1,0,1,0,66135.4,0.0222725,0.0219666,0.897965,34,0.000712731,10,1.97253e-05,-3.04674,0.177586,0.332234,11.6299,0.0219666,
2,1,0,1,0,66135.8,0.0297644,0.0294742,0.986276,34,0.00107072,10,2.90697e-05,-3.006,0.203877,0.289391,11.102,0.0294742,
2,1,0,1,0,66136.2,0.0372544,0.0369172,1.06993,34,0.00146118,10,3.94987e-05,-2.97065,0.22268,0.264954,11.0705,0.0369172,
2,1,0,1,0,66136.6,0.0447449,0.04442,1.15779,34,0.00188406,10,5.1429e-05,-2.93637,0.236881,0.24907,11.246,0.04442003,
2,1,0,1,0,66136.9,0.0522363,0.0519251,1.23771,34,0.00233877,10,6.4268e-05,-2.90738,0.237638,0.248277,12.0235,0.0519251,
2,1,0,1,0,66137.3,0.0597291,0.0594034,1.31758,34,0.00282349,10,7.8269e-05,-2.88022,0.311399,0.189468,9.72746,0.0594034,
2,1,0,1,0,66137.7,0.0672182,0.0668865,1.38558,34,0.00333467,10,9.26763e-05,-2.85837,0.360405,0.163705,8.82804,0.0668865,
2,1,0,1,0,66138.1,0.0747092,0.0743612,1.44131,34,0.00386923,10,0.000107178,-2.84124,0.483422,0.122047,6.85243,0.0743612,
2,1,0,1,0,66138.4,0.0822001,0.0818847,1.48508,34,0.00442328,10,0.000121605,-2.82825,0.620343,0.0951087,5.52542,0.0818847,
2,1,0,1,0,66138.8,0.0896911,0.0894021,1.53805,34,0.00499511,10,0.000137505,-2.81303,0.436933,0.135032,8.1205,0.0894021,
2,1,0,1,0,66139.2,0.097182,0.096876,1.61646,34,0.00559105,10,0.000156596,-2.79143,0.251674,0.234431,14.8168,0.096876,
2,1,0,1,0,66139.6,0.104673,0.104321,1.7514,34,0.00622561,10,0.000182707,-2.75662,0.201373,0.292988,19.9897,0.104321,
2,1,0,1,0,66139.9,0.112164,0.111817,1.89324,34,0.00691311,10,0.000211696,-2.7228,0.23854,0.247338,18.2409,0.111817,
2,1,0,1,0,66140.3,0.119655,0.119365,2.00751,34,0.00765031,10,0.000239626,-2.69734,0.44852,0.131544,10.2782,0.119365,
2,1,0,1,0,66140.7,0.127146,0.126788,2.05908,34,0.0084188,10,0.000261066,-2.68633,0.86391,0.0682941,5.49296,0.1267876,
2,1,0,1,0,66141.1,0.134637,0.134348,2.08254,34,0.00920193,10,0.000279784,-2.68141,-1.96481,-0.0300284,-2.43812,0.134348,
2,1,0,1,0,66141.4,0.142128,0.141808,1.9963,34,0.00997651,10,0.000283092,-2.69977,-0.203261,-0.290267,-22.5259,0.141808,
2,1,0,1,0,66141.8,0.149619,0.149273,1.72703,34,0.0106842,10,0.000257798,-2.7627,-0.0890779,-0.662342,-44.5201,0.149273,
2,1,0,1,0,66142.2,0.157108,0.156813,1.40669,34,0.0112736,10,0.000220587,-2.8518,-0.0862677,-0.683917,-37.5732,0.156813,
2,1,0,1,0,66142.5,0.164601,0.16429,1.19286,34,0.0117618,10,0.000195974,-2.92341,-0.131955,-0.447122,-20.8748,0.16429,
2,1,0,1,0,66142.9,0.172092,0.171779,1.07757,34,0.0121906,10,0.000185104,-2.96755,-0.235408,-0.250628,-10.5714,0.171779,
2,1,0,1,0,66143.3,0.179582,0.179255,1.01911,34,0.0125878,10,0.000182681,-2.99178,-0.392881,-0.150173,-5.99261,0.179255,
2,1,0,1,0,66143.7,0.187073,0.186752,0.986553,34,0.0129681,10,0.000184241,-3.00588,-0.753461,-0.0783053,-3.01247,0.186752,
2,1,0,1,0,66144,0.194564,0.194204,0.966949,34,0.0133387,10,0.000187785,-3.0146,-0.841242,-0.0701344,-2.6418,0.194204,
2,1,0,1,0,66144.4,0.202057,0.201733,0.951687,34,0.0137028,10,0.000191987,-3.02151,-1.03696,-0.0568973,-2.10525,0.201733,
2,1,0,1,0,66144.8,0.209546,0.209282,0.941199,34,0.0140623,10,0.000196976,-3.02632,-1.05442,-0.0559552,-2.0579,0.209282,
2,1,0,1,0,66145.2,0.217037,0.216716,0.931568,34,0.0144183,10,0.000201885,-3.03079,-1.71724,-0.0343575,-1.25016,0.216716,
2,1,0,1,0,66145.5,0.224528,0.224251,0.92626,34,0.0147717,10,0.000207715,-3.03327,-2.4919,-0.0236767,-0.856687,0.224251,
2,1,0,1,0,66145.9,0.232019,0.231719,0.921456,34,0.0151227,10,0.000213519,-3.03553,9.53244,0.00618939,0.222503,0.231719,
2,1,0,1,0,66146.3,0.23951,0.239213,0.916765,34,0.015472,10,0.000219302,-3.03774,-2.0057,-0.0294162,-1.05233,0.239213,
2,1,0,1,0,66146.7,0.247001,0.24668,0.911014,34,0.0158193,10,0.000224729,-3.04047,-2.3339,-0.0252796,-0.897783,0.24668,
2,1,0,1,0,66147,0.254492,0.254186,0.906071,34,0.0161649,10,0.000230311,-3.04284,-1.92261,-0.0306874,-1.08513,0.254186,
2,1,0,1,0,66147.4,0.261983,0.261704,0.900796,34,0.0165085,10,0.000235742,-3.04537,-2.05657,-0.0286885,-1.01001,0.261704,
2,1,0,1,0,66147.8,0.269474,0.269198,0.893888,34,0.0168502,10,0.000240633,-3.04872,-15.5883,-0.00378489,-0.132265,0.269198,
2,1,0,1,0,66148.2,0.276965,0.276637,0.8889,34,0.0171897,10,0.000245903,-3.05115,-1.96627,-0.0300061,-1.04109,0.276637,
2,1,0,1,0,66148.5,0.284456,0.284169,0.883627,34,0.0175266,10,0.0002511,-3.05373,-1.7852,-0.0330496,-1.13889,0.2841692,
2,1,0,1,0,66148.9,0.291947,0.291637,0.877947,34,0.0178608,10,0.000256042,-3.05653,-1.62526,-0.0363019,-1.23957,0.291637,
2,1,0,1,0,66149.3,0.299436,0.299132,0.866769,34,0.0181923,10,0.000259278,-3.0621,-0.00470352,-12.5438,-285.189,0.299132,
2,0,0,1,0,66149.6,0.293745,0.293449,-0.161957,34,0.0182315,10,-4.75261e-05,-3.7906,-0.0118091,-4.99613,27.4918,0.293449,
2,0,0,1,0,66150,0.286254,0.28592,-0.280036,34,0.0181405,10,-8.00677e-05,-3.55279,-0.0603004,-0.978434,10.6308,0.28592,
2,0,0,1,0,66150.4,0.278763,0.278467,-0.344904,34,0.0180172,10,-9.60445e-05,-3.4623,-0.104653,-0.563765,7.61036,0.278467,
2,0,0,1,0,66150.8,0.271272,0.270902,-0.397052,34,0.0178727,10,-0.000107562,-3.40115,-0.145779,-0.404721,6.2387,0.270902,
2,0,0,1,0,66151.1,0.263781,0.263492,-0.437121,34,0.0177115,10,-0.000115178,-3.3594,-0.200646,-0.294051,5.0067,0.263492,
2,0,0,1,0,66151.5,0.25629,0.25597,-0.474076,34,0.017536,10,-0.000121349,-3.32415,-0.25259,-0.23358,4.29571,0.25597,
2,0,0,1,0,66151.9,0.248799,0.248479,-0.50467,34,0.0173479,10,-0.0001254,-3.29699,-0.319048,-0.184925,3.63759,0.248479,
2,0,0,1,0,66152.3,0.241308,0.240971,-0.532952,34,0.0171484,10,-0.000128426,-3.27331,-0.310342,-0.190113,3.96663,0.2409713,
2,0,0,1,0,66152.6,0.233817,0.233476,-0.558459,34,0.0169384,10,-0.000130387,-3.25301,-0.33622,-0.17548,3.83393,0.233476,
2,0,0,1,0,66153,0.226326,0.22601,-0.585741,34,0.0167183,10,-0.000132384,-3.23229,-0.404137,-0.14599,3.33903,0.22601,
2,0,0,1,0,66153.4,0.218835,0.218521,-0.612931,34,0.0164883,10,-0.000133938,-3.21259,-0.403612,-0.14618,3.49357,0.218521,
2,0,0,1,0,66153.8,0.211344,0.211043,-0.636591,34,0.0162491,10,-0.000134348,-3.19614,-0.524473,-0.112494,2.79569,0.211043,
2,0,0,1,0,66154.1,0.203855,0.203508,-0.660497,34,0.0160005,10,-0.000134417,-3.18013,-0.493801,-0.119481,3.08967,0.203508,
2,0,0,1,0,66154.5,0.196362,0.196026,-0.6868,34,0.0157425,10,-0.000134631,-3.16317,-0.417266,-0.141397,3.78781,0.196026,
2,0,0,1,0,66154.9,0.188871,0.188524,-0.715012,34,0.0154742,10,-0.000134797,-3.14569,-0.325312,-0.181364,5.06305,0.188524,
2,0,0,1,0,66155.3,0.18138,0.181052,-0.746312,34,0.0151949,10,-0.000135121,-3.12708,-0.344277,-0.171374,4.99632,0.181052,
2,0,0,1,0,66155.6,0.173891,0.173581,-0.781659,34,0.0149036,10,-0.000135681,-3.10698,-0.322088,-0.18318,5.58543,0.173581,
2,0,0,1,0,66156,0.166398,0.166064,-0.825691,34,0.0145976,10,-0.000137117,-3.08318,-0.306383,-0.19257,6.20502,0.166064,
2,0,0,1,0,66156.4,0.158906,0.158635,-0.88048,34,0.014273,10,-0.000139675,-3.05528,-0.226176,-0.260858,8.99414,0.158635,
2,0,0,1,0,66156.7,0.151417,0.151086,-0.966413,34,0.0139225,10,-0.000146012,-3.01484,-0.162996,-0.361973,13.6737,0.151086,
2,0,0,1,0,66157.1,0.143926,0.143627,-1.10908,34,0.0135303,10,-0.000159293,-2.95504,-0.100435,-0.587444,25.467,0.143627,
2,0,0,1,0,66157.5,0.136435,0.136109,-1.33265,34,0.0130695,10,-0.000181385,-2.87528,-0.0917849,-0.642807,33.4124,0.136109,
2,0,0,1,0,66157.9,0.128942,0.128619,-1.59977,34,0.0125152,10,-0.000205761,-2.79594,-0.102691,-0.574541,35.7132,0.128619,
2,0,0,1,0,66158.2,0.121453,0.121172,-1.84339,34,0.0118636,10,-0.000223367,-2.73438,-0.147006,-0.401345,28.7913,0.1211717,
2,0,0,1,0,66158.6,0.113962,0.113655,-2.01692,34,0.0111318,10,-0.000229232,-2.69531,-0.291697,-0.202265,15.9147,0.113655,
2,0,0,1,0,66159,0.106471,0.106138,-2.08803,34,0.0103531,10,-0.00022162,-2.68026,-1.4524,-0.0406224,3.31314,0.1061382,
2,0,0,1,0,66159.4,0.0989799,0.0986466,-2.07456,34,0.00956553,10,-0.000204648,-2.68307,1.01984,0.0578524,-4.67615,0.0986466,
2,0,0,1,0,66159.7,0.0914889,0.0911593,-2.02271,34,0.00879265,10,-0.000184389,-2.69407,0.783629,0.0752908,-5.93987,0.0911593,
2,0,0,1,0,66160.1,0.083998,0.0836708,-1.97228,34,0.00803931,10,-0.000165022,-2.70503,0.645975,0.0913348,-7.03132,0.0836708,
2,0,0,1,0,66160.5,0.076507,0.0762192,-1.93108,34,0.00730261,10,-0.000147185,-2.7142,0.728486,0.0809898,-6.09293,0.0762192,
2,0,0,1,0,66160.9,0.0690161,0.0687062,-1.88213,34,0.00658247,10,-0.000129314,-2.72535,0.596577,0.0988976,-7.27726,0.0687062,
2,0,0,1,0,66161.2,0.0615251,0.0611773,-1.83436,34,0.00587984,10,-0.000112221,-2.73651,0.647001,0.0911899,-6.54145,0.0611773,
2,0,0,1,0,66161.6,0.0540342,0.0536789,-1.78202,34,0.00519644,10,-9.56569e-05,-2.74909,0.629602,0.09371,-6.51468,0.0536789,
2,0,0,1,0,66162,0.0465432,0.0462043,-1.72742,34,0.00453317,10,-7.98143e-05,-2.7626,0.582104,0.101356,-6.82829,0.0462043,
2,0,0,1,0,66162.4,0.0390523,0.0387222,-1.66751,34,0.00389189,10,-6.45697e-05,-2.77793,0.41826,0.141061,-9.17242,0.03872218,
2,0,0,1,0,66162.7,0.0315626,0.0312316,-1.60479,34,0.00327381,10,-5.01202e-05,-2.79458,0.452968,0.130252,-8.15727,0.0312316,
2,0,0,1,0,66163.1,0.0240704,0.0237206,-1.54362,34,0.0026784,10,-3.66156e-05,-2.81146,0.450516,0.130961,-7.90962,0.0237206,
2,0,0,1,0,66163.5,0.0165785,0.0162414,-1.49722,34,0.00210326,10,-2.43168e-05,-2.82472,0.780249,0.0756169,-4.42213,0.0162414,
2,0,0,1,0,66163.9,0.00908846,0.00882248,-1.46344,34,0.00154374,10,-1.29111e-05,-2.83463,0.957096,0.0616448,-3.52212,0.00882248,
2,0,0,1,0,66164.2,0.0015984,0.00124461,-1.46285,34,0.000992941,10,-1.82067e-06,-2.8348, , , ,0.00124461,
2,0,0,1,0,66164.3,0.000199195,-0.000150151,-1.45126,34,0.000889869,10,2.17909e-07,-2.83825, , , ,-0.000150151,

File: 20221101_1-115_003_TrumpetPlot_ParaChange_from10_every3_05_CV_C01_34.csv
mode,ox/red,error,control changes,counter inc.,time/s,control/V,Ewe/V,<I>/mA,cycle number,(Q-Qo)/C,I Range,P/W,log(|I|),Tafel slope mV/dec,alpha_eff,dI/d(E-IR),E-IR/V,
2,0,0,1,0,68104.5,2.44065e-05,-0.000325324,-0.738606,35,0.0000000E+000,10,2.40286e-07,-3.13159, , , ,-0.000325324,
2,1,0,1,0,68104.8,0.00729063,0.0069765,0.639932,35,0.000119401,10,4.46449e-06,-3.19387,0.0396766,1.48702,36.054,0.0069765,
2,1,0,1,0,68105.2,0.0147802,0.0144983,0.798048,35,0.000398752,10,1.15703e-05,-3.09797,0.117527,0.502014,15.5939,0.01449828,
2,1,0,1,0,68105.6,0.0222725,0.0219378,0.8926,35,0.000722439,10,1.95817e-05,-3.04934,0.176141,0.334959,11.6796,0.0219378,
2,1,0,1,0,68105.9,0.0297644,0.0294502,0.980499,35,0.0010793,10,2.88759e-05,-3.00855,0.199456,0.295804,11.3009,0.0294502,
2,1,0,1,0,68106.3,0.0372544,0.0369184,1.06556,35,0.00146849,10,3.93387e-05,-2.97242,0.221841,0.265956,11.067,0.0369184,
2,1,0,1,0,68106.7,0.0447449,0.0444095,1.15246,35,0.00189015,10,5.11803e-05,-2.93837,0.23095,0.255466,11.4994,0.0444095,
2,1,0,1,0,68107.1,0.0522363,0.0518827,1.2336,35,0.00234388,10,6.40027e-05,-2.90882,0.233923,0.25222,12.1588,0.0518827,
2,1,0,1,0,68107.4,0.0597291,0.0594222,1.31328,35,0.00282774,10,7.8038e-05,-2.88164,0.303225,0.194575,9.95935,0.05942224,
2,1,0,1,0,68107.8,0.0672182,0.066881,1.38227,35,0.00333841,10,9.24476e-05,-2.85941,0.372941,0.158202,8.51231,0.066881,
2,1,0,1,0,68108.2,0.0747092,0.0743676,1.43785,35,0.00387245,10,0.00010693,-2.84229,0.484511,0.121772,6.82799,0.0743676,
2,1,0,1,0,68108.6,0.0822001,0.0818745,1.48183,35,0.00442558,10,0.000121324,-2.8292,0.520591,0.113333,6.5654,0.0818745,
2,1,0,1,0,68108.9,0.0896911,0.0893638,1.53427,35,0.00499664,10,0.000137108,-2.8141,0.426905,0.138204,8.29439,0.0893638,
2,1,0,1,0,68109.3,0.097182,0.0968826,1.61702,35,0.00559186,10,0.000156661,-2.79128,0.240733,0.245085,15.4705,0.0968826,
2,1,0,1,0,68109.7,0.104673,0.104344,1.75434,35,0.00622688,10,0.000183055,-2.75589,0.189864,0.310749,21.2004,0.104344,
2,1,0,1,0,68110.1,0.112164,0.111853,1.89653,35,0.00691592,10,0.000212132,-2.72204,0.251329,0.234752,17.3382,0.1118528,
2,1,0,1,0,68110.4,0.119655,0.119366,2.00866,35,0.00765447,10,0.000239764,-2.69709,0.477784,0.123487,9.65579,0.119366,
2,1,0,1,0,68110.8,0.127146,0.126795,2.05463,35,0.00842317,10,0.000260516,-2.68727,1.0744,0.0549142,4.41003,0.126795,
2,1,0,1,0,68111.2,0.134637,0.13432,2.07244,35,0.0092045,10,0.000278369,-2.68352,-1.48115,-0.039834,-3.21925,0.13432,
2,1,0,1,0,68111.6,0.142128,0.141845,1.97376,35,0.00997407,10,0.000279967,-2.70471,-0.189377,-0.311548,-23.924,0.141845,
2,1,0,1,0,68111.9,0.149619,0.149317,1.69149,35,0.0106711,10,0.000252568,-2.77173,-0.086033,-0.685784,-45.1142,0.149317,
2,1,0,1,0,68112.3,0.157108,0.156787,1.37103,35,0.0112473,10,0.00021496,-2.86295,-0.0884785,-0.666829,-35.7599,0.156787,
2,1,0,1,0,68112.7,0.164601,0.164276,1.17091,35,0.0117248,10,0.000192353,-2.93147,-0.138282,-0.426664,-19.4916,0.164276,
2,1,0,1,0,68113.1,0.172092,0.171789,1.06372,35,0.0121468,10,0.000182735,-2.97317,-0.246845,-0.239016,-9.95682,0.171789,
2,1,0,1,0,68113.4,0.179582,0.179264,1.01142,35,0.0125406,10,0.000181312,-2.99507,-0.421619,-0.139937,-5.53057,0.179264,
2,1,0,1,0,68113.8,0.187073,0.186764,0.981863,35,0.0129189,10,0.000183377,-3.00795,-0.783257,-0.0753265,-2.88294,0.186764,
2,1,0,1,0,68114.2,0.194564,0.194233,0.961938,35,0.0132883,10,0.00018684,-3.01685,-1.16169,-0.0507881,-1.90596,0.194233,
2,1,0,1,0,68114.6,0.202057,0.201764,0.949917,35,0.0136518,10,0.000191659,-3.02231,-1.00756,-0.0585571,-2.1648,0.201764,
2,1,0,1,0,68114.9,0.209546,0.20925,0.938986,35,0.0140108,10,0.000196483,-3.02734,-1.34485,-0.0438709,-1.61004,0.20925,
2,1,0,1,0,68115.3,0.217037,0.216731,0.932166,35,0.0143662,10,0.00020203,-3.03051,-1.81692,-0.0324725,-1.18046,0.216731,
2,1,0,1,0,68115.7,0.224528,0.22429,0.924201,35,0.0147192,10,0.000207289,-3.03423,-2.63069,-0.0224276,-0.807557,0.22429,
2,1,0,1,0,68116,0.232019,0.231688,0.920646,35,0.0150697,10,0.000213303,-3.03591,-4.65476,-0.0126752,-0.453991,0.231688,
2,1,0,1,0,68116.4,0.23951,0.239218,0.91311,35,0.0154184,10,0.000218432,-3.03948,-6.568,-0.00898295,-0.320233,0.239218,
2,1,0,1,0,68116.8,0.247001,0.246698,0.911726,35,0.0157652,10,0.000224921,-3.04014,-1.57664,-0.0374214,-1.32505,0.246698,
2,1,0,1,0,68117.2,0.254492,0.254159,0.90259,35,0.0161102,10,0.000229402,-3.04451,-1.95751,-0.0301403,-1.06333,0.254159,
2,1,0,1,0,68117.5,0.261983,0.261638,0.898452,35,0.0164533,10,0.00023507,-3.04651,-1.81703,-0.0324706,-1.14021,0.261638,
2,1,0,1,0,68117.9,0.269474,0.269215,0.891526,35,0.0167945,10,0.000240012,-3.04987,14.6314,0.00403243,0.140572,0.269215,
2,1,0,1,0,68118.3,0.276965,0.276697,0.886795,35,0.0171335,10,0.000245373,-3.05218,-2.20385,-0.0267714,-0.927567,0.2766965,
2,1,0,1,0,68118.7,0.284456,0.284131,0.880181,35,0.0174702,10,0.000250087,-3.05543,-3.97519,-0.0148421,-0.510033,0.284131,
2,1,0,1,0,68119,0.291947,0.29163,0.871731,35,0.0178042,10,0.000254223,-3.05962,-3.0475,-0.0193602,-0.660164,0.29163,
2,1,0,1,0,68119.4,0.299436,0.299131,0.866681,35,0.0181357,10,0.000259251,-3.06214,-0.00435646,-13.5431,-300.149,0.299131,
2,0,0,1,0,68119.8,0.293745,0.293395,-0.164265,35,0.0181713,10,-4.81945e-05,-3.78445,-0.012848,-4.59216,26.0278,0.293395,
2,0,0,1,0,68120.1,0.286254,0.285965,-0.278012,35,0.0180797,10,-7.95015e-05,-3.55594,-0.0624375,-0.944944,10.2261,0.285965,
2,0,0,1,0,68120.5,0.278763,0.278469,-0.344165,35,0.0179568,10,-9.58394e-05,-3.46323,-0.111596,-0.528691,7.09076,0.2784692,
2,0,0,1,0,68120.9,0.271272,0.270887,-0.394818,35,0.0178126,10,-0.000106951,-3.4036,-0.15099,-0.390754,6.00476,0.270887,
2,0,0,1,0,68121.3,0.263781,0.263463,-0.432218,35,0.017652,10,-0.000113873,-3.3643,-0.18514,-0.318678,5.3829,0.263463,
2,0,0,1,0,68121.6,0.25629,0.25598,-0.469309,35,0.0174768,10,-0.000120134,-3.32854,-0.264058,-0.223436,4.08826,0.2559801,
2,0,0,1,0,68122,0.248799,0.248473,-0.502067,35,0.0172892,10,-0.00012475,-3.29924,-0.32356,-0.182346,3.56433,0.248473,
2,0,0,1,0,68122.4,0.241308,0.240977,-0.529607,35,0.0170903,10,-0.000127623,-3.27605,-0.356144,-0.165663,3.43166,0.240977,
2,0,0,1,0,68122.8,0.233817,0.233486,-0.557226,35,0.0168807,10,-0.000130104,-3.25397,-0.362241,-0.162875,3.54298,0.2334861,
2,0,0,1,0,68123.1,0.226326,0.226045,-0.58305,35,0.016661,10,-0.000131796,-3.23429,-0.497044,-0.118702,2.70383,0.226045,
2,0,0,1,0,68123.5,0.218835,0.218494,-0.612608,35,0.0164314,10,-0.000133851,-3.21282,-0.416595,-0.141625,3.36549,0.218494,
2,0,0,1,0,68123.9,0.211344,0.21102,-0.634767,35,0.0161926,10,-0.000133948,-3.19739,-0.468005,-0.126067,3.11886,0.21102,
2,0,0,1,0,68124.3,0.203855,0.203548,-0.658171,35,0.0159443,10,-0.000133969,-3.18166,-0.550813,-0.107114,2.75741,0.203548,
2,0,0,1,0,68124.6,0.196362,0.196041,-0.686219,35,0.0156867,10,-0.000134527,-3.16354,-0.415358,-0.142046,3.79832,0.196041,
2,0,0,1,0,68125,0.188871,0.188512,-0.714079,35,0.0154188,10,-0.000134613,-3.14625,-0.332397,-0.177499,4.9393,0.188512,
2,0,0,1,0,68125.4,0.18138,0.181063,-0.744137,35,0.01514,10,-0.000134735,-3.12835,-0.37742,-0.156324,4.54526,0.181063,
2,0,0,1,0,68125.8,0.173891,0.173599,-0.778023,35,0.014849,10,-0.000135064,-3.10901,-0.324118,-0.182032,5.5312,0.173599,
2,0,0,1,0,68126.1,0.166398,0.166065,-0.822502,35,0.0145433,10,-0.000136589,-3.08486,-0.356053,-0.165706,5.32336,0.166065,
2,0,0,1,0,68126.5,0.158906,0.158575,-0.877902,35,0.0142189,10,-0.000139214,-3.05655,-0.23594,-0.250063,8.59212,0.158575,
2,0,0,1,0,68126.9,0.151417,0.1511,-0.96427,35,0.0138684,10,-0.000145701,-3.0158,-0.163556,-0.360732,13.61,0.1511,
2,0,0,1,0,68127.3,0.143926,0.143552,-1.11004,35,0.0134761,10,-0.000159349,-2.95466,-0.0961882,-0.613381,26.6101,0.143552,
2,0,0,1,0,68127.6,0.136435,0.136143,-1.33608,35,0.0130141,10,-0.000181898,-2.87417,-0.0898797,-0.656433,34.1756,0.136143,
2,0,0,1,0,68128,0.128942,0.128614,-1.60307,35,0.0124581,10,-0.000206177,-2.79505,-0.106823,-0.552314,34.4452,0.128614,
2,0,0,1,0,68128.4,0.121453,0.121115,-1.84529,35,0.0118046,10,-0.000223492,-2.73394,-0.150358,-0.392398,28.2069,0.121115,
2,0,0,1,0,68128.8,0.113962,0.113626,-2.01617,35,0.0110716,10,-0.000229089,-2.69547,-0.294768,-0.200158,15.7456,0.113626,
2,0,0,1,0,68129.1,0.106471,0.10617,-2.08143,35,0.0102935,10,-0.000220986,-2.68164,-4.85085,-0.0121628,0.989128,0.10617,
2,0,0,1,0,68129.5,0.0989799,0.0986527,-2.06201,35,0.00950886,10,-0.000203423,-2.68571,0.917581,0.0642995,-5.16366,0.0986527,
2,0,0,1,0,68129.9,0.0914889,0.0911668,-2.01046,35,0.00874005,10,-0.000183287,-2.69671,0.659164,0.0895073,-7.02206,0.0911668,
2,0,0,1,0,68130.3,0.083998,0.0837054,-1.96316,35,0.00799058,10,-0.000164327,-2.70704,0.716351,0.0823619,-6.30496,0.0837054,
2,0,0,1,0,68130.6,0.076507,0.0761881,-1.92236,35,0.00725701,10,-0.000146461,-2.71617,0.786618,0.0750047,-5.62094,0.0761881,
2,0,0,1,0,68131,0.069016,0.0686973,-1.87322,35,0.00653983,10,-0.000128685,-2.72741,0.62235,0.0948019,-6.94436,0.0686973,
2,0,0,1,0,68131.4,0.0615251,0.0612314,-1.82496,35,0.00583988,10,-0.000111745,-2.73875,0.591932,0.0996736,-7.10928,0.0612314,
2,0,0,1,0,68131.7,0.0540342,0.0537137,-1.77296,35,0.00515934,10,-9.52321e-05,-2.7513,0.631772,0.0933881,-6.45773,0.0537137,
2,0,0,1,0,68132.1,0.0465432,0.0462203,-1.71743,35,0.004499,10,-7.93799e-05,-2.76512,0.4836,0.122002,-8.18272,0.0462203,
2,0,0,1,0,68132.5,0.0390523,0.0386973,-1.65858,35,0.0038609,10,-6.41827e-05,-2.78026,0.409892,0.14394,-9.30133,0.0386973,
2,0,0,1,0,68132.9,0.0315626,0.0312469,-1.59451,35,0.00324625,10,-4.98234e-05,-2.79737,0.449413,0.131282,-8.15969,0.0312469,
2,0,0,1,0,68133.2,0.0240704,0.0237511,-1.5344,35,0.00265398,10,-3.64438e-05,-2.81406,0.497644,0.118559,-7.11298,0.0237511,
2,0,0,1,0,68133.6,0.0165785,0.0162782,-1.48756,35,0.00208146,10,-2.42147e-05,-2.82753,0.677448,0.0870915,-5.07018,0.01627817,
2,0,0,1,0,68134,0.00908846,0.00876547,-1.45789,35,0.00152382,10,-1.27791e-05,-2.83627,1.1444,0.0515553,-2.93477,0.00876547,
2,0,0,1,0,68134.4,0.0015984,0.00125279,-1.45877,35,0.000974029,10,-1.82752e-06,-2.83601, , , ,0.00125279,
2,0,0,1,0,68134.4,0.000199195,-0.000166776,-1.44639,35,0.000871055,10,2.41222e-07,-2.83972, , , ,-0.000166776,