Folder: Figs_alphaMnO2_OER_Tafel_sleope/Figure_codes/Fig_3-5/rawdata_trumpetplot_data/after 10th (part 122)

File: 20221101_1-115_003_TrumpetPlot_ParaChange_from10_every3_09_CV_C01_0.csv
mode,ox/red,error,control changes,counter inc.,time/s,control/V,Ewe/V,<I>/mA,cycle number,(Q-Qo)/C,I Range,P/W,log(|I|),Tafel slope mV/dec,alpha_eff,dI/d(E-IR),E-IR/V,
2,0,0,1,0,1182.52,2.44065e-05,-0.000401673,-5.08588,1,0.0000000E+000,10,2.04286e-06,-2.29363, , , ,-0.000401673,
2,1,0,1,0,1182.62,0.00978761,0.00944912,3.03736,1,6.33093e-05,10,2.87003e-05,-2.5175,0.0324465,1.81838,207.924,0.00944912,
2,1,0,1,0,1182.72,0.0197755,0.0194628,4.00934,1,0.000427031,10,7.8033e-05,-2.39693,0.184078,0.320516,50.1144,0.0194628,
2,1,0,1,0,1182.82,0.0297635,0.02947,4.46689,1,0.000852265,10,0.000131639,-2.34999,0.243519,0.242281,42.2099,0.02946998,
2,1,0,1,0,1182.92,0.0397514,0.0394211,4.93617,1,0.00132258,10,0.000194589,-2.30661,0.193367,0.305119,58.906,0.0394211,
2,1,0,1,0,1183.02,0.0497484,0.0494488,5.51049,1,0.00184495,10,0.000272487,-2.25881,0.212231,0.278,59.7387,0.0494488,
2,1,0,1,0,1183.12,0.0597273,0.0594071,6.14787,1,0.00242689,10,0.000365227,-2.21128,0.211356,0.27915,66.8963,0.0594071,
2,1,0,1,0,1183.22,0.0697152,0.0694135,6.79071,1,0.00307438,10,0.000471367,-2.16808,0.252968,0.233231,61.8919,0.0694135,
2,1,0,1,0,1183.32,0.0797031,0.0793811,7.4098,1,0.00378524,10,0.000588198,-2.13019,0.293663,0.20091,58.0784,0.0793811,
2,1,0,1,0,1183.42,0.0896911,0.0894411,7.95903,1,0.00455448,10,0.000711864,-2.09914,0.33432,0.176478,54.8923,0.0894411,
2,1,0,1,0,1183.52,0.099679,0.0993387,8.54966,1,0.00537821,10,0.000849312,-2.06805,0.294845,0.200105,66.7157,0.0993387,
2,1,0,1,0,1183.62,0.109667,0.10939,9.32398,1,0.00626936,10,0.00101995,-2.0304,0.227076,0.259825,94.6876,0.10939,
2,1,0,1,0,1183.72,0.119655,0.119355,10.423,1,0.00725537,10,0.00124404,-1.98201,0.215347,0.273976,111.44,0.119355,
2,1,0,1,0,1183.82,0.129643,0.129346,11.5404,1,0.00835437,10,0.0014927,-1.93778,0.255922,0.230539,103.765,0.129346,
2,1,0,1,0,1183.92,0.139631,0.139354,12.4671,1,0.00955688,10,0.00173735,-1.90423,0.343347,0.171838,83.6208,0.139354,
2,1,0,1,0,1184.02,0.149619,0.149338,13.0132,1,0.0108349,10,0.00194336,-1.88562,2.56885,0.0229675,11.6346,0.1493379,
2,1,0,1,0,1184.12,0.159607,0.159335,12.2208,1,0.0121129,10,0.00194721,-1.9129,-0.144645,-0.407896,-193.801,0.159335,
2,1,0,1,0,1184.22,0.169595,0.169286,9.34828,1,0.0132029,10,0.00158254,-2.02927,-0.0651435,-0.905693,-330.113,0.169286,
2,1,0,1,0,1184.31,0.179582,0.179311,6.75943,1,0.0139945,10,0.00121204,-2.17009,-0.0894844,-0.659332,-174.852,0.179311,
2,1,0,1,0,1184.41,0.18957,0.189273,5.58979,1,0.0146047,10,0.00105799,-2.2526,-0.159993,-0.368766,-80.5113,0.189273,
2,1,0,1,0,1184.51,0.199558,0.199284,4.99188,1,0.0151304,10,0.0009948,-2.30174,-0.261979,-0.225209,-43.8294,0.199284,
2,1,0,1,0,1184.61,0.209546,0.209246,4.61743,1,0.0156095,10,0.000966178,-2.3356,-0.297815,-0.19811,-35.726,0.209246,
2,1,0,1,0,1184.71,0.219534,0.219249,4.37936,1,0.0160585,10,0.00096017,-2.35859,-0.577208,-0.102216,-17.4725,0.219249,
2,1,0,1,0,1184.81,0.229522,0.229225,4.20726,1,0.0164882,10,0.000964411,-2.376,-0.61247,-0.0963313,-15.8507,0.229225,
2,1,0,1,0,1184.91,0.23951,0.239212,4.10604,1,0.0169042,10,0.000982214,-2.38658,-1.43868,-0.0410098,-6.56923,0.239212,
2,1,0,1,0,1185.01,0.249498,0.249172,4.02029,1,0.0173101,10,0.00100175,-2.39574,-1.26545,-0.0466237,-7.3024,0.249172,
2,1,0,1,0,1185.11,0.259486,0.259183,3.95094,1,0.0177085,10,0.00102402,-2.4033,-0.810246,-0.0728174,-11.2137,0.259183,
2,1,0,1,0,1185.21,0.269474,0.269193,3.8791,1,0.0181001,10,0.00104423,-2.41127,-2.06676,-0.0285471,-4.32783,0.269193,
2,1,0,1,0,1185.31,0.279462,0.279151,3.82267,1,0.018486,10,0.0010671,-2.41763,-1.56015,-0.0378168,-5.64761,0.279151,
2,1,0,1,0,1185.41,0.28945,0.289141,3.76499,1,0.018866,10,0.00108861,-2.42424,-3.90316,-0.0151159,-2.22164,0.289141,
2,1,0,1,0,1185.51,0.299438,0.299148,3.71927,1,0.0192405,10,0.00111261,-2.42954,-0.022837,-2.58353,-335.173,0.299148,
2,0,0,1,0,1185.6,0.291747,0.291443,-1.4897,1,0.0192358,10,-0.000434164,-2.8269,-0.0385986,-1.52855,86.4869,0.291443,
2,0,0,1,0,1185.7,0.281759,0.28142,-1.95333,1,0.0190602,10,-0.000549706,-2.70923,-0.140066,-0.421229,31.928,0.28142,
2,0,0,1,0,1185.8,0.271771,0.27144,-2.22259,1,0.0188515,10,-0.000603301,-2.65314,-0.195963,-0.301077,26.0134,0.27144,
2,0,0,1,0,1185.9,0.261783,0.261463,-2.42116,1,0.0186194,10,-0.000633045,-2.61598,-0.360255,-0.163773,15.4651,0.261463,
2,0,0,1,0,1186,0.251795,0.2515,-2.59009,1,0.018369,10,-0.000651406,-2.58669,-0.364433,-0.161895,16.3724,0.2515,
2,0,0,1,0,1186.1,0.241807,0.241518,-2.73884,1,0.0181023,10,-0.000661478,-2.56243,-0.382189,-0.154374,16.5643,0.241518,
2,0,0,1,0,1186.2,0.231815,0.231519,-2.8947,1,0.0178209,10,-0.000670179,-2.5384,-0.412251,-0.143117,16.1528,0.231519,
2,0,0,1,0,1186.3,0.221831,0.221538,-3.03945,1,0.0175252,10,-0.000673355,-2.5172,-0.510998,-0.11546,13.6852,0.221538,
2,0,0,1,0,1186.4,0.211843,0.211518,-3.1973,1,0.0172139,10,-0.000676287,-2.49522,-0.588291,-0.10029,12.4984,0.211518,
2,0,0,1,0,1186.5,0.201856,0.201562,-3.36874,1,0.016886,10,-0.000679009,-2.47253,-0.415489,-0.142001,18.7081,0.201562,
2,0,0,1,0,1186.6,0.191868,0.191507,-3.60168,1,0.0165385,10,-0.000689747,-2.4435,-0.310665,-0.189915,26.7068,0.191507,
2,0,0,1,0,1186.7,0.18188,0.181596,-3.91179,1,0.0161656,10,-0.000710365,-2.40762,-0.226588,-0.260384,39.6486,0.181596,
2,0,0,1,0,1186.8,0.171892,0.171601,-4.36211,1,0.0157549,10,-0.000748544,-2.3603,-0.186344,-0.316618,53.8316,0.1716015,
2,0,0,1,0,1186.9,0.161904,0.161618,-5.09851,1,0.015286,10,-0.000824011,-2.29256,-0.122396,-0.48204,95.9639,0.1616181,
2,0,0,1,0,1187,0.151916,0.151609,-6.35162,1,0.0147192,10,-0.000962961,-2.19712,-0.0925989,-0.637156,158.299,0.151609,
2,0,0,1,0,1187.1,0.141928,0.141644,-8.26934,1,0.0139932,10,-0.0011713,-2.08253,-0.0879324,-0.67097,216.777,0.141644,
2,0,0,1,0,1187.2,0.13194,0.131664,-10.4788,1,0.0130562,10,-0.00137968,-1.97969,-0.116063,-0.508344,207.691,0.131664,
2,0,0,1,0,1187.3,0.121952,0.12166,-12.2222,1,0.0119164,10,-0.00148696,-1.91285,-0.2145,-0.275059,130.956,0.12166,
2,0,0,1,0,1187.4,0.111964,0.111684,-13.0592,1,0.0106458,10,-0.00145851,-1.88408,-0.846473,-0.069701,35.4678,0.111684,
2,0,0,1,0,1187.5,0.101976,0.101647,-12.9392,1,0.00934018,10,-0.00131523,-1.88809,0.489691,0.120484,-60.715,0.101647,
2,0,0,1,0,1187.6,0.0919883,0.0916701,-11.9891,1,0.00809061,10,-0.00109904,-1.92121,0.244828,0.240985,-112.725,0.0916701,
2,0,0,1,0,1187.7,0.0820004,0.081729,-10.8041,1,0.00695487,10,-0.00088301,-1.96641,0.233709,0.252451,-106.499,0.081729,
2,0,0,1,0,1187.8,0.0720124,0.0716972,-9.96548,1,0.00592143,10,-0.000714497,-2.0015,0.339295,0.17389,-67.6819,0.0716972,
2,0,0,1,0,1187.9,0.0620245,0.0617168,-9.39677,1,0.00495609,10,-0.000579938,-2.02702,0.39977,0.147585,-54.1349,0.06171675,
2,0,0,1,0,1188,0.0520366,0.0517431,-8.88307,1,0.0040432,10,-0.000459638,-2.05144,0.344473,0.171276,-59.3241,0.0517431,
2,0,0,1,0,1188.1,0.0420486,0.0417315,-8.25934,1,0.00318625,10,-0.000344675,-2.08305,0.290322,0.203223,-65.5653,0.0417315,
2,0,0,1,0,1188.2,0.0320607,0.0317285,-7.54771,1,0.00239748,10,-0.000239478,-2.12218,0.24712,0.23875,-70.3191,0.0317285,
2,0,0,1,0,1188.3,0.0220728,0.0217765,-6.93205,1,0.0016769,10,-0.000150956,-2.15914,0.323162,0.182571,-49.4084,0.0217765,
2,0,0,1,0,1188.4,0.0120848,0.0117785,-6.56956,1,0.00100547,10,-7.73797e-05,-2.18246,0.552527,0.106782,-27.3877,0.0117785,
2,0,0,1,0,1188.5,0.0020969,0.00175172,-6.49122,1,0.000358604,10,-1.13708e-05,-2.18767,-3.49545,-0.0168791,4.24478,0.00175172,
2,0,0,1,0,1188.6,-0.00789103,-0.00824407,-6.45146,1,-0.000285059,10,5.31864e-05,-2.19034,-1.60666,-0.0367222,9.26386,-0.00824407,
2,0,0,1,0,1188.7,-0.017879,-0.0182388,-6.60068,1,-0.00093514,10,0.000120388,-2.18041,-0.754891,-0.078157,20.1109,-0.0182388,
2,0,0,1,0,1188.8,-0.0278669,-0.0282431,-6.80059,1,-0.00160311,10,0.00019207,-2.16745,-0.736715,-0.0800852,21.2788,-0.0282431,
2,0,0,1,0,1188.9,-0.0378548,-0.0382274,-7.06537,1,-0.00229483,10,0.00027009,-2.15087,-0.577781,-0.102115,28.1532,-0.0382274,
2,0,0,1,0,1189,-0.0478428,-0.0481725,-7.37017,1,-0.00301512,10,0.000355039,-2.13252,-0.423932,-0.139173,40.0923,-0.0481725,
2,0,0,1,0,1189.1,-0.0578216,-0.0581955,-7.74581,1,-0.00376879,10,0.000450771,-2.11093,-0.427892,-0.137885,41.7024,-0.0581955,
2,0,0,1,0,1189.2,-0.0678187,-0.068165,-8.20137,1,-0.00456409,10,0.000559046,-2.08611,-0.356698,-0.165406,52.9182,-0.068165,
2,0,0,1,0,1189.3,-0.0778066,-0.078189,-8.74156,1,-0.0054092,10,0.000683494,-2.05841,-0.349838,-0.16865,57.5631,-0.07818903,
2,0,0,1,0,1189.4,-0.0877945,-0.0881399,-9.3854,1,-0.00631384,10,0.000827228,-2.02755,-0.323273,-0.182508,66.8602,-0.0881399,
2,0,0,1,0,1189.5,-0.0977825,-0.0981262,-10.0249,1,-0.0072836,10,0.000983703,-1.99892,-0.379807,-0.155342,60.8012,-0.09812618,
2,0,0,1,1,1189.59,-0.0927386,-0.0930745,-0.357356,1,-0.00779889,10,3.32607e-05,-3.4469,-0.0103375,-5.70735,663.229,-0.0930745,
2,1,0,1,1,1189.69,-0.0827529,-0.0831066,3.25308,1,-0.00761817,10,-0.000270352,-2.48771,0.0368661,1.60039,199.643,-0.0831066,
2,1,0,1,1,1189.79,-0.0727627,-0.0730406,4.54546,1,-0.00721909,10,-0.000332003,-2.34242,0.12605,0.468067,82.5604,-0.07304056,
2,1,0,1,1,1189.89,-0.0627748,-0.0631157,5.12228,1,-0.00673227,10,-0.000323296,-2.29054,0.280568,0.210288,42.0512,-0.0631157,
2,1,0,1,1,1189.99,-0.0527868,-0.0531213,5.4328,1,-0.00620235,10,-0.000288597,-2.26498,0.671806,0.0878229,18.5932,-0.05312128,
2,1,0,1,1,1190.09,-0.0427989,-0.0431824,5.56787,1,-0.00565129,10,-0.000240434,-2.25431,0.956415,0.0616887,13.4167,-0.0431824,
2,1,0,1,1,1190.19,-0.0328109,-0.0331221,5.62025,1,-0.00509184,10,-0.000186155,-2.25024,15.9746,0.00369336,0.808775,-0.0331221,
2,1,0,1,1,1190.29,-0.022823,-0.0231658,5.60329,1,-0.00453071,10,-0.000129805,-2.25156,-2.83308,-0.0208254,-4.55394,-0.0231658,
2,1,0,1,1,1190.39,-0.0128351,-0.0131698,5.55028,1,-0.00397295,10,-7.30961e-05,-2.25568,-2.02745,-0.0291006,-6.30578,-0.0131698,
2,1,0,1,1,1190.49,-0.00284713,-0.00312494,5.50153,1,-0.0034202,10,-1.71919e-05,-2.25952,-1.89759,-0.031092,-6.67311,-0.00312494,
2,1,0,0,1,1190.52,-2.55332e-05,-0.00042076,5.48179,1,-0.00326576,10,-2.30652e-06,-2.26108, , , ,-0.00042076,

File: 20221101_1-115_003_TrumpetPlot_ParaChange_from10_every3_09_CV_C01_1.csv
mode,ox/red,error,control changes,counter inc.,time/s,control/V,Ewe/V,<I>/mA,cycle number,(Q-Qo)/C,I Range,P/W,log(|I|),Tafel slope mV/dec,alpha_eff,dI/d(E-IR),E-IR/V,
2,0,0,0,0,3152.65,2.44065e-05,-0.00042076,-5.10051,2,0.0000000E+000,10,2.14609e-06,-2.29239, , , ,-0.00042076,
2,1,0,1,0,3152.75,0.00978761,0.00945953,2.81501,2,3.96772e-05,10,2.66286e-05,-2.55052,0.0284094,2.07678,218.852,0.00945953,
2,1,0,1,0,3152.85,0.0197755,0.0194574,3.92255,2,0.000387527,10,7.63228e-05,-2.40643,0.14406,0.40955,62.69,0.0194574,
2,1,0,1,0,3152.95,0.0297635,0.0294843,4.4748,2,0.000808258,10,0.000131936,-2.34923,0.209266,0.281938,49.1775,0.0294843,
2,1,0,1,0,3153.05,0.0397514,0.0394887,5.00905,2,0.00128177,10,0.000197801,-2.30024,0.186611,0.316166,61.899,0.03948874,
2,1,0,1,0,3153.15,0.0497484,0.0494318,5.61329,2,0.00181169,10,0.000277475,-2.25078,0.204576,0.288402,63.0169,0.0494318,
2,1,0,1,0,3153.25,0.0597273,0.0594418,6.21565,2,0.00240138,10,0.00036947,-2.20651,0.226047,0.261008,63.2411,0.0594418,
2,1,0,1,0,3153.35,0.0697152,0.069423,6.80865,2,0.00305256,10,0.000472677,-2.16694,0.28243,0.208901,55.5394,0.069423,
2,1,0,1,0,3153.45,0.0797031,0.0794297,7.36555,2,0.0037611,10,0.000585043,-2.1328,0.32837,0.179675,51.6298,0.0794297,
2,1,0,1,0,3153.55,0.0896911,0.0894012,7.86233,2,0.00452232,10,0.000702902,-2.10445,0.354528,0.166418,51.113,0.0894012,
2,1,0,1,0,3153.65,0.099679,0.0993341,8.43514,2,0.00533423,10,0.000837898,-2.07391,0.314022,0.187885,61.7885,0.0993341,
2,1,0,1,0,3153.75,0.109667,0.109322,9.22234,2,0.00621266,10,0.00100821,-2.03516,0.224073,0.263307,94.8041,0.109322,
2,1,0,1,0,3153.85,0.119655,0.119362,10.2541,2,0.00718418,10,0.00122395,-1.9891,0.232229,0.25406,101.6,0.1193621,
2,1,0,1,0,3153.95,0.129643,0.129317,11.2112,2,0.00825765,10,0.0014498,-1.95035,0.290742,0.202929,88.7663,0.129317,
2,1,0,1,0,3154.05,0.139631,0.139288,11.9825,2,0.00941838,10,0.00166902,-1.92145,0.41658,0.14163,66.2409,0.139288,
2,1,0,1,0,3154.15,0.149619,0.149311,12.3738,2,0.0106397,10,0.00184753,-1.9075,-3.79055,-0.015565,-7.49407,0.149311,
2,1,0,1,0,3154.25,0.159607,0.159294,11.3002,2,0.0118401,10,0.00180006,-1.94691,-0.114878,-0.513587,-225.697,0.159294,
2,1,0,1,0,3154.35,0.169595,0.169301,8.40699,2,0.01283,10,0.00142331,-2.07536,-0.0673674,-0.875794,-287.701,0.169301,
2,1,0,1,0,3154.45,0.179582,0.179285,6.29623,2,0.0135507,10,0.00112882,-2.20092,-0.107951,-0.546543,-134.838,0.179285,
2,1,0,1,0,3154.55,0.18957,0.189279,5.36123,2,0.0141274,10,0.00101477,-2.27074,-0.189771,-0.310902,-65.0838,0.189279,
2,1,0,1,0,3154.65,0.199558,0.199293,4.85592,2,0.0146346,10,0.000967751,-2.31373,-0.314361,-0.187682,-35.4953,0.199293,
2,1,0,1,0,3154.74,0.209546,0.209301,4.54265,2,0.0151021,10,0.000950782,-2.34269,-0.363061,-0.162507,-28.8129,0.209301,
2,1,0,1,0,3154.84,0.219534,0.219258,4.32311,2,0.0155438,10,0.000947878,-2.3642,-0.566191,-0.104205,-17.5934,0.219258,
2,1,0,1,0,3154.94,0.229522,0.229243,4.17864,2,0.0159684,10,0.000957923,-2.37897,-0.700729,-0.084198,-13.7422,0.229243,
2,1,0,1,0,3155.04,0.23951,0.239231,4.07748,2,0.0163808,10,0.000975461,-2.38961,-1.38333,-0.0426508,-6.79759,0.239231,
2,1,0,1,0,3155.14,0.249498,0.249223,4.00095,2,0.0167839,10,0.000997128,-2.39784,-1.15546,-0.051062,-7.96671,0.249223,
2,1,0,1,0,3155.24,0.259486,0.259205,3.93798,2,0.01718,10,0.00102074,-2.40473,-1.06119,-0.0555978,-8.53132,0.259205,
2,1,0,1,0,3155.34,0.269474,0.269182,3.86713,2,0.0175696,10,0.00104096,-2.41261,-1.63734,-0.036034,-5.44463,0.269182,
2,1,0,1,0,3155.44,0.279462,0.279183,3.80917,2,0.0179535,10,0.00106346,-2.41917,-2.08879,-0.028246,-4.20268,0.279183,
2,1,0,1,0,3155.54,0.28945,0.289173,3.75764,2,0.0183316,10,0.00108661,-2.42508,-3.86454,-0.015267,-2.23981,0.289173,
2,1,0,1,0,3155.64,0.299438,0.299143,3.70206,2,0.018704,10,0.00110745,-2.43156,-0.0230781,-2.55654,-331.466,0.299143,
2,0,0,1,0,3155.73,0.291747,0.291407,-1.38837,2,0.0187096,10,-0.000404582,-2.85749,-0.0320541,-1.84064,96.5525,0.291407,
2,0,0,1,0,3155.83,0.281759,0.281434,-1.8869,2,0.0185422,10,-0.000531039,-2.72425,-0.131857,-0.447454,32.8743,0.281434,
2,0,0,1,0,3155.93,0.271771,0.271454,-2.16521,2,0.0183396,10,-0.000587755,-2.6645,-0.192844,-0.305947,25.7904,0.271454,
2,0,0,1,0,3156.03,0.261783,0.261515,-2.37395,2,0.0181131,10,-0.000620824,-2.62453,-0.320121,-0.184305,17.0205,0.261515,
2,0,0,1,0,3156.13,0.251795,0.251485,-2.53642,2,0.017868,10,-0.000637871,-2.59578,-0.359687,-0.164031,16.2309,0.251485,
2,0,0,1,0,3156.23,0.241807,0.241461,-2.68615,2,0.0176067,10,-0.000648601,-2.57087,-0.394789,-0.149447,15.7232,0.241461,
2,0,0,1,0,3156.33,0.231815,0.231523,-2.84151,2,0.0173309,10,-0.000657874,-2.54645,-0.394724,-0.149472,16.545,0.231523,
2,0,0,1,0,3156.43,0.221831,0.221538,-2.97567,2,0.0170411,10,-0.000659226,-2.52641,-0.491388,-0.120068,13.928,0.221538,
2,0,0,1,0,3156.53,0.211843,0.211534,-3.12641,2,0.0167366,10,-0.00066134,-2.50495,-0.579207,-0.101863,12.4128,0.211534,
2,0,0,1,0,3156.63,0.201856,0.201527,-3.28472,2,0.0164167,10,-0.00066196,-2.4835,-0.438869,-0.134437,17.2589,0.201527,
2,0,0,1,0,3156.73,0.191868,0.191563,-3.48096,2,0.0160792,10,-0.000666823,-2.4583,-0.35675,-0.165382,22.5216,0.191563,
2,0,0,1,0,3156.83,0.18188,0.181592,-3.75183,2,0.0157198,10,-0.000681304,-2.42576,-0.259579,-0.227291,33.1785,0.181592,
2,0,0,1,0,3156.93,0.171892,0.171607,-4.12055,2,0.0153288,10,-0.000707115,-2.38504,-0.207084,-0.284909,45.7815,0.171607,
2,0,0,1,0,3157.03,0.161904,0.161586,-4.71699,2,0.0148903,10,-0.000762197,-2.32634,-0.142347,-0.41448,76.4109,0.161586,
2,0,0,1,0,3157.13,0.151916,0.151588,-5.74125,2,0.0143724,10,-0.000870307,-2.24099,-0.100918,-0.584635,131.453,0.151588,
2,0,0,1,0,3157.23,0.141928,0.141621,-7.4364,2,0.0137195,10,-0.00105315,-2.12864,-0.0843846,-0.699179,202.834,0.141621,
2,0,0,1,0,3157.33,0.13194,0.131636,-9.52694,2,0.0128744,10,-0.00125409,-2.02105,-0.104496,-0.564617,209.566,0.131636,
2,0,0,1,0,3157.43,0.121952,0.121638,-11.3099,2,0.0118284,10,-0.00137572,-1.94654,-0.189337,-0.311613,137.243,0.1216383,
2,0,0,1,0,3157.53,0.111964,0.111635,-12.3126,2,0.0106413,10,-0.00137452,-1.90965,-0.49927,-0.118173,56.7156,0.111635,
2,0,0,1,0,3157.63,0.101976,0.101689,-12.4574,2,0.00939697,10,-0.00126679,-1.90457,0.902723,0.0653578,-31.7207,0.101689,
2,0,0,1,0,3157.73,0.0919883,0.0916884,-11.787,2,0.00818013,10,-0.00108073,-1.9286,0.29268,0.201585,-92.765,0.0916884,
2,0,0,1,0,3157.83,0.0820004,0.0816883,-10.752,2,0.00705445,10,-0.000878311,-1.96851,0.248495,0.237429,-99.6738,0.0816883,
2,0,0,1,0,3157.93,0.0720124,0.0716495,-9.92762,2,0.0060245,10,-0.000711309,-2.00315,0.348305,0.169392,-65.668,0.0716495,
2,0,0,1,0,3158.03,0.0620245,0.0617105,-9.38233,2,0.0050615,10,-0.000578988,-2.02769,0.435915,0.135347,-49.5644,0.0617105,
2,0,0,1,0,3158.13,0.0520366,0.0516954,-8.92554,2,0.0041472,10,-0.000461409,-2.04937,0.420903,0.140175,-48.8069,0.0516954,
2,0,0,1,0,3158.23,0.0420486,0.0417672,-8.42405,2,0.00327963,10,-0.000351849,-2.07448,0.366952,0.160784,-52.8421,0.0417672,
2,0,0,1,0,3158.33,0.0320607,0.0317165,-7.81028,2,0.00246858,10,-0.000247714,-2.10733,0.264809,0.222802,-67.8797,0.0317165,
2,0,0,1,0,3158.43,0.0220728,0.0217396,-7.17453,2,0.00172103,10,-0.000155971,-2.14421,0.295652,0.199559,-55.8902,0.0217396,
2,0,0,1,0,3158.53,0.0120848,0.0117486,-6.72049,2,0.00102893,10,-7.89567e-05,-2.1726,0.414779,0.142245,-37.3298,0.0117486,
2,0,0,1,0,3158.63,0.0020969,0.00168709,-6.54856,2,0.000370828,10,-1.1048e-05,-2.18385,4.58482,0.0128685,-3.26907,0.00168709,
2,0,0,1,0,3158.73,-0.00789103,-0.00823909,-6.44362,2,-0.000276365,10,5.30896e-05,-2.19087,-8.27621,-0.00712887,1.79729,-0.00823909,
2,0,0,1,0,3158.83,-0.017879,-0.0182516,-6.55241,2,-0.000924541,10,0.000119592,-2.1836,-0.92113,-0.0640518,16.3559,-0.0182516,
2,0,0,1,0,3158.93,-0.0278669,-0.0282371,-6.72566,2,-0.00158733,10,0.000189913,-2.17227,-0.86386,-0.0682981,17.9442,-0.0282371,
2,0,0,1,0,3159.03,-0.0378548,-0.0382572,-6.97773,2,-0.00227172,10,0.000266949,-2.15629,-0.673643,-0.0875834,23.8386,-0.0382572,
2,0,0,1,0,3159.13,-0.0478428,-0.048205,-7.27149,2,-0.0029837,10,0.000350522,-2.13838,-0.445111,-0.132551,37.6834,-0.048205,
2,0,0,1,0,3159.23,-0.0578216,-0.0581812,-7.64857,2,-0.00372847,10,0.000445003,-2.11642,-0.428685,-0.13763,41.0718,-0.0581812,
2,0,0,1,0,3159.33,-0.0678187,-0.0682115,-8.10315,2,-0.00451485,10,0.000552728,-2.09135,-0.359913,-0.163929,51.8181,-0.0682115,
2,0,0,1,0,3159.43,-0.0778066,-0.0781773,-8.65118,2,-0.00535129,10,0.000676326,-2.06292,-0.340355,-0.173349,58.5756,-0.0781773,
2,0,0,1,0,3159.53,-0.0877945,-0.0881577,-9.29723,2,-0.00624776,10,0.000819623,-2.03165,-0.319316,-0.18477,67.026,-0.0881577,
2,0,0,1,0,3159.63,-0.0977825,-0.0981561,-9.93668,2,-0.00720963,10,0.000975345,-2.00276,-0.362613,-0.162708,63.1273,-0.0981561,
2,0,0,1,1,3159.72,-0.0927386,-0.093075,-0.77108,2,-0.00774261,10,7.17682e-05,-3.1129,-0.00495894,-11.8977,639.232,-0.093075,
2,1,0,1,1,3159.82,-0.0827529,-0.0831266,2.89281,2,-0.00760288,10,-0.000240469,-2.53868,0.0311763,1.89246,209.137,-0.0831266,
2,1,0,1,1,3159.92,-0.0727627,-0.0730866,4.28891,2,-0.00723497,10,-0.000313462,-2.36765,0.106071,0.556231,92.4635,-0.0730866,
2,1,0,1,1,3160.02,-0.0627748,-0.0630988,4.94138,2,-0.00677061,10,-0.000311795,-2.30615,0.247166,0.238706,45.9705,-0.0630988,
2,1,0,1,1,3160.12,-0.0527868,-0.0531404,5.27525,2,-0.006258,10,-0.000280329,-2.27776,0.590499,0.0999155,20.5624,-0.0531404,
2,1,0,1,1,3160.22,-0.0427989,-0.0431221,5.44176,2,-0.00572109,10,-0.00023466,-2.26426,1.02115,0.057778,12.2804,-0.0431221,
2,1,0,1,1,3160.32,-0.0328109,-0.0331304,5.51018,2,-0.00517414,10,-0.000182554,-2.25883,6.04593,0.00975863,2.09429,-0.0331304,
2,1,0,1,1,3160.42,-0.022823,-0.023133,5.5006,2,-0.00462451,10,-0.000127245,-2.25959,-10.8175,-0.0054541,-1.16928,-0.023133,
2,1,0,1,1,3160.52,-0.0128351,-0.0132127,5.4549,2,-0.00407705,10,-7.20742e-05,-2.26321,-3.36626,-0.0175269,-3.73544,-0.0132127,
2,1,0,1,1,3160.62,-0.00284713,-0.00320917,5.42133,2,-0.00353338,10,-1.7398e-05,-2.26589,-2.58534,-0.022821,-4.82828,-0.003209169,
2,1,0,1,1,3160.65,-2.55332e-05,-0.000363498,5.42518,2,-0.00338113,10,-1.97204e-06,-2.26559, , , ,-0.000363498,