Folder: Figs_alphaMnO2_OER_Tafel_sleope/Figure_codes/Fig_3-5/rawdata_trumpetplot_data/after 10th (part 74)

File: 20221101_1-115_003_TrumpetPlot_ParaChange_from10_every3_06_CV_C01_8.csv
mode,ox/red,error,control changes,counter inc.,time/s,control/V,Ewe/V,<I>/mA,cycle number,(Q-Qo)/C,I Range,P/W,log(|I|),Tafel slope mV/dec,alpha_eff,dI/d(E-IR),E-IR/V,
2,0,0,0,0,16911.1,2.44065e-05,-0.000439847,-1.41662,9,0.0000000E+000,10,6.23095e-07,-2.84875, , , ,-0.000439847,
2,1,0,1,0,16911.2,0.00729063,0.00703437,1.40827,9,0.000131536,10,9.90626e-06,-2.85132,0.0429156,1.37479,73.2133,0.00703437,
2,1,0,1,0,16911.4,0.014778,0.0144495,1.71933,9,0.00043202,10,2.48434e-05,-2.76464,0.129986,0.453896,30.4398,0.0144495,
2,1,0,1,0,16911.6,0.0222743,0.0219635,1.91572,9,0.000776908,10,4.20761e-05,-2.71767,0.174696,0.337729,25.2648,0.02196355,
2,1,0,1,0,16911.8,0.0297626,0.029455,2.10404,9,0.00115617,10,6.19746e-05,-2.67695,0.206003,0.286404,23.3993,0.029455,
2,1,0,1,0,16912,0.0372544,0.0369258,2.28068,9,0.00156984,10,8.42157e-05,-2.64194,0.226134,0.260908,23.2637,0.0369258,
2,1,0,1,0,16912.2,0.0447472,0.0444242,2.46036,9,0.00201771,10,0.0001093,-2.609,0.248582,0.237346,22.845,0.0444242,
2,1,0,1,0,16912.4,0.0522345,0.0519167,2.63394,9,0.00249847,10,0.000136746,-2.57939,0.25805,0.228637,23.4895,0.0519167,
2,1,0,1,0,16912.6,0.0597309,0.0594585,2.79457,9,0.00301128,10,0.000166161,-2.55368,0.28994,0.20349,22.2252,0.0594585,
2,1,0,1,0,16912.7,0.0672182,0.0669128,2.94566,9,0.00355235,10,0.000197103,-2.53082,0.369875,0.159513,18.3231,0.0669128,
2,1,0,1,0,16912.9,0.0747074,0.0743896,3.07982,9,0.00411935,10,0.000229107,-2.51147,0.429355,0.137415,16.4632,0.0743896,
2,1,0,1,0,16913.1,0.0822019,0.0819269,3.17818,9,0.00470958,10,0.000260378,-2.49782,0.493228,0.11962,14.9078,0.0819269,
2,1,0,1,0,16913.3,0.0896911,0.089346,3.31324,9,0.005321,10,0.000296025,-2.47975,0.420944,0.140161,18.1282,0.089346,
2,1,0,1,0,16913.5,0.097182,0.0968906,3.49081,9,0.00596017,10,0.000338227,-2.45707,0.250836,0.235213,32.0613,0.0968906,
2,1,0,1,0,16913.7,0.104675,0.104368,3.77257,9,0.00664223,10,0.000393737,-2.42336,0.198045,0.297913,43.9193,0.104368,
2,1,0,1,0,16913.9,0.112162,0.11183,4.1018,9,0.00738259,10,0.000458704,-2.38703,0.227756,0.259049,41.3775,0.11183,
2,1,0,1,0,16914.1,0.119655,0.119344,4.36423,9,0.00817967,10,0.000520846,-2.36009,0.379703,0.155385,26.4088,0.119344,
2,1,0,1,0,16914.2,0.127146,0.126823,4.52008,9,0.00901616,10,0.00057325,-2.34485,0.551124,0.107054,18.927,0.1268228,
2,1,0,1,0,16914.4,0.134635,0.134345,4.6665,9,0.00988064,10,0.000626923,-2.33101,0.926834,0.0636576,11.5787,0.134345,
2,1,0,1,0,16914.6,0.14213,0.141833,4.64007,9,0.0107611,10,0.000658113,-2.33348,-0.398663,-0.147995,-26.7044,0.141833,
2,1,0,1,0,16914.8,0.149619,0.149298,4.14819,9,0.0115959,10,0.000619318,-2.38214,-0.0974371,-0.605519,-97.6402,0.149298,
2,1,0,1,0,16915,0.157106,0.156802,3.32405,9,0.0122989,10,0.000521218,-2.47833,-0.0722214,-0.816932,-105.768,0.156802,
2,1,0,1,0,16915.2,0.164602,0.16427,2.68724,9,0.0128597,10,0.000441431,-2.57069,-0.0972448,-0.606716,-63.8045,0.16427,
2,1,0,1,0,16915.4,0.172091,0.171764,2.32151,9,0.0133288,10,0.000398752,-2.63423,-0.148222,-0.398052,-36.2329,0.171764,
2,1,0,1,0,16915.6,0.179582,0.17927,2.12496,9,0.0137466,10,0.000380943,-2.67265,-0.218654,-0.269833,-22.3346,0.17927,
2,1,0,1,0,16915.7,0.187074,0.186794,1.99529,9,0.0141345,10,0.000372709,-2.69999,-0.392722,-0.150233,-11.7251,0.1867943,
2,1,0,1,0,16915.9,0.194563,0.194261,1.92367,9,0.0145038,10,0.000373694,-2.71587,-0.55735,-0.105858,-7.93298,0.194261,
2,1,0,1,0,16916.1,0.202059,0.201725,1.86786,9,0.0148615,10,0.000376793,-2.72866,-0.707154,-0.083433,-6.06889,0.201725,
2,1,0,1,0,16916.3,0.209546,0.209283,1.82777,9,0.0152109,10,0.000382521,-2.73808,-0.635895,-0.0927826,-6.64699,0.209283,
2,1,0,1,0,16916.5,0.217035,0.216734,1.7968,9,0.0155537,10,0.000389429,-2.7455,-1.61924,-0.0364368,-2.56128,0.216734,
2,1,0,1,0,16916.7,0.22453,0.224222,1.77451,9,0.0158921,10,0.000397885,-2.75092,-1.25571,-0.0469852,-3.25814,0.224222,
2,1,0,1,0,16916.9,0.232019,0.231704,1.75579,9,0.0162263,10,0.000406824,-2.75553,-2.27609,-0.0259217,-1.78129,0.2317035,
2,1,0,1,0,16917,0.23951,0.239243,1.74093,9,0.0165571,10,0.000416504,-2.75922,-1.23625,-0.047725,-3.23022,0.239243,
2,1,0,1,0,16917.2,0.247003,0.246721,1.7263,9,0.0168847,10,0.000425915,-2.76288,-1.34507,-0.043864,-2.94726,0.246721,
2,1,0,1,0,16917.4,0.25449,0.25419,1.70458,9,0.0172091,10,0.000433289,-2.76838,-1.29192,-0.0456686,-3.04727,0.25419,
2,1,0,1,0,16917.6,0.261983,0.261653,1.69716,9,0.0175308,10,0.000444066,-2.77028,-1.66185,-0.0355026,-2.3403,0.261653,
2,1,0,1,0,16917.8,0.269474,0.269203,1.67417,9,0.0178496,10,0.000450694,-2.7762,-1.65672,-0.0356124,-2.33255,0.269203,
2,1,0,1,0,16918,0.276963,0.276663,1.6615,9,0.0181655,10,0.000459676,-2.7795,-2.0583,-0.0286644,-1.86109,0.276663,
2,1,0,1,0,16918.2,0.284458,0.284131,1.6497,9,0.0184787,10,0.000468731,-2.7826,-1.93018,-0.030567,-1.95901,0.284131,
2,1,0,1,0,16918.4,0.291947,0.291635,1.62665,9,0.0187884,10,0.000474387,-2.78871,-1.11945,-0.0527044,-3.35176,0.291635,
2,1,0,1,0,16918.5,0.299434,0.299142,1.60955,9,0.0190949,10,0.000481484,-2.7933,-0.0111739,-5.28016,-268.197,0.299142,
2,0,0,1,0,16918.7,0.294196,0.293918,-0.4453,9,0.0191092,10,-0.000130882,-3.35135,-0.020726,-2.84667,46.2891,0.293918,
2,0,0,1,0,16918.9,0.286701,0.286355,-0.643986,9,0.0190002,10,-0.000184409,-3.19112,-0.0765805,-0.770431,19.5982,0.286355,
2,0,0,1,0,16919.1,0.279212,0.278886,-0.768702,9,0.0188633,10,-0.00021438,-3.11424,-0.15541,-0.379642,11.3303,0.278886,
2,0,0,1,0,16919.3,0.271725,0.271421,-0.855616,9,0.0187075,10,-0.000232232,-3.06772,-0.160094,-0.368533,12.2436,0.271421,
2,0,0,1,0,16919.5,0.264228,0.263917,-0.920542,9,0.0185367,10,-0.000242947,-3.03596,-0.246618,-0.239236,8.65824,0.263917,
2,0,0,1,0,16919.6,0.256741,0.256418,-0.994657,9,0.0183537,10,-0.000255048,-3.00233,-0.318737,-0.185105,7.09705,0.256418,
2,0,0,1,0,16919.8,0.249248,0.248932,-1.04424,9,0.0181596,10,-0.000259944,-2.9812,-0.36595,-0.161224,6.56203,0.248932,
2,0,0,1,0,16920,0.241756,0.241475,-1.09006,9,0.0179556,10,-0.000263223,-2.96255,-0.413545,-0.142669,6.11349,0.241475,
2,0,0,1,0,16920.2,0.234268,0.233987,-1.14629,9,0.0177425,10,-0.000268217,-2.9407,-0.392569,-0.150292,6.69683,0.233987,
2,0,0,1,0,16920.4,0.226772,0.226492,-1.18834,9,0.0175204,10,-0.000269149,-2.92506,-0.388504,-0.151865,7.04933,0.2264922,
2,0,0,1,0,16920.6,0.219284,0.219001,-1.23472,9,0.0172898,10,-0.000270404,-2.90843,-0.448623,-0.131514,6.34454,0.219001,
2,0,0,1,0,16920.8,0.211796,0.211521,-1.28487,9,0.0170507,10,-0.000271776,-2.89114,-0.662146,-0.0891043,4.44233,0.211521,
2,0,0,1,0,16921,0.204301,0.203998,-1.33167,9,0.0168023,10,-0.000271658,-2.8756,-0.725054,-0.0813732,4.23144,0.203998,
2,0,0,1,0,16921.1,0.196812,0.196488,-1.37747,9,0.0165453,10,-0.000270656,-2.86092,-0.449898,-0.131141,7.05823,0.1964881,
2,0,0,1,0,16921.3,0.189321,0.189008,-1.43434,9,0.0162781,10,-0.000271102,-2.84335,-0.410644,-0.143677,8.04895,0.189008,
2,0,0,1,0,16921.5,0.181828,0.181505,-1.49915,9,0.0159994,10,-0.000272102,-2.82416,-0.318262,-0.185382,10.8989,0.181505,
2,0,0,1,0,16921.7,0.174341,0.174013,-1.58952,9,0.0157067,10,-0.000276598,-2.79873,-0.298094,-0.197924,12.2692,0.174013,
2,0,0,1,0,16921.9,0.166848,0.166518,-1.70714,9,0.0153955,10,-0.00028427,-2.76773,-0.230431,-0.256042,16.973,0.166518,
2,0,0,1,0,16922.1,0.159357,0.159052,-1.86671,9,0.0150585,10,-0.000296904,-2.72892,-0.162631,-0.362785,26.5359,0.159052,
2,0,0,1,0,16922.3,0.151868,0.151558,-2.12955,9,0.0146826,10,-0.00032275,-2.67171,-0.11249,-0.524492,43.7163,0.1515581,
2,0,0,1,0,16922.5,0.144373,0.144063,-2.56016,9,0.0142427,10,-0.000368823,-2.59173,-0.080047,-0.737067,73.8391,0.144063,
2,0,0,1,0,16922.6,0.136884,0.136545,-3.1968,9,0.0137019,10,-0.000436509,-2.49528,-0.0780299,-0.75612,94.4507,0.136545,
2,0,0,1,0,16922.8,0.129393,0.129083,-3.88918,9,0.0130332,10,-0.000502026,-2.41014,-0.101523,-0.581151,87.9974,0.129083,
2,0,0,1,0,16923,0.1219,0.121549,-4.42736,9,0.0122477,10,-0.00053814,-2.35386,-0.182842,-0.322682,55.5382,0.121549,
2,0,0,1,0,16923.2,0.114413,0.114043,-4.71466,9,0.0113843,10,-0.000537677,-2.32655,-0.473536,-0.124595,22.9313,0.114043,
2,0,0,1,0,16923.4,0.10692,0.106607,-4.7803,9,0.0104879,10,-0.000509615,-2.32054,1.8175,0.0324621,-6.04,0.106607,
2,0,0,1,0,16923.6,0.0994284,0.0991245,-4.63931,9,0.00959937,10,-0.00045987,-2.33355,0.394791,0.149446,-27.055,0.0991245,
2,0,0,1,0,16923.8,0.0919401,0.0916282,-4.38524,9,0.00874989,10,-0.000401811,-2.35801,0.303431,0.194443,-33.3216,0.0916282,
2,0,0,1,0,16923.9,0.0844447,0.0841488,-4.15833,9,0.00794695,10,-0.000349919,-2.38108,0.387667,0.152193,-24.6512,0.0841488,
2,0,0,1,0,16924.1,0.0769565,0.0766145,-3.98545,9,0.00718248,10,-0.000305343,-2.39952,0.444221,0.132817,-20.683,0.0766145,
2,0,0,1,0,16924.3,0.0694682,0.0691286,-3.8677,9,0.006444,10,-0.000267369,-2.41255,0.667595,0.0883769,-13.3431,0.0691286,
2,0,0,1,0,16924.5,0.0619728,0.0616113,-3.76113,9,0.00572538,10,-0.000231728,-2.42468,0.572576,0.103043,-15.121,0.0616113,
2,0,0,1,0,16924.7,0.0544836,0.0541668,-3.64442,9,0.00502812,10,-0.000197406,-2.43837,0.588222,0.100302,-14.2918,0.0541668,
2,0,0,1,0,16924.9,0.0469927,0.0466725,-3.53214,9,0.00435174,10,-0.000164854,-2.45196,0.508619,0.116,-15.9697,0.0466725,
2,0,0,1,0,16925.1,0.0394999,0.0391704,-3.40689,9,0.00369875,10,-0.000133449,-2.46764,0.422336,0.139699,-18.5155,0.0391704,
2,0,0,1,0,16925.3,0.0320125,0.0317061,-3.25056,9,0.00307189,10,-0.000103062,-2.48804,0.348997,0.169056,-21.5057,0.0317061,
2,0,0,1,0,16925.4,0.0245198,0.0241957,-3.10424,9,0.00247238,10,-7.51091e-05,-2.50805,0.357377,0.165092,-20.0292,0.02419568,
2,0,0,1,0,16925.6,0.0170289,0.0166868,-2.97858,9,0.00189922,10,-4.97029e-05,-2.52599,0.439608,0.134211,-15.617,0.01668676,
2,0,0,1,0,16925.8,0.0095397,0.00921578,-2.87573,9,0.00134761,10,-2.65021e-05,-2.54125,0.821896,0.0717853,-8.08206,0.00921578,
2,0,0,1,0,16926,0.00204518,0.00167424,-2.87135,9,0.000809889,10,-4.80733e-06,-2.54191,3.06632,0.0192413,-2.1231,0.00167424,
2,0,0,1,0,16926.1,0.000177222,-0.000223779,-2.82307,9,0.000676203,10,6.31745e-07,-2.54928, , , ,-0.000223779,

File: 20221101_1-115_003_TrumpetPlot_ParaChange_from10_every3_06_CV_C01_9.csv
mode,ox/red,error,control changes,counter inc.,time/s,control/V,Ewe/V,<I>/mA,cycle number,(Q-Qo)/C,I Range,P/W,log(|I|),Tafel slope mV/dec,alpha_eff,dI/d(E-IR),E-IR/V,
2,0,0,0,0,18881.2,2.44065e-05,-0.000382585,-1.44969,10,0.0000000E+000,10,5.5463e-07,-2.83872, , , ,-0.000382585,
2,1,0,1,0,18881.4,0.00729063,0.00695155,1.27541,10,0.000102766,10,8.8661e-06,-2.89435,0.0329472,1.79075,86.5349,0.00695155,
2,1,0,1,0,18881.6,0.014778,0.0144116,1.64368,10,0.000384673,10,2.36882e-05,-2.78418,0.110044,0.536151,34.2719,0.01441162,
2,1,0,1,0,18881.7,0.0222743,0.0219441,1.85876,10,0.000716735,10,4.07889e-05,-2.73078,0.155942,0.378345,27.4001,0.0219441,
2,1,0,1,0,18881.9,0.0297626,0.0295017,2.04587,10,0.00108536,10,6.03565e-05,-2.68912,0.206382,0.285878,22.819,0.0295017,
2,1,0,1,0,18882.1,0.0372544,0.0369246,2.23124,10,0.00148875,10,8.23877e-05,-2.65145,0.221219,0.266704,23.2005,0.0369246,
2,1,0,1,0,18882.3,0.0447472,0.0443777,2.40835,10,0.00192667,10,0.000106877,-2.61828,0.228574,0.258122,24.2849,0.0443777,
2,1,0,1,0,18882.5,0.0522345,0.0518686,2.58169,10,0.00239728,10,0.000133909,-2.5881,0.251049,0.235014,23.6844,0.0518686,
2,1,0,1,0,18882.7,0.0597309,0.0593982,2.74619,10,0.00289985,10,0.000163119,-2.56127,0.286219,0.206136,22.0416,0.0593982,
2,1,0,1,0,18882.9,0.0672182,0.0669109,2.89571,10,0.00343084,10,0.000193755,-2.53825,0.330953,0.178273,20.1171,0.0669109,
2,1,0,1,0,18883.1,0.0747074,0.0744089,3.02416,10,0.00398773,10,0.000225024,-2.5194,0.482474,0.122286,14.4169,0.0744089,
2,1,0,1,0,18883.2,0.0822019,0.081909,3.14105,10,0.00456804,10,0.00025728,-2.50292,0.561666,0.105045,12.8391,0.081909,
2,1,0,1,0,18883.4,0.0896911,0.0894072,3.24901,10,0.00516844,10,0.000290485,-2.48825,0.429293,0.137435,17.4956,0.08940722,
2,1,0,1,0,18883.6,0.097182,0.0968469,3.42124,10,0.00579544,10,0.000331336,-2.46582,0.264828,0.222786,29.7405,0.0968469,
2,1,0,1,0,18883.8,0.104675,0.104372,3.68047,10,0.00646162,10,0.000384138,-2.4341,0.200631,0.294073,42.2124,0.104372,
2,1,0,1,0,18884,0.112162,0.111855,3.98303,10,0.0071822,10,0.000445523,-2.39979,0.236561,0.249407,38.7961,0.111855,
2,1,0,1,0,18884.2,0.119655,0.119366,4.24771,10,0.00795753,10,0.000507033,-2.37185,0.37883,0.155743,25.7611,0.119366,
2,1,0,1,0,18884.4,0.127146,0.12683,4.40844,10,0.00877266,10,0.000559124,-2.35571,0.519721,0.113522,19.5626,0.12683,
2,1,0,1,0,18884.6,0.134635,0.134279,4.54548,10,0.00961575,10,0.000610364,-2.34242,0.769511,0.0766721,13.624,0.134279,
2,1,0,1,0,18884.7,0.14213,0.141802,4.5632,10,0.0104767,10,0.00064707,-2.34073,-0.568673,-0.10375,-18.3839,0.141802,
2,1,0,1,0,18884.9,0.149619,0.149325,4.16035,10,0.0113039,10,0.000621245,-2.38087,-0.113746,-0.518697,-83.903,0.149325,
2,1,0,1,0,18885.1,0.157106,0.156826,3.40725,10,0.0120171,10,0.000534343,-2.4676,-0.0782844,-0.753663,-100.291,0.156826,
2,1,0,1,0,18885.3,0.164602,0.16426,2.78307,10,0.0125956,10,0.000457146,-2.55548,-0.0957008,-0.616505,-66.9788,0.16426,
2,1,0,1,0,18885.5,0.172091,0.171782,2.39195,10,0.0130799,10,0.000410895,-2.62125,-0.141216,-0.417798,-39.2165,0.1717823,
2,1,0,1,0,18885.7,0.179582,0.17925,2.1734,10,0.013509,10,0.000389581,-2.66286,-0.212967,-0.277038,-23.5137,0.17925,
2,1,0,1,0,18885.9,0.187074,0.186762,2.03677,10,0.0139049,10,0.000380391,-2.69106,-0.353234,-0.167028,-13.2712,0.186762,
2,1,0,1,0,18886.1,0.194563,0.194243,1.94941,10,0.0142802,10,0.00037866,-2.7101,-0.503775,-0.117116,-8.92376,0.194243,
2,1,0,1,0,18886.2,0.202059,0.20176,1.89455,10,0.0146426,10,0.000382243,-2.72249,-0.626284,-0.0942065,-6.92968,0.20176,
2,1,0,1,0,18886.4,0.209546,0.209218,1.84995,10,0.0149958,10,0.000387044,-2.73284,-0.624763,-0.0944359,-6.81812,0.209218,
2,1,0,1,0,18886.6,0.217035,0.216758,1.81233,10,0.0153417,10,0.000392838,-2.74176,-1.07184,-0.0550456,-3.90531,0.216758,
2,1,0,1,0,18886.8,0.22453,0.22424,1.79272,10,0.0156826,10,0.000401999,-2.74649,-1.09664,-0.0538007,-3.75337,0.22424,
2,1,0,1,0,18887,0.232019,0.231722,1.76765,10,0.0160186,10,0.000409603,-2.7526,-1.8881,-0.0312484,-2.16151,0.231722,
2,1,0,1,0,18887.2,0.23951,0.239198,1.7495,10,0.0163511,10,0.000418476,-2.75709,-1.28326,-0.0459768,-3.14064,0.239198,
2,1,0,1,0,18887.4,0.247003,0.246677,1.73348,10,0.0166801,10,0.00042761,-2.76108,-1.45819,-0.0404611,-2.72911,0.2466775,
2,1,0,1,0,18887.6,0.25449,0.254191,1.7116,10,0.0170058,10,0.000435072,-2.7666,-1.05898,-0.0557142,-3.7307,0.254191,
2,1,0,1,0,18887.7,0.261983,0.261708,1.6996,10,0.0173285,10,0.000444797,-2.76965,-1.94426,-0.0303457,-2.01117,0.261708,
2,1,0,1,0,18887.9,0.269474,0.269187,1.68535,10,0.0176483,10,0.000453673,-2.77331,-2.63031,-0.0224308,-1.47313,0.269187,
2,1,0,1,0,18888.1,0.276963,0.276709,1.66491,10,0.017965,10,0.000460696,-2.77861,-1.82509,-0.0323271,-2.10829,0.276709,
2,1,0,1,0,18888.3,0.284458,0.284124,1.65422,10,0.018279,10,0.000470005,-2.78141,-3.3869,-0.0174201,-1.12025,0.284124,
2,1,0,1,0,18888.5,0.291947,0.291697,1.63511,10,0.0185895,10,0.000476956,-2.78645,-0.846565,-0.0696934,-4.44543,0.291697,
2,1,0,1,0,18888.7,0.299434,0.299168,1.61336,10,0.0188968,10,0.000482665,-2.79227,-0.0132882,-4.44003,-234.058,0.299168,
2,0,0,1,0,18888.8,0.294196,0.293834,-0.38825,10,0.0189255,10,-0.000114081,-3.41089,-0.0137791,-4.28185,56.5166,0.293834,
2,0,0,1,0,18889,0.286701,0.286369,-0.614754,10,0.0188251,10,-0.000176046,-3.2113,-0.0691657,-0.853024,20.4834,0.286369,
2,0,0,1,0,18889.2,0.279212,0.278912,-0.747394,10,0.0186933,10,-0.000208457,-3.12645,-0.127728,-0.461919,13.4034,0.278912,
2,0,0,1,0,18889.4,0.271725,0.271419,-0.837785,10,0.0185416,10,-0.000227391,-3.07687,-0.138014,-0.427494,13.9211,0.271419,
2,0,0,1,0,18889.6,0.264228,0.26388,-0.909946,10,0.018374,10,-0.000240117,-3.04098,-0.226739,-0.260211,9.26562,0.2638801,
2,0,0,1,0,18889.8,0.256741,0.25643,-0.977039,10,0.0181939,10,-0.000250542,-3.01009,-0.284231,-0.207577,7.87763,0.25643,
2,0,0,1,0,18890,0.249248,0.248898,-1.03284,10,0.0180024,10,-0.000257071,-2.98597,-0.39925,-0.147777,5.96614,0.248898,
2,0,0,1,0,18890.1,0.241756,0.241444,-1.08074,10,0.0178006,10,-0.000260939,-2.96628,-0.385588,-0.153013,6.47655,0.241444,
2,0,0,1,0,18890.3,0.234268,0.233948,-1.13419,10,0.0175898,10,-0.000265342,-2.94531,-0.417806,-0.141214,6.22619,0.233948,
2,0,0,1,0,18890.5,0.226772,0.22647,-1.17865,10,0.0173698,10,-0.00026693,-2.92861,-0.33193,-0.177748,8.20274,0.22647,
2,0,0,1,0,18890.7,0.219284,0.218988,-1.22931,10,0.0171413,10,-0.000269204,-2.91034,-0.40815,-0.144555,6.91892,0.218988,
2,0,0,1,0,18890.9,0.211796,0.211501,-1.27343,10,0.0169042,10,-0.000269333,-2.89502,-0.51871,-0.113744,5.63602,0.211501,
2,0,0,1,0,18891.1,0.204301,0.203953,-1.31783,10,0.016658,10,-0.000268775,-2.88014,-0.629229,-0.0937656,4.8442,0.203953,
2,0,0,1,0,18891.3,0.196812,0.196527,-1.3642,10,0.0164033,10,-0.000268101,-2.86512,-0.513145,-0.114977,6.13544,0.196527,
2,0,0,1,0,18891.5,0.189321,0.189003,-1.42247,10,0.0161385,10,-0.000268851,-2.84696,-0.470094,-0.125507,6.97945,0.189003,
2,0,0,1,0,18891.6,0.181828,0.18151,-1.48707,10,0.0158626,10,-0.000269919,-2.82767,-0.322577,-0.182902,10.6317,0.18151,
2,0,0,1,0,18891.8,0.174341,0.174023,-1.5708,10,0.0155735,10,-0.000273355,-2.80388,-0.291059,-0.202708,12.388,0.174023,
2,0,0,1,0,18892,0.166848,0.166541,-1.67327,10,0.015267,10,-0.000278668,-2.77643,-0.243506,-0.242294,15.8294,0.166541,
2,0,0,1,0,18892.2,0.159357,0.159039,-1.82816,10,0.0149369,10,-0.00029075,-2.73798,-0.178762,-0.330048,23.554,0.159039,
2,0,0,1,0,18892.4,0.151868,0.151546,-2.06206,10,0.0145714,10,-0.000312497,-2.6857,-0.123516,-0.477672,38.5162,0.151546,
2,0,0,1,0,18892.6,0.144373,0.144043,-2.44803,10,0.014148,10,-0.000352621,-2.61118,-0.0850746,-0.693509,66.6112,0.144043,
2,0,0,1,0,18892.8,0.136884,0.136524,-3.03368,10,0.0136333,10,-0.00041417,-2.51803,-0.080734,-0.730795,86.5228,0.136524,
2,0,0,1,0,18893,0.129393,0.129089,-3.68254,10,0.0130001,10,-0.000475375,-2.43385,-0.0995965,-0.592391,85.0599,0.129089,
2,0,0,1,0,18893.1,0.1219,0.121554,-4.21954,10,0.0122531,10,-0.000512902,-2.37473,-0.170866,-0.3453,56.7729,0.121554,
2,0,0,1,0,18893.3,0.114413,0.114079,-4.54931,10,0.0114252,10,-0.00051898,-2.34205,-0.37522,-0.157241,27.8816,0.114079,
2,0,0,1,0,18893.5,0.10692,0.106621,-4.66376,10,0.0105559,10,-0.000497252,-2.33126,-4.62956,-0.0127442,2.31479,0.106621,
2,0,0,1,0,18893.7,0.0994284,0.0990857,-4.5805,10,0.00968348,10,-0.000453862,-2.33909,0.520178,0.113423,-20.2987,0.0990857,
2,0,0,1,0,18893.9,0.0919401,0.091634,-4.38322,10,0.00884007,10,-0.000401652,-2.35821,0.34207,0.172479,-29.469,0.091634,
2,0,0,1,0,18894.1,0.0844447,0.0841529,-4.16479,10,0.00803675,10,-0.000350479,-2.38041,0.386846,0.152516,-24.7942,0.0841529,
2,0,0,1,0,18894.3,0.0769565,0.0766223,-4.00468,10,0.00726988,10,-0.000306848,-2.39743,0.515374,0.11448,-17.8908,0.0766223,
2,0,0,1,0,18894.5,0.0694682,0.0691394,-3.88916,10,0.00652844,10,-0.000268894,-2.41014,0.612293,0.096359,-14.6013,0.0691394,
2,0,0,1,0,18894.6,0.0619728,0.0616372,-3.77543,10,0.00580681,10,-0.000232707,-2.42303,0.578501,0.101988,-15.0554,0.0616372,
2,0,0,1,0,18894.8,0.0544836,0.0541671,-3.66947,10,0.00510609,10,-0.000198765,-2.4354,0.597859,0.0986854,-14.1356,0.0541671,
2,0,0,1,0,18895,0.0469927,0.0466934,-3.5584,10,0.00442574,10,-0.000166154,-2.44875,0.501359,0.11768,-16.316,0.0466934,
2,0,0,1,0,18895.2,0.0394999,0.0391689,-3.4282,10,0.00376816,10,-0.000134279,-2.46493,0.441609,0.133602,-17.8774,0.0391689,
2,0,0,1,0,18895.4,0.0320125,0.0316925,-3.28858,10,0.00313603,10,-0.000104223,-2.48299,0.375536,0.157109,-20.1457,0.0316925,
2,0,0,1,0,18895.6,0.0245198,0.0242086,-3.13968,10,0.00253079,10,-7.60071e-05,-2.50311,0.353693,0.166811,-20.454,0.0242086,
2,0,0,1,0,18895.8,0.0170289,0.0167278,-3.0065,10,0.00195191,10,-5.02922e-05,-2.52194,0.414762,0.14225,-16.7279,0.0167278,
2,0,0,1,0,18896,0.0095397,0.00926179,-2.90732,10,0.00139557,10,-2.6927e-05,-2.53651,0.658248,0.0896318,-10.1513,0.00926179,
2,0,0,1,0,18896.1,0.00204518,0.00170253,-2.87906,10,0.000854482,10,-4.90169e-06,-2.54075,2.70601,0.0218033,-2.42255,0.00170253,
2,0,0,1,0,18896.2,0.000177222,-0.000191712,-2.84221,10,0.000720208,10,5.44887e-07,-2.54634, , , ,-0.0001917123,