Folder: Figs_alphaMnO2_OER_Tafel_sleope/Figure_codes/Fig_3-5/rawdata_trumpetplot_data/after 10th (part 83)

File: 20221101_1-115_003_TrumpetPlot_ParaChange_from10_every3_06_CV_C01_27.csv
mode,ox/red,error,control changes,counter inc.,time/s,control/V,Ewe/V,<I>/mA,cycle number,(Q-Qo)/C,I Range,P/W,log(|I|),Tafel slope mV/dec,alpha_eff,dI/d(E-IR),E-IR/V,
2,0,0,0,0,54343.5,2.44065e-05,-0.000382585,-1.39563,28,0.0000000E+000,10,5.33947e-07,-2.85523, , , ,-0.000382585,
2,1,0,1,0,54343.7,0.00729063,0.00696024,1.03548,28,5.79104e-05,10,7.20717e-06,-2.98486,0.0224887,2.62354,100.377,0.00696024,
2,1,0,1,0,54343.9,0.014778,0.0144036,1.46353,28,0.000301835,10,2.10801e-05,-2.8346,0.0922894,0.639294,36.3127,0.01440361,
2,1,0,1,0,54344.1,0.0222743,0.0219259,1.67367,28,0.000600506,10,3.66966e-05,-2.77633,0.1539,0.383366,25.0635,0.0219259,
2,1,0,1,0,54344.3,0.0297626,0.0294049,1.84858,28,0.00093365,10,5.43573e-05,-2.73316,0.191686,0.307794,22.1505,0.0294049,
2,1,0,1,0,54344.5,0.0372544,0.0369006,2.01228,28,0.00129825,10,7.42545e-05,-2.69631,0.227445,0.259404,20.3578,0.0369006,
2,1,0,1,0,54344.7,0.0447472,0.0443986,2.17009,28,0.00169337,10,9.6349e-05,-2.66352,0.237022,0.248922,21.1478,0.0443986,
2,1,0,1,0,54344.8,0.0522345,0.0518597,2.33365,28,0.0021183,10,0.000121022,-2.63197,0.245908,0.239927,21.8143,0.05185974,
2,1,0,1,0,54345,0.0597308,0.0593685,2.47735,28,0.00257251,10,0.000147077,-2.60601,0.297827,0.198101,19.186,0.0593685,
2,1,0,1,0,54345.2,0.0672182,0.0668567,2.61704,28,0.0030526,10,0.000174967,-2.58219,0.34124,0.172899,17.6426,0.0668567,
2,1,0,1,0,54345.4,0.0747074,0.0743531,2.73766,28,0.00355654,10,0.000203553,-2.56262,0.444857,0.132627,14.1324,0.0743531,
2,1,0,1,0,54345.6,0.0822019,0.0818846,2.82359,28,0.0040812,10,0.000231209,-2.5492,0.59205,0.0996538,11.0081,0.0818846,
2,1,0,1,0,54345.8,0.0896911,0.0893529,2.92711,28,0.00462287,10,0.000261545,-2.53356,0.485012,0.121647,13.9027,0.0893529,
2,1,0,1,0,54346,0.097182,0.0968233,3.05659,28,0.00518537,10,0.000295949,-2.51476,0.294596,0.200274,23.8962,0.0968233,
2,1,0,1,0,54346.2,0.104675,0.104329,3.27166,28,0.00577959,10,0.000341328,-2.48523,0.215948,0.273214,34.9006,0.104329,
2,1,0,1,0,54346.3,0.112162,0.11183,3.53863,28,0.00641941,10,0.000395727,-2.45116,0.227952,0.258827,35.6719,0.11183,
2,1,0,1,0,54346.5,0.119655,0.119317,3.77799,28,0.00710856,10,0.000450779,-2.42274,0.349389,0.168866,24.8643,0.119317,
2,1,0,1,0,54346.7,0.127146,0.126744,3.91475,28,0.00783408,10,0.000496172,-2.4073,0.639189,0.0923045,14.1379,0.1267444,
2,1,0,1,0,54346.9,0.134635,0.134287,4.00185,28,0.00857927,10,0.000537395,-2.39774,2.42059,0.0243743,3.79879,0.134287,
2,1,0,1,0,54347.1,0.14213,0.14181,3.95657,28,0.00933076,10,0.000561081,-2.40268,-0.467973,-0.126076,-19.4293,0.14181,
2,1,0,1,0,54347.3,0.149619,0.149257,3.62882,28,0.0100494,10,0.000541625,-2.44023,-0.12673,-0.465555,-65.7434,0.149257,
2,1,0,1,0,54347.5,0.157106,0.156783,3.04407,28,0.0106781,10,0.000477258,-2.51655,-0.0910907,-0.647706,-76.8533,0.1567829,
2,1,0,1,0,54347.7,0.164602,0.164296,2.52917,28,0.0112005,10,0.000415531,-2.59702,-0.106415,-0.554431,-54.9145,0.164296,
2,1,0,1,0,54347.8,0.172091,0.171757,2.20236,28,0.0116442,10,0.000378271,-2.65711,-0.150257,-0.39266,-33.8116,0.171757,
2,1,0,1,0,54348,0.179582,0.17923,2.01005,28,0.01204,10,0.00036026,-2.69679,-0.241532,-0.244274,-19.195,0.17923,
2,1,0,1,0,54348.2,0.187074,0.186692,1.89399,28,0.0124078,10,0.000353593,-2.72262,-0.382102,-0.154409,-11.4271,0.186692,
2,1,0,1,0,54348.4,0.194563,0.194141,1.82843,28,0.0127584,10,0.000354973,-2.73792,-0.53823,-0.109618,-7.79143,0.194141,
2,1,0,1,0,54348.6,0.202059,0.201735,1.77841,28,0.0130985,10,0.000358768,-2.74997,-0.719509,-0.0820004,-5.68476,0.201735,
2,1,0,1,0,54348.8,0.209546,0.209197,1.74495,28,0.0134313,10,0.000365039,-2.75822,-0.708469,-0.0832782,-5.68433,0.209197,
2,1,0,1,0,54349,0.217035,0.216675,1.72019,28,0.0137586,10,0.000372723,-2.76442,-2.04247,-0.0288866,-1.93828,0.216675,
2,1,0,1,0,54349.2,0.22453,0.224171,1.69834,28,0.0140823,10,0.000380719,-2.76998,-1.88004,-0.0313823,-2.08596,0.224171,
2,1,0,1,0,54349.3,0.232019,0.231688,1.6892,28,0.0144022,10,0.000391368,-2.77232,-3.47923,-0.0169578,-1.11638,0.231688,
2,1,0,1,0,54349.5,0.23951,0.239203,1.67689,28,0.0147197,10,0.000401118,-2.77549,-2.17938,-0.027072,-1.76502,0.239203,
2,1,0,1,0,54349.7,0.247003,0.246671,1.65855,28,0.0150348,10,0.000409115,-2.78027,-3.47199,-0.0169931,-1.10213,0.2466709,
2,1,0,1,0,54349.9,0.25449,0.254157,1.6515,28,0.0153476,10,0.000419741,-2.78212,-2.18363,-0.0270192,-1.73815,0.254157,
2,1,0,1,0,54350.1,0.261983,0.261648,1.63977,28,0.0156585,10,0.000429044,-2.78522,-1.78075,-0.033132,-2.12126,0.261648,
2,1,0,1,0,54350.3,0.269474,0.269173,1.62713,28,0.0159673,10,0.000437979,-2.78858,-7.01511,-0.00841041,-0.535061,0.269173,
2,1,0,1,0,54350.5,0.276963,0.276619,1.62072,28,0.016274,10,0.000448322,-2.79029,-2.93548,-0.0200989,-1.26611,0.276619,
2,1,0,1,0,54350.6,0.284458,0.284107,1.60543,28,0.0165787,10,0.000456115,-2.79441,-9.12523,-0.00646559,-0.404845,0.284107,
2,1,0,1,0,54350.8,0.291947,0.29161,1.58994,28,0.0168808,10,0.000463641,-2.79862,-1.43309,-0.0411698,-2.55374,0.29161,
2,1,0,1,0,54351,0.299434,0.299146,1.58055,28,0.0171804,10,0.000472815,-2.80119,-0.0180268,-3.2729,-175.541,0.299146,
2,0,0,1,0,54351.2,0.294196,0.29387,-0.260892,28,0.0172339,10,-7.66684e-05,-3.58354,-0.00519867,-11.3491,78.3313,0.29387,
2,0,0,1,0,54351.4,0.286701,0.286315,-0.554092,28,0.0171489,10,-0.000158645,-3.25642,-0.0539041,-1.09454,23.4222,0.286315,
2,0,0,1,0,54351.6,0.279212,0.27885,-0.690826,28,0.0170279,10,-0.000192637,-3.16063,-0.111613,-0.528614,14.2444,0.27885,
2,0,0,1,0,54351.7,0.271725,0.271335,-0.7833,28,0.016886,10,-0.000212537,-3.10607,-0.154369,-0.3822,11.7126,0.271335,
2,0,0,1,0,54351.9,0.264228,0.263868,-0.864953,28,0.0167281,10,-0.000228234,-3.06301,-0.190325,-0.309996,10.384,0.263868,
2,0,0,1,0,54352.1,0.256741,0.256372,-0.921917,28,0.0165578,10,-0.000236353,-3.03531,-0.282842,-0.208597,7.51396,0.256372,
2,0,0,1,0,54352.3,0.249248,0.248856,-0.979565,28,0.0163762,10,-0.000243771,-3.00897,-0.378982,-0.15568,5.95711,0.248856,
2,0,0,1,0,54352.5,0.241756,0.241434,-1.03007,28,0.0161847,10,-0.000248695,-2.98713,-0.363026,-0.162523,6.53139,0.241434,
2,0,0,1,0,54352.7,0.234268,0.2339,-1.07198,28,0.0159841,10,-0.000250737,-2.96981,-0.414789,-0.142241,5.99405,0.2339,
2,0,0,1,0,54352.9,0.226772,0.226421,-1.12612,28,0.0157746,10,-0.000254976,-2.94842,-0.377322,-0.156365,6.83499,0.226421,
2,0,0,1,0,54353.1,0.219284,0.218948,-1.16891,28,0.0155571,10,-0.00025593,-2.93222,-0.495594,-0.119049,5.41446,0.218948,
2,0,0,1,0,54353.2,0.211796,0.211415,-1.20698,28,0.0153313,10,-0.000255174,-2.9183,-0.619606,-0.0952219,4.49461,0.211415,
2,0,0,1,0,54353.4,0.204301,0.203922,-1.25737,28,0.015097,10,-0.000256406,-2.90054,-0.722637,-0.0816455,3.99696,0.203922,
2,0,0,1,0,54353.6,0.196812,0.196415,-1.29492,28,0.014855,10,-0.000254342,-2.88776,-0.540395,-0.109179,5.53153,0.196415,
2,0,0,1,0,54353.8,0.189321,0.188974,-1.34422,28,0.014604,10,-0.000254022,-2.87153,-0.53226,-0.110848,5.83098,0.188974,
2,0,0,1,0,54354,0.181828,0.18146,-1.39935,28,0.0143437,10,-0.000253926,-2.85407,-0.405856,-0.145372,7.93076,0.18146,
2,0,0,1,0,54354.2,0.174341,0.173972,-1.45748,28,0.0140728,10,-0.000253561,-2.8364,-0.328632,-0.179532,10.2569,0.173972,
2,0,0,1,0,54354.4,0.166848,0.16647,-1.53814,28,0.0137891,10,-0.000256055,-2.813,-0.326845,-0.180513,10.8123,0.1664702,
2,0,0,1,0,54354.6,0.159357,0.158984,-1.63974,28,0.0134889,10,-0.000260692,-2.78523,-0.24702,-0.238847,15.273,0.158984,
2,0,0,1,0,54354.7,0.151868,0.151501,-1.78786,28,0.0131655,10,-0.000270863,-2.74767,-0.165341,-0.356838,25.0481,0.151501,
2,0,0,1,0,54354.9,0.144373,0.144043,-2.03811,28,0.0128055,10,-0.000293575,-2.69077,-0.110174,-0.535516,42.6501,0.144043,
2,0,0,1,0,54355.1,0.136884,0.136507,-2.43289,28,0.0123859,10,-0.000332106,-2.61388,-0.0928037,-0.63575,60.3456,0.136507,
2,0,0,1,0,54355.3,0.129393,0.129009,-2.91935,28,0.0118818,10,-0.000376623,-2.53471,-0.101532,-0.5811,66.2015,0.129009,
2,0,0,1,0,54355.5,0.1219,0.12151,-3.3873,28,0.0112865,10,-0.000411591,-2.47015,-0.144258,-0.408988,53.871,0.12151,
2,0,0,1,0,54355.7,0.114413,0.114042,-3.74937,28,0.0106132,10,-0.000427584,-2.42604,-0.211741,-0.278642,40.7636,0.114042,
2,0,0,1,0,54355.9,0.10692,0.106575,-3.96676,28,0.00988429,10,-0.000422758,-2.40156,-0.516646,-0.114198,17.6581,0.1065752,
2,0,0,1,0,54356.1,0.0994284,0.0990588,-4.013,28,0.0091305,10,-0.000397523,-2.39653,1.94885,0.0302742,-4.73504,0.0990588,
2,0,0,1,0,54356.2,0.0919401,0.0915614,-3.92235,28,0.00838311,10,-0.000359136,-2.40645,0.568449,0.103791,-15.886,0.0915614,
2,0,0,1,0,54356.4,0.0844447,0.0840953,-3.79837,28,0.00765645,10,-0.000319425,-2.4204,0.585253,0.100811,-14.9338,0.0840953,
2,0,0,1,0,54356.6,0.0769565,0.0766047,-3.69619,28,0.00695226,10,-0.000283146,-2.43225,0.713039,0.0827444,-11.9337,0.0766047,
2,0,0,1,0,54356.8,0.0694682,0.0691329,-3.61122,28,0.00626453,10,-0.000249654,-2.44235,0.780284,0.0756135,-10.6821,0.0691329,
2,0,0,1,0,54357,0.0619728,0.061642,-3.53805,28,0.00559061,10,-0.000218093,-2.45124,0.682871,0.0863999,-11.9173,0.061642,
2,0,0,1,0,54357.2,0.0544836,0.0541114,-3.44216,28,0.00493341,10,-0.00018626,-2.46317,0.814005,0.0724812,-9.75054,0.0541114,
2,0,0,1,0,54357.4,0.0469927,0.0466305,-3.34576,28,0.00429341,10,-0.000156014,-2.47551,0.543445,0.108567,-14.1907,0.0466305,
2,0,0,1,0,54357.6,0.0394999,0.0391244,-3.24668,28,0.00367274,10,-0.000127025,-2.48856,0.483407,0.12205,-15.4146,0.0391244,
2,0,0,1,0,54357.7,0.0320125,0.0316098,-3.11576,28,0.00307377,10,-9.84885e-05,-2.50644,0.465899,0.126637,-15.4364,0.0316098,
2,0,0,1,0,54357.9,0.0245198,0.0241513,-2.9998,28,0.0024972,10,-7.24491e-05,-2.52291,0.447793,0.131757,-15.4217,0.0241513,
2,0,0,1,0,54358.1,0.0170289,0.016662,-2.89203,28,0.00194245,10,-4.81872e-05,-2.5388,0.478317,0.123349,-13.9225,0.016662,
2,0,0,1,0,54358.3,0.0095397,0.00919209,-2.80438,28,0.00140612,10,-2.57781e-05,-2.55216,0.775637,0.0760665,-8.33504,0.00919209,
2,0,0,1,0,54358.5,0.00204518,0.0016601,-2.78897,28,0.000882002,10,-4.62996e-06,-2.55456,4.08613,0.0144391,-1.55447,0.0016601,
2,0,0,1,0,54358.5,0.000177222,-0.000240194,-2.75546,28,0.000751848,10,6.61845e-07,-2.55981, , , ,-0.0002401941,

File: 20221101_1-115_003_TrumpetPlot_ParaChange_from10_every3_06_CV_C01_28.csv
mode,ox/red,error,control changes,counter inc.,time/s,control/V,Ewe/V,<I>/mA,cycle number,(Q-Qo)/C,I Range,P/W,log(|I|),Tafel slope mV/dec,alpha_eff,dI/d(E-IR),E-IR/V,
2,0,0,0,0,56313.7,2.44065e-05,-0.000363498,-1.41153,29,0.0000000E+000,10,5.13088e-07,-2.85031, , , ,-0.000363498,
2,1,0,1,0,56313.9,0.00729063,0.0069512,0.918009,29,3.60726e-05,10,6.38127e-06,-3.03715,0.018569,3.17734,106.811,0.0069512,
2,1,0,1,0,56314,0.014778,0.0144097,1.37935,29,0.000261658,10,1.9876e-05,-2.86033,0.080495,0.732965,39.4211,0.0144097,
2,1,0,1,0,56314.2,0.0222743,0.0219298,1.61495,29,0.000546836,10,3.54156e-05,-2.79184,0.143221,0.411951,25.8699,0.0219298,
2,1,0,1,0,56314.4,0.0297626,0.0294124,1.78991,29,0.000868434,10,5.26454e-05,-2.74717,0.181216,0.325579,22.7477,0.0294124,
2,1,0,1,0,56314.6,0.0372544,0.0369125,1.95577,29,0.00122208,10,7.21922e-05,-2.70868,0.220173,0.267971,20.4538,0.0369125,
2,1,0,1,0,56314.8,0.0447472,0.0443419,2.11627,29,0.00160624,10,9.38393e-05,-2.67443,0.22354,0.263934,21.7976,0.0443419,
2,1,0,1,0,56315,0.0522345,0.0518942,2.26997,29,0.00201998,10,0.000117798,-2.64398,0.256626,0.229907,20.4227,0.0518942,
2,1,0,1,0,56315.2,0.0597309,0.0593914,2.42045,29,0.0024627,10,0.000143754,-2.6161,0.295381,0.199742,18.8586,0.0593914,
2,1,0,1,0,56315.3,0.0672182,0.0668818,2.55672,29,0.00293118,10,0.000170998,-2.59232,0.342723,0.17215,17.1427,0.0668818,
2,1,0,1,0,56315.5,0.0747074,0.0743284,2.67091,29,0.0034233,10,0.000198525,-2.57334,0.467156,0.126296,13.1789,0.0743284,
2,1,0,1,0,56315.7,0.0822019,0.0818417,2.77033,29,0.00393608,10,0.000226728,-2.55747,0.548244,0.107616,11.6262,0.0818417,
2,1,0,1,0,56315.9,0.0896911,0.0893169,2.86261,29,0.00446567,10,0.000255679,-2.54324,0.479788,0.122971,13.742,0.0893169,
2,1,0,1,0,56316.1,0.097182,0.0967889,2.98378,29,0.00501559,10,0.000288797,-2.52523,0.318522,0.18523,21.6141,0.0967889,
2,1,0,1,0,56316.3,0.104675,0.104296,3.18986,29,0.00559489,10,0.00033269,-2.49623,0.233081,0.253131,31.4589,0.104296,
2,1,0,1,0,56316.5,0.112162,0.111777,3.43816,29,0.00621723,10,0.000384306,-2.46367,0.239205,0.246651,33.0893,0.111777,
2,1,0,1,0,56316.7,0.119655,0.119312,3.67276,29,0.00688665,10,0.000438203,-2.43501,0.314519,0.187588,26.8747,0.1193118,
2,1,0,1,0,56316.8,0.127146,0.126776,3.82249,29,0.0075926,10,0.0004846,-2.41765,0.599746,0.0983749,14.6628,0.126776,
2,1,0,1,0,56317,0.134635,0.134282,3.9014,29,0.00831949,10,0.000523886,-2.40878,1.49821,0.0393803,6.00317,0.134282,
2,1,0,1,0,56317.2,0.14213,0.141798,3.88664,29,0.00905489,10,0.00055112,-2.41043,-0.616706,-0.0956696,-14.4786,0.1417985,
2,1,0,1,0,56317.4,0.149619,0.149208,3.60535,29,0.00976397,10,0.000537947,-2.44305,-0.139845,-0.421897,-59.1714,0.149208,
2,1,0,1,0,56317.6,0.157106,0.156786,3.0615,29,0.0103923,10,0.00048,-2.51407,-0.0952599,-0.619358,-73.9963,0.156786,
2,1,0,1,0,56317.8,0.164602,0.164288,2.55989,29,0.0109189,10,0.000420558,-2.59178,-0.104377,-0.565258,-56.489,0.164288,
2,1,0,1,0,56318,0.172091,0.171767,2.22678,29,0.011367,10,0.000382488,-2.65232,-0.145581,-0.405273,-35.3106,0.171767,
2,1,0,1,0,56318.2,0.179582,0.179277,2.02634,29,0.0117666,10,0.000363276,-2.69329,-0.227663,-0.259156,-20.5625,0.179277,
2,1,0,1,0,56318.3,0.187074,0.186711,1.91175,29,0.0121371,10,0.000356945,-2.71857,-0.38764,-0.152203,-11.3457,0.186711,
2,1,0,1,0,56318.5,0.194563,0.194191,1.83228,29,0.0124897,10,0.000355812,-2.73701,-0.513312,-0.11494,-8.24852,0.194191,
2,1,0,1,0,56318.7,0.202059,0.201701,1.78809,29,0.0128312,10,0.000360659,-2.74761,-0.655462,-0.0900128,-6.26347,0.201701,
2,1,0,1,0,56318.9,0.209546,0.209208,1.75321,29,0.0131648,10,0.000366787,-2.75616,-0.852037,-0.0692459,-4.73594,0.209208,
2,1,0,1,0,56319.1,0.217035,0.216693,1.71883,29,0.0134927,10,0.000372458,-2.76477,-1.25391,-0.047053,-3.17516,0.216693,
2,1,0,1,0,56319.3,0.22453,0.224178,1.7046,29,0.0138165,10,0.000382133,-2.76838,-1.23917,-0.0476124,-3.1621,0.224178,
2,1,0,1,0,56319.5,0.232019,0.231668,1.68879,29,0.0141364,10,0.000391238,-2.77242,-12.6104,-0.00467867,-0.307843,0.231668,
2,1,0,1,0,56319.7,0.23951,0.239179,1.67318,29,0.0144536,10,0.000400189,-2.77646,-3.53158,-0.0167064,-1.09135,0.239179,
2,1,0,1,0,56319.8,0.247003,0.246666,1.66239,29,0.0147682,10,0.000410055,-2.77927,-1.54207,-0.0382603,-2.4727,0.246666,
2,1,0,1,0,56320,0.25449,0.254144,1.64532,29,0.0150805,10,0.000418147,-2.78375,-2.52724,-0.0233456,-1.50331,0.254144,
2,1,0,1,0,56320.2,0.261983,0.261648,1.63712,29,0.0153908,10,0.000428349,-2.78592,-1.85172,-0.0318623,-2.03608,0.261648,
2,1,0,1,0,56320.4,0.269474,0.269122,1.6254,29,0.0156989,10,0.00043743,-2.78904,-5.03845,-0.01171,-0.742323,0.269122,
2,1,0,1,0,56320.6,0.276963,0.276631,1.61226,29,0.016005,10,0.000446002,-2.79256,-2.15697,-0.0273532,-1.72502,0.276631,
2,1,0,1,0,56320.8,0.284458,0.284147,1.60256,29,0.0163089,10,0.000455362,-2.79519,-6.02367,-0.00979469,-0.611853,0.284147,
2,1,0,1,0,56321,0.291947,0.291604,1.59003,29,0.0166102,10,0.000463659,-2.7986,-1.66839,-0.0353635,-2.19308,0.291604,
2,1,0,1,0,56321.2,0.299434,0.299103,1.57468,29,0.0169091,10,0.00047099,-2.80281,-0.0201462,-2.9286,-159.846,0.299103,
2,0,0,1,0,56321.3,0.294196,0.293843,-0.201097,29,0.0169733,10,-5.90908e-05,-3.6966,-0.00297232,-19.8498,83.8279,0.293843,
2,0,0,1,0,56321.5,0.286701,0.286345,-0.516756,29,0.0168976,10,-0.00014797,-3.28671,-0.0448689,-1.31494,26.2191,0.286345,
2,0,0,1,0,56321.7,0.279212,0.278913,-0.660209,29,0.0167832,10,-0.000184141,-3.18032,-0.103389,-0.57066,14.7275,0.278913,
2,0,0,1,0,56321.9,0.271725,0.271397,-0.759847,29,0.0166468,10,-0.00020622,-3.11927,-0.129897,-0.454204,13.4222,0.271397,
2,0,0,1,0,56322.1,0.264228,0.263908,-0.83742,29,0.0164939,10,-0.000221002,-3.07706,-0.194315,-0.303631,9.93186,0.263908,
2,0,0,1,0,56322.2,0.256741,0.256409,-0.903743,29,0.016328,10,-0.000231728,-3.04395,-0.263199,-0.224165,7.86875,0.256409,
2,0,0,1,0,56322.4,0.249248,0.248885,-0.958452,29,0.0161507,10,-0.000238544,-3.01843,-0.312822,-0.188605,7.07069,0.248885,
2,0,0,1,0,56322.6,0.241756,0.241444,-1.00711,29,0.0159632,10,-0.00024316,-2.99692,-0.413794,-0.142583,5.63203,0.2414435,
2,0,0,1,0,56322.8,0.234268,0.233897,-1.05766,29,0.0157667,10,-0.000247383,-2.97566,-0.394375,-0.149604,6.16849,0.233897,
2,0,0,1,0,56323,0.226772,0.2264,-1.10157,29,0.0155611,10,-0.000249394,-2.95799,-0.366854,-0.160827,6.9329,0.2264,
2,0,0,1,0,56323.2,0.219285,0.218966,-1.15089,29,0.0153473,10,-0.000252006,-2.93897,-0.502701,-0.117366,5.25625,0.218966,
2,0,0,1,0,56323.4,0.211796,0.211445,-1.19249,29,0.0151254,10,-0.000252147,-2.92354,-0.509328,-0.115839,5.36925,0.2114452,
2,0,0,1,0,56323.6,0.204301,0.203967,-1.23551,29,0.014895,10,-0.000252003,-2.90815,-0.800369,-0.073716,3.55921,0.203967,
2,0,0,1,0,56323.7,0.196812,0.196477,-1.27903,29,0.0146568,10,-0.000251301,-2.89312,-0.481436,-0.12255,6.10551,0.196477,
2,0,0,1,0,56323.9,0.189321,0.189004,-1.32233,29,0.0144099,10,-0.000249927,-2.87866,-0.470378,-0.125431,6.49182,0.189004,
2,0,0,1,0,56324.1,0.181828,0.18146,-1.37734,29,0.0141538,10,-0.000249932,-2.86096,-0.429014,-0.137525,7.39131,0.18146,
2,0,0,1,0,56324.3,0.174341,0.174014,-1.43749,29,0.0138876,10,-0.000250144,-2.84239,-0.399212,-0.147791,8.28251,0.174014,
2,0,0,1,0,56324.5,0.166848,0.166462,-1.51133,29,0.013609,10,-0.000251579,-2.82064,-0.382649,-0.154188,9.07717,0.166462,
2,0,0,1,0,56324.7,0.159357,0.158982,-1.60533,29,0.0133149,10,-0.000255217,-2.79444,-0.25088,-0.235172,14.7197,0.158982,
2,0,0,1,0,56324.9,0.151868,0.151517,-1.74144,29,0.0129993,10,-0.000263858,-2.75909,-0.180431,-0.326996,22.2867,0.151517,
2,0,0,1,0,56325.1,0.144373,0.144044,-1.96313,29,0.0126503,10,-0.000282778,-2.70705,-0.11729,-0.503026,38.7761,0.144044,
2,0,0,1,0,56325.2,0.136884,0.136519,-2.33139,29,0.0122472,10,-0.000318279,-2.63239,-0.0956084,-0.617101,56.019,0.136519,
2,0,0,1,0,56325.4,0.129393,0.129042,-2.78917,29,0.0117658,10,-0.000359919,-2.55452,-0.101691,-0.580191,63.0482,0.129042,
2,0,0,1,0,56325.6,0.1219,0.121572,-3.23467,29,0.0111975,10,-0.000393246,-2.49017,-0.135061,-0.43684,55.1181,0.121572,
2,0,0,1,0,56325.8,0.114413,0.114066,-3.60779,29,0.0105527,10,-0.000411525,-2.44276,-0.202252,-0.291716,40.96,0.114066,
2,0,0,1,0,56326,0.10692,0.106579,-3.83772,29,0.00985005,10,-0.000409022,-2.41593,-0.406747,-0.145053,21.7268,0.1065794,
2,0,0,1,0,56326.2,0.0994284,0.0990792,-3.92051,29,0.00911723,10,-0.000388441,-2.40666,-69.6303,-0.000847333,0.129581,0.0990792,
2,0,0,1,0,56326.4,0.0919401,0.0915813,-3.86562,29,0.00838406,10,-0.000354019,-2.41278,0.732767,0.0805167,-12.1297,0.0915813,
2,0,0,1,0,56326.6,0.0844447,0.0840447,-3.75244,29,0.00766689,10,-0.000315373,-2.42569,0.641991,0.0919016,-13.4775,0.08404471,
2,0,0,1,0,56326.7,0.0769565,0.0765817,-3.66526,29,0.00697004,10,-0.000280692,-2.43589,0.730734,0.0807407,-11.5345,0.0765817,
2,0,0,1,0,56326.9,0.0694682,0.0691223,-3.58836,29,0.00628839,10,-0.000248036,-2.4451,0.84405,0.0699011,-9.78461,0.0691223,
2,0,0,1,0,56327.1,0.0619728,0.0616117,-3.5134,29,0.00561946,10,-0.000216467,-2.45427,0.723008,0.0816036,-11.2029,0.06161166,
2,0,0,1,0,56327.3,0.0544836,0.054135,-3.43126,29,0.00496614,10,-0.000185751,-2.46455,0.648486,0.0909812,-12.1747,0.054135,
2,0,0,1,0,56327.5,0.0469927,0.046605,-3.33608,29,0.00432897,10,-0.000155478,-2.47676,0.601225,0.098133,-12.7887,0.046605,
2,0,0,1,0,56327.7,0.0394999,0.0391958,-3.23803,29,0.00370995,10,-0.000126917,-2.48972,0.520737,0.113301,-14.3033,0.0391958,
2,0,0,1,0,56327.9,0.0320125,0.0316308,-3.12321,29,0.0031115,10,-9.87894e-05,-2.5054,0.459341,0.128445,-15.6533,0.0316308,
2,0,0,1,0,56328.1,0.0245198,0.0242084,-3.00121,29,0.00253467,10,-7.26545e-05,-2.5227,0.454749,0.129742,-15.2329,0.0242084,
2,0,0,1,0,56328.2,0.0170289,0.0166661,-2.8995,29,0.00197922,10,-4.83235e-05,-2.53768,0.536908,0.109889,-12.4357,0.0166661,
2,0,0,1,0,56328.4,0.0095397,0.00916602,-2.81488,29,0.00144206,10,-2.58012e-05,-2.55054,0.670197,0.0880338,-9.66001,0.00916602,
2,0,0,1,0,56328.6,0.00204518,0.00165004,-2.77816,29,0.000917584,10,-4.58409e-06,-2.55624,2.25675,0.0261438,-2.82081,0.00165004,
2,0,0,1,0,56328.7,0.000177222,-0.000255846,-2.75913,29,0.000787604,10,7.05911e-07,-2.55923, , , ,-0.000255846,