Folder: Figs_alphaMnO2_OER_Tafel_sleope/Figure_codes/Fig_3-5/rawdata_trumpetplot_data/after 10th (part 138)

File: 20221101_1-115_003_TrumpetPlot_ParaChange_from10_every3_09_CV_C01_32.csv
mode,ox/red,error,control changes,counter inc.,time/s,control/V,Ewe/V,<I>/mA,cycle number,(Q-Qo)/C,I Range,P/W,log(|I|),Tafel slope mV/dec,alpha_eff,dI/d(E-IR),E-IR/V,
2,0,0,0,0,64226.7,2.44065e-05,-0.00042076,-5.22517,33,0.0000000E+000,10,2.19855e-06,-2.2819, , , ,-0.00042076,
2,1,0,1,0,64226.8,0.00978761,0.0094964,0.614689,33,-0.000148087,10,5.83733e-06,-3.21134,0.00217038,27.1841,285.68,0.0094964,
2,1,0,1,0,64226.9,0.0197755,0.0194425,2.4838,33,1.99119e-05,10,4.82913e-05,-2.60488,0.0456761,1.2917,124.097,0.0194425,
2,1,0,1,0,64227,0.0297635,0.0294153,3.43507,33,0.0003197,10,0.000101044,-2.46406,0.107514,0.548767,73.2752,0.0294153,
2,1,0,1,0,64227.1,0.0397514,0.0394103,4.07268,33,0.00069616,10,0.000160506,-2.39012,0.153738,0.38377,60.9581,0.0394103,
2,1,0,1,0,64227.2,0.0497484,0.0494236,4.61233,33,0.00113058,10,0.000227958,-2.33608,0.211541,0.278905,50.0907,0.0494236,
2,1,0,1,0,64227.3,0.0597273,0.0593729,5.0843,33,0.00161469,10,0.00030187,-2.29377,0.252146,0.233991,46.4123,0.0593729,
2,1,0,1,0,64227.4,0.0697152,0.0693633,5.51587,33,0.00214505,10,0.000382599,-2.25839,0.326513,0.180697,38.9242,0.0693633,
2,1,0,1,0,64227.5,0.0797031,0.0793868,5.90858,33,0.00271656,10,0.000469064,-2.22852,0.396332,0.148865,34.3136,0.0793868,
2,1,0,1,0,64227.6,0.0896911,0.0893581,6.23701,33,0.00332396,10,0.000557327,-2.20502,0.432027,0.136566,33.279,0.0893581,
2,1,0,1,0,64227.7,0.099679,0.0993337,6.58638,33,0.0039635,10,0.000654249,-2.18135,0.385131,0.153195,39.3477,0.0993337,
2,1,0,1,0,64227.8,0.109667,0.10934,7.06029,33,0.00464364,10,0.000771969,-2.15118,0.286389,0.206014,56.7757,0.10934,
2,1,0,1,0,64227.9,0.119655,0.119325,7.68335,33,0.00537993,10,0.000916818,-2.11445,0.29013,0.203357,60.9831,0.119325,
2,1,0,1,0,64228,0.129643,0.129299,8.25433,33,0.00617755,10,0.00106728,-2.08332,0.39482,0.149435,48.097,0.129299,
2,1,0,1,0,64228.1,0.139631,0.139304,8.61959,33,0.00702283,10,0.00120075,-2.06451,0.73328,0.0804604,27.0641,0.139304,
2,1,0,1,0,64228.2,0.149619,0.149284,8.70273,33,0.00789142,10,0.00129918,-2.06034,-1.06806,-0.0552402,-18.7168,0.149284,
2,1,0,1,0,64228.3,0.159607,0.159285,8.07772,33,0.00873671,10,0.00128666,-2.09271,-0.177502,-0.33239,-104.649,0.159285,
2,1,0,1,0,64228.4,0.169595,0.169301,6.8385,33,0.00948386,10,0.00115777,-2.16504,-0.122839,-0.480305,-128.12,0.169301,
2,1,0,1,0,64228.5,0.179582,0.179245,5.72236,33,0.0101082,10,0.0010257,-2.24243,-0.145918,-0.404337,-90.4656,0.179245,
2,1,0,1,0,64228.6,0.18957,0.189228,5.00502,33,0.0106416,10,0.000947092,-2.30059,-0.201429,-0.292908,-57.2141,0.189228,
2,1,0,1,0,64228.7,0.199558,0.199244,4.55198,33,0.0111171,10,0.000906954,-2.3418,-0.302537,-0.195017,-34.641,0.199244,
2,1,0,1,0,64228.8,0.209546,0.209214,4.26176,33,0.0115567,10,0.000891622,-2.37041,-0.394054,-0.149726,-24.9288,0.209214,
2,1,0,1,0,64228.9,0.219534,0.219198,4.06223,33,0.0119722,10,0.000890434,-2.39124,-0.567786,-0.103912,-16.4843,0.219198,
2,1,0,1,0,64229,0.229522,0.229223,3.92271,33,0.0123714,10,0.000899175,-2.40641,-0.764291,-0.0771957,-11.8288,0.229223,
2,1,0,1,0,64229.1,0.23951,0.239201,3.82756,33,0.0127591,10,0.000915555,-2.41708,-1.08943,-0.0541566,-8.09303,0.239201,
2,1,0,1,0,64229.2,0.249498,0.249153,3.75712,33,0.013138,10,0.000936097,-2.42515,-1.59153,-0.0370712,-5.43364,0.249153,
2,1,0,1,0,64229.3,0.259486,0.259178,3.70001,33,0.0135108,10,0.000958962,-2.4318,-1.20947,-0.0487819,-7.04079,0.259178,
2,1,0,1,0,64229.4,0.269474,0.269149,3.64683,33,0.0138781,10,0.00098154,-2.43808,-1.87043,-0.0315436,-4.48847,0.269149,
2,1,0,1,0,64229.5,0.279462,0.279133,3.60155,33,0.0142408,10,0.00100531,-2.44351,-1.86161,-0.0316929,-4.45369,0.279133,
2,1,0,1,0,64229.6,0.28945,0.289142,3.55464,33,0.0145991,10,0.0010278,-2.4492,-1.90856,-0.0309134,-4.29,0.289142,
2,1,0,1,0,64229.7,0.299438,0.299106,3.51223,33,0.0149527,10,0.00105053,-2.45442,-0.040556,-1.45478,-187.631,0.299106,
2,0,0,1,0,64229.8,0.291747,0.291411,-0.316329,33,0.0150522,10,-9.21817e-05,-3.49986,-0.00491777,-11.9973,181.134,0.291411,
2,0,0,1,0,64229.9,0.281759,0.281421,-1.36436,33,0.0149582,10,-0.000383959,-2.86507,-0.050903,-1.15907,61.0832,0.281421,
2,0,0,1,0,64230,0.271771,0.271447,-1.8108,33,0.0147971,10,-0.000491535,-2.74213,-0.119907,-0.492048,34.6887,0.271447,
2,0,0,1,0,64230.1,0.261783,0.261446,-2.09003,33,0.0146011,10,-0.000546429,-2.67985,-0.21664,-0.272342,22.1666,0.261446,
2,0,0,1,0,64230.2,0.251795,0.251478,-2.2902,33,0.0143816,10,-0.000575934,-2.64013,-0.300601,-0.196274,17.5392,0.251478,
2,0,0,1,0,64230.3,0.241807,0.24143,-2.45291,33,0.0141438,10,-0.000592204,-2.61032,-0.367869,-0.160383,15.3767,0.24143,
2,0,0,1,0,64230.4,0.231815,0.231444,-2.59807,33,0.0138909,10,-0.000601309,-2.58535,-0.431398,-0.136765,13.8669,0.231444,
2,0,0,1,0,64230.5,0.221831,0.221494,-2.72554,33,0.0136249,10,-0.000603692,-2.56455,-0.507231,-0.116318,12.3672,0.221494,
2,0,0,1,0,64230.6,0.211843,0.211459,-2.84713,33,0.013346,10,-0.00060205,-2.54559,-0.657459,-0.0897394,9.96402,0.211459,
2,0,0,1,0,64230.7,0.201856,0.201512,-2.96527,33,0.0130551,10,-0.000597538,-2.52794,-0.651368,-0.0905786,10.4833,0.201512,
2,0,0,1,0,64230.8,0.191868,0.191525,-3.09188,33,0.0127522,10,-0.00059217,-2.50978,-0.526309,-0.112101,13.531,0.1915246,
2,0,0,1,0,64230.9,0.18188,0.181596,-3.22909,33,0.0124368,10,-0.000586389,-2.49092,-0.461567,-0.127825,16.0855,0.181596,
2,0,0,1,0,64231,0.171892,0.171536,-3.3845,33,0.0121066,10,-0.000580565,-2.47051,-0.473614,-0.124574,16.4479,0.171536,
2,0,0,1,0,64231.1,0.161904,0.161541,-3.58728,33,0.0117586,10,-0.000579493,-2.44523,-0.360632,-0.163602,22.9117,0.161541,
2,0,0,1,0,64231.2,0.151916,0.151582,-3.88552,33,0.011386,10,-0.000588973,-2.41055,-0.235748,-0.250267,38.0134,0.151582,
2,0,0,1,0,64231.3,0.141928,0.141588,-4.40832,33,0.0109737,10,-0.000624164,-2.35573,-0.144579,-0.408081,70.3495,0.141588,
2,0,0,1,0,64231.4,0.13194,0.131632,-5.31587,33,0.0104914,10,-0.000699738,-2.27443,-0.113736,-0.518747,107.653,0.131632,
2,0,0,1,0,64231.5,0.121952,0.121612,-6.45803,33,0.00990331,10,-0.000785376,-2.1899,-0.134248,-0.439485,110.593,0.121612,
2,0,0,1,0,64231.6,0.111964,0.111624,-7.4953,33,0.00920431,10,-0.000836654,-2.12521,-0.183544,-0.32145,93.9682,0.111624,
2,0,0,1,0,64231.7,0.101976,0.101636,-8.28965,33,0.00841279,10,-0.000842524,-2.08146,-0.319345,-0.184753,59.6824,0.101636,
2,0,0,1,0,64231.8,0.0919883,0.0916506,-8.68416,33,0.00756091,10,-0.000795909,-2.06127,-1.00177,-0.0588955,19.9566,0.0916506,
2,0,0,1,0,64231.9,0.0820004,0.0816514,-8.67068,33,0.0066914,10,-0.000707973,-2.06195,1.16597,0.0506018,-17.1145,0.0816514,
2,0,0,1,0,64232,0.0720124,0.0716586,-8.45213,33,0.00583533,10,-0.000605667,-2.07303,0.790002,0.0746833,-24.6468,0.0716586,
2,0,0,1,0,64232.1,0.0620245,0.0616661,-8.24989,33,0.00500117,10,-0.000508739,-2.08355,0.907804,0.064992,-20.9311,0.0616661,
2,0,0,1,0,64232.2,0.0520366,0.0516889,-8.07261,33,0.00418553,10,-0.000417265,-2.09299,0.95257,0.0619377,-19.5017,0.0516889,
2,0,0,1,0,64232.3,0.0420486,0.0416966,-7.86437,33,0.00338888,10,-0.000327918,-2.10434,0.88181,0.0669078,-20.5453,0.0416966,
2,0,0,1,0,64232.4,0.0320607,0.0317161,-7.62532,33,0.00261534,10,-0.000241845,-2.11774,0.597648,0.0987202,-29.343,0.0317161,
2,0,0,1,0,64232.5,0.0220728,0.0217509,-7.31095,33,0.00186898,10,-0.00015902,-2.13603,0.513046,0.114999,-32.7984,0.0217509,
2,0,0,1,0,64232.6,0.0120848,0.0117652,-6.9829,33,0.00115493,10,-8.21555e-05,-2.15596,0.476644,0.123782,-33.7348,0.0117652,
2,0,0,1,0,64232.7,0.0020969,0.0017283,-6.73671,33,0.00047211,10,-1.1643e-05,-2.17155,0.811768,0.0726809,-19.026,0.0017283,
2,0,0,1,0,64232.8,-0.00789103,-0.00827893,-6.50759,33,-0.000188265,10,5.38759e-05,-2.18658,1.21196,0.0486814,-12.3916,-0.00827893,
2,0,0,1,0,64232.9,-0.017879,-0.0182678,-6.44406,33,-0.000834041,10,0.000117719,-2.19084,13.67,0.00431601,-1.08463,-0.0182678,
2,0,0,1,0,64233,-0.0278669,-0.0282536,-6.46313,33,-0.00147786,10,0.000182606,-2.18956,-2.70572,-0.0218056,5.50375,-0.0282536,
2,0,0,1,0,64233.1,-0.0378548,-0.0382713,-6.57453,33,-0.00212865,10,0.000251616,-2.18214,-1.21967,-0.0483737,12.4039,-0.0382713,
2,0,0,1,0,64233.2,-0.0478428,-0.0482297,-6.74432,33,-0.00279366,10,0.000325277,-2.17106,-0.641187,-0.0920168,24.229,-0.0482297,
2,0,0,1,0,64233.3,-0.0578216,-0.0582029,-6.97218,33,-0.003478,10,0.000405801,-2.15663,-0.597485,-0.0987472,26.8727,-0.0582029,
2,0,0,1,0,64233.4,-0.0678187,-0.0681853,-7.25668,33,-0.00418828,10,0.000494799,-2.13926,-0.510478,-0.115578,32.713,-0.0681853,
2,0,0,1,0,64233.5,-0.0778066,-0.0781964,-7.5851,33,-0.00492927,10,0.000593128,-2.12004,-0.506999,-0.116371,34.4745,-0.0781964,
2,0,0,1,0,64233.6,-0.0877945,-0.0881764,-7.98026,33,-0.00570665,10,0.000703671,-2.09798,-0.440558,-0.133921,41.7257,-0.0881764,
2,0,0,1,0,64233.7,-0.0977825,-0.0981544,-8.40556,33,-0.00652534,10,0.000825042,-2.07543,-0.431955,-0.136588,44.8327,-0.0981544,
2,0,0,1,1,64233.8,-0.0927386,-0.0930741,-2.99349,33,-0.00708658,10,0.000278617,-2.52382,-0.0147427,-4.00199,464.417,-0.0930741,
2,1,0,1,1,64233.9,-0.0827529,-0.0831257,0.318978,33,-0.00720171,10,-2.65152e-05,-3.49624,0.0065399,9.02155,242.805,-0.0831257,
2,1,0,1,1,64234,-0.0727627,-0.0731339,2.21081,33,-0.00706708,10,-0.000161685,-2.65545,0.0333918,1.7669,150.223,-0.0731339,
2,1,0,1,1,64234.1,-0.0627748,-0.0631283,3.39035,33,-0.00678204,10,-0.000214027,-2.46976,0.0810996,0.7275,95.9845,-0.0631283,
2,1,0,1,1,64234.2,-0.0527868,-0.0531516,4.14643,33,-0.00640152,10,-0.000220389,-2.38233,0.160488,0.367628,59.3935,-0.0531516,
2,1,0,1,1,64234.3,-0.0427989,-0.043159,4.61957,33,-0.00596085,10,-0.000199376,-2.3354,0.271327,0.21745,39.1906,-0.043159,
2,1,0,1,1,64234.4,-0.0328109,-0.0331616,4.90314,33,-0.00548373,10,-0.000162596,-2.30953,0.55717,0.105892,20.2389,-0.0331616,
2,1,0,1,1,64234.5,-0.022823,-0.0231895,5.04449,33,-0.00498551,10,-0.000116979,-2.29718,1.28441,0.0459356,9.04155,-0.02318945,
2,1,0,1,1,64234.6,-0.0128351,-0.0131893,5.09814,33,-0.00447746,10,-6.72409e-05,-2.29259,9.21383,0.00640342,1.2746,-0.0131893,
2,1,0,1,1,64234.7,-0.00284713,-0.00321,5.11248,33,-0.00396629,10,-1.64111e-05,-2.29137,-18.4228,-0.00320255,-0.638749,-0.00321,
2,1,0,1,1,64234.7,-2.55332e-05,-0.000325324,5.12116,33,-0.00382247,10,-1.66603e-06,-2.29063, , , ,-0.000325324,

File: 20221101_1-115_003_TrumpetPlot_ParaChange_from10_every3_09_CV_C01_33.csv
mode,ox/red,error,control changes,counter inc.,time/s,control/V,Ewe/V,<I>/mA,cycle number,(Q-Qo)/C,I Range,P/W,log(|I|),Tafel slope mV/dec,alpha_eff,dI/d(E-IR),E-IR/V,
2,0,0,0,0,66196.8,2.44065e-05,-0.000401673,-5.28178,34,0.0000000E+000,10,2.12155e-06,-2.27722, , , ,-0.000401673,
2,1,0,1,0,66196.9,0.00978761,0.00943393,0.566336,34,-0.000155189,10,5.34278e-06,-3.24693,0.0035095,16.8115,292.893,0.00943393,
2,1,0,1,0,66197,0.0197755,0.0194682,2.48557,34,1.09583e-05,10,4.83896e-05,-2.60457,0.044773,1.31776,126.652,0.0194682,
2,1,0,1,0,66197.1,0.0297635,0.0294392,3.46225,34,0.000312683,10,0.000101926,-2.46064,0.106915,0.551839,74.3074,0.0294392,
2,1,0,1,0,66197.2,0.0397514,0.0393838,4.10605,34,0.000692551,10,0.000161712,-2.38658,0.156108,0.377943,60.5812,0.0393838,
2,1,0,1,0,66197.3,0.0497484,0.0494453,4.6553,34,0.00113092,10,0.000230183,-2.33205,0.210174,0.28072,50.8587,0.0494453,
2,1,0,1,0,66197.4,0.0597273,0.0594006,5.12551,34,0.00161927,10,0.000304458,-2.29026,0.254038,0.232249,46.4154,0.0594006,
2,1,0,1,0,66197.5,0.0697152,0.069394,5.55812,34,0.00215379,10,0.0003857,-2.25507,0.323348,0.182466,39.5879,0.069394,
2,1,0,1,0,66197.6,0.0797031,0.0793664,5.94702,34,0.00272945,10,0.000471994,-2.2257,0.384053,0.153625,35.6444,0.0793664,
2,1,0,1,0,66197.7,0.0896911,0.0893473,6.27609,34,0.00334083,10,0.000560752,-2.20231,0.442417,0.133358,32.6796,0.0893473,
2,1,0,1,0,66197.8,0.099679,0.0993864,6.61303,34,0.00398387,10,0.000657245,-2.1796,0.40025,0.147408,38.041,0.0993864,
2,1,0,1,0,66197.9,0.109667,0.109364,7.0764,34,0.00466636,10,0.000773905,-2.15019,0.295185,0.199875,55.2474,0.109364,
2,1,0,1,0,66198,0.119655,0.11931,7.69538,34,0.0054041,10,0.000918138,-2.11377,0.287018,0.205562,61.7013,0.11931,
2,1,0,1,0,66198.1,0.129643,0.129296,8.27188,34,0.00620306,10,0.00106952,-2.0824,0.379842,0.155328,50.1016,0.129296,
2,1,0,1,0,66198.2,0.139631,0.139349,8.65735,34,0.00705094,10,0.00120639,-2.06261,0.690804,0.0854077,28.8656,0.1393486,
2,1,0,1,0,66198.3,0.149619,0.149319,8.76571,34,0.00792447,10,0.00130889,-2.05721,-1.32108,-0.0446603,-15.2499,0.149319,
2,1,0,1,0,66198.4,0.159607,0.159322,8.19672,34,0.00877901,10,0.00130592,-2.08636,-0.186945,-0.315601,-100.831,0.159322,
2,1,0,1,0,66198.5,0.169595,0.16927,6.97713,34,0.00953959,10,0.00118102,-2.15632,-0.125716,-0.469311,-127.735,0.16927,
2,1,0,1,0,66198.6,0.179582,0.179257,5.84268,34,0.010177,10,0.00104734,-2.23339,-0.145701,-0.404939,-92.5035,0.179257,
2,1,0,1,0,66198.7,0.18957,0.189209,5.1002,34,0.0107213,10,0.000965005,-2.29241,-0.205898,-0.28655,-57.1145,0.189209,
2,1,0,1,0,66198.8,0.199558,0.199227,4.63738,34,0.0112057,10,0.000923891,-2.33373,-0.288347,-0.204615,-37.0178,0.199227,
2,1,0,1,0,66198.9,0.209546,0.20925,4.33524,34,0.0116527,10,0.000907146,-2.36299,-0.361538,-0.163192,-27.5961,0.20925,
2,1,0,1,0,66199,0.219534,0.21923,4.11693,34,0.0120742,10,0.000902556,-2.38543,-0.548497,-0.107567,-17.2891,0.21923,
2,1,0,1,0,66199.1,0.229522,0.229233,3.97018,34,0.0124782,10,0.000910096,-2.40119,-0.705831,-0.0835894,-12.9617,0.229233,
2,1,0,1,0,66199.2,0.23951,0.239183,3.86842,34,0.0128699,10,0.00092526,-2.41247,-0.99517,-0.0592863,-8.95447,0.239183,
2,1,0,1,0,66199.3,0.249498,0.249235,3.79188,34,0.0132522,10,0.00094507,-2.42115,-1.37709,-0.042844,-6.33699,0.2492355,
2,1,0,1,0,66199.4,0.259486,0.259231,3.73072,34,0.013628,10,0.000967119,-2.42821,-1.26079,-0.0467961,-6.80927,0.259231,
2,1,0,1,0,66199.5,0.269474,0.269188,3.6743,34,0.0139982,10,0.000989079,-2.43483,-1.65707,-0.0356051,-5.10929,0.269188,
2,1,0,1,0,66199.6,0.279462,0.279152,3.63108,34,0.0143635,10,0.00101363,-2.43996,-2.04293,-0.0288801,-4.09367,0.279152,
2,1,0,1,0,66199.7,0.28945,0.289169,3.58607,34,0.0147243,10,0.00103698,-2.44538,-2.45757,-0.0240074,-3.35924,0.2891691,
2,1,0,1,0,66199.8,0.299438,0.299143,3.54357,34,0.0150803,10,0.00106003,-2.45056,-0.0414035,-1.425,-185.494,0.299143,
2,0,0,1,0,66199.9,0.291747,0.291394,-0.316806,34,0.0151826,10,-9.23153e-05,-3.49921,-0.00528789,-11.1576,192.285,0.291394,
2,0,0,1,0,66200,0.281759,0.281403,-1.39288,34,0.0150877,10,-0.000391961,-2.85609,-0.0495792,-1.19002,63.8739,0.281403,
2,0,0,1,0,66200.1,0.271771,0.271451,-1.85029,34,0.0149238,10,-0.000502263,-2.73276,-0.117518,-0.502049,36.1207,0.271451,
2,0,0,1,0,66200.2,0.261783,0.26145,-2.12826,34,0.0147244,10,-0.000556434,-2.67198,-0.221748,-0.266068,22.073,0.26145,
2,0,0,1,0,66200.3,0.251795,0.251448,-2.33479,34,0.0145014,10,-0.000587078,-2.63175,-0.292471,-0.20173,18.3586,0.251448,
2,0,0,1,0,66200.4,0.241807,0.241474,-2.49285,34,0.01426,10,-0.00060196,-2.6033,-0.367375,-0.160599,15.6771,0.241474,
2,0,0,1,0,66200.5,0.231815,0.231497,-2.64165,34,0.0140035,10,-0.000611534,-2.57812,-0.379058,-0.155649,16.0268,0.231497,
2,0,0,1,0,66200.6,0.221831,0.221499,-2.76745,34,0.0137336,10,-0.000612988,-2.55792,-0.472718,-0.12481,13.4719,0.221499,
2,0,0,1,0,66200.7,0.211844,0.211453,-2.8907,34,0.0134511,10,-0.000611248,-2.539,-0.710607,-0.0830277,9.35925,0.211453,
2,0,0,1,0,66200.8,0.201856,0.201504,-3.00501,34,0.0131565,10,-0.00060552,-2.52215,-0.602872,-0.0978649,11.4973,0.201504,
2,0,0,1,0,66200.9,0.191868,0.191507,-3.13439,34,0.0128498,10,-0.000600259,-2.50385,-0.50572,-0.116665,14.2925,0.191507,
2,0,0,1,0,66201,0.18188,0.181512,-3.27328,34,0.0125307,10,-0.000594139,-2.48502,-0.460877,-0.128017,16.3317,0.181512,
2,0,0,1,0,66201.1,0.171892,0.171559,-3.42687,34,0.0121967,10,-0.000587911,-2.4651,-0.463822,-0.127204,17.0059,0.171559,
2,0,0,1,0,66201.2,0.161904,0.161575,-3.63128,34,0.0118451,10,-0.000586724,-2.43994,-0.353469,-0.166917,23.6394,0.161575,
2,0,0,1,0,66201.3,0.151916,0.15157,-3.92719,34,0.0114687,10,-0.000595244,-2.40592,-0.24311,-0.242688,37.2632,0.15157,
2,0,0,1,0,66201.4,0.141928,0.141549,-4.44907,34,0.011053,10,-0.000629762,-2.35173,-0.14374,-0.410462,71.36,0.141549,
2,0,0,1,0,66201.5,0.13194,0.131623,-5.34089,34,0.0105681,10,-0.000702983,-2.27239,-0.114418,-0.515655,107.569,0.131623,
2,0,0,1,0,66201.6,0.121952,0.12163,-6.47724,34,0.00997839,10,-0.000787824,-2.18861,-0.137561,-0.428901,108.32,0.12163,
2,0,0,1,0,66201.7,0.111964,0.111647,-7.51383,34,0.00927799,10,-0.000838898,-2.12414,-0.179373,-0.328923,96.4236,0.111647,
2,0,0,1,0,66201.8,0.101976,0.101637,-8.32258,34,0.00848446,10,-0.000845878,-2.07974,-0.307108,-0.192115,62.2934,0.101637,
2,0,0,1,0,66201.9,0.0919883,0.0916573,-8.73554,34,0.0076291,10,-0.000800676,-2.05871,-0.927209,-0.0636318,21.6812,0.0916573,
2,0,0,1,0,66202,0.0820004,0.0816501,-8.73837,34,0.00675425,10,-0.000713489,-2.05857,1.25074,0.0471721,-16.076,0.0816501,
2,0,0,1,0,66202.1,0.0720124,0.0716577,-8.53211,34,0.00589145,10,-0.000611392,-2.06894,0.824672,0.0715436,-23.8264,0.0716577,
2,0,0,1,0,66202.2,0.0620245,0.0617114,-8.32956,34,0.00505,10,-0.000514028,-2.07938,1.01881,0.0579107,-18.8304,0.06171136,
2,0,0,1,0,66202.3,0.0520366,0.0516503,-8.15392,34,0.00422681,10,-0.000421153,-2.08863,0.918924,0.0642055,-20.4243,0.0516503,
2,0,0,1,0,66202.4,0.0420486,0.0417614,-7.94897,34,0.00342264,10,-0.00033196,-2.09969,0.881952,0.0668971,-20.7484,0.04176138,
2,0,0,1,0,66202.5,0.0320607,0.0317248,-7.69769,34,0.00264178,10,-0.000244207,-2.11364,0.5945,0.099243,-29.7897,0.03172477,
2,0,0,1,0,66202.6,0.0220728,0.0217079,-7.38382,34,0.00188842,10,-0.000160288,-2.13172,0.514655,0.11464,-33.026,0.0217079,
2,0,0,1,0,66202.7,0.0120848,0.0117976,-7.04903,34,0.00116778,10,-8.31617e-05,-2.15187,0.478479,0.123307,-33.9273,0.0117976,
2,0,0,1,0,66202.8,0.0020969,0.00173697,-6.7965,34,0.000478854,10,-1.18053e-05,-2.16771,0.812113,0.07265,-19.1994,0.00173697,
2,0,0,1,0,66202.9,-0.00789103,-0.00825735,-6.57098,34,-0.000187236,10,5.42589e-05,-2.18237,1.13697,0.0518923,-13.3217,-0.00825735,
2,0,0,1,0,66203,-0.017879,-0.0182222,-6.50027,34,-0.000838356,10,0.000118449,-2.18707,12.8624,0.00458703,-1.16254,-0.0182222,
2,0,0,1,0,66203.1,-0.0278669,-0.0281906,-6.51825,34,-0.00148733,10,0.000183754,-2.18587,-2.51361,-0.0234722,5.97438,-0.0281906,
2,0,0,1,0,66203.2,-0.0378548,-0.038251,-6.62962,34,-0.00214304,10,0.00025359,-2.17851,-1.17952,-0.0500205,12.9366,-0.038251,
2,0,0,1,0,66203.3,-0.0478428,-0.0482232,-6.79682,34,-0.00281313,10,0.000327764,-2.16769,-0.658781,-0.0895594,23.7872,-0.0482232,
2,0,0,1,0,66203.4,-0.0578216,-0.0581764,-7.03705,34,-0.00350317,10,0.00040939,-2.15261,-0.597684,-0.0987144,27.1171,-0.0581764,
2,0,0,1,0,66203.5,-0.0678187,-0.0682185,-7.33301,34,-0.0042203,10,0.000500247,-2.13472,-0.496795,-0.118761,33.9851,-0.0682185,
2,0,0,1,0,66203.6,-0.0778066,-0.0781873,-7.68329,34,-0.00496975,10,0.000600736,-2.11445,-0.465102,-0.126854,38.0621,-0.0781873,
2,0,0,1,0,66203.7,-0.0877945,-0.0881216,-8.10811,34,-0.00575801,10,0.0007145,-2.09108,-0.425228,-0.138749,43.9142,-0.08812163,
2,0,0,1,0,66203.8,-0.0977825,-0.0981401,-8.56847,34,-0.00659079,10,0.00084091,-2.0671,-0.418492,-0.140982,47.1572,-0.0981401,
2,0,0,1,1,66203.9,-0.0927386,-0.0930793,-3.19581,34,-0.00717139,10,0.000297463,-2.49542,-0.0156649,-3.76638,467.946,-0.0930793,
2,1,0,1,1,66204,-0.0827529,-0.0831066,0.171187,34,-0.00730461,10,-1.42268e-05,-3.76653,0.015015,3.9294,249.485,-0.0831066,
2,1,0,1,1,66204.1,-0.0727627,-0.0731231,2.1268,34,-0.00718189,10,-0.000155518,-2.67227,0.0314393,1.87663,153.168,-0.0731231,
2,1,0,1,1,66204.2,-0.0627747,-0.0631508,3.36,34,-0.0069032,10,-0.000212187,-2.47366,0.0776218,0.760096,99.2705,-0.0631508,
2,1,0,1,1,66204.3,-0.0527868,-0.0531296,4.15475,34,-0.00652444,10,-0.00022074,-2.38145,0.154797,0.381145,61.6723,-0.05312958,
2,1,0,1,1,66204.4,-0.0427989,-0.0431764,4.65597,34,-0.00608192,10,-0.000201028,-2.33199,0.258701,0.228063,41.4458,-0.0431764,
2,1,0,1,1,66204.5,-0.0328109,-0.0331833,4.96574,34,-0.0056003,10,-0.00016478,-2.30402,0.503959,0.117073,22.6458,-0.0331833,
2,1,0,1,1,66204.6,-0.022823,-0.023228,5.12135,34,-0.00509569,10,-0.000118959,-2.29062,1.18181,0.0499234,9.97532,-0.02322804,
2,1,0,1,1,66204.7,-0.0128351,-0.013198,5.17955,34,-0.00458028,10,-6.83597e-05,-2.28571,5.8516,0.0100827,2.04028,-0.013198,
2,1,0,1,1,66204.8,-0.00284713,-0.00320046,5.19472,34,-0.0040612,10,-1.66255e-05,-2.28444,-10.0348,-0.00587957,-1.19204,-0.00320046,
2,1,0,1,1,66204.8,-2.55332e-05,-0.000306236,5.20575,34,-0.00391513,10,-1.59419e-06,-2.28352, , , ,-0.000306236,