Folder: Figs_alphaMnO2_OER_Tafel_sleope/Figure_codes/Fig_3-5/rawdata_trumpetplot_data/after 10th (part 58)

File: 20221101_1-115_003_TrumpetPlot_ParaChange_from10_every3_05_CV_C01_10.csv
mode,ox/red,error,control changes,counter inc.,time/s,control/V,Ewe/V,<I>/mA,cycle number,(Q-Qo)/C,I Range,P/W,log(|I|),Tafel slope mV/dec,alpha_eff,dI/d(E-IR),E-IR/V,
2,0,0,1,0,20821.3,2.44065e-05,-0.000325324,-0.742422,11,0.0000000E+000,10,2.41527e-07,-3.12935, , , ,-0.000325324,
2,1,0,1,0,20821.7,0.00729063,0.00696738,0.697161,11,0.000154393,10,4.85739e-06,-3.15667,0.0527051,1.11944,29.9124,0.00696738,
2,1,0,1,0,20822.1,0.0147802,0.0144636,0.846911,11,0.000452818,10,1.22494e-05,-3.07216,0.117698,0.501282,16.5787,0.0144636,
2,1,0,1,0,20822.4,0.0222725,0.02194,0.956144,11,0.000797783,10,2.09778e-05,-3.01948,0.171549,0.343926,12.8279,0.02194,
2,1,0,1,0,20822.8,0.0297644,0.0293901,1.06002,11,0.00118156,10,3.11543e-05,-2.97468,0.201622,0.292627,12.0672,0.0293901,
2,1,0,1,0,20823.2,0.0372544,0.0369205,1.15838,11,0.00160277,10,4.27679e-05,-2.93615,0.209025,0.282262,12.7514,0.0369205,
2,1,0,1,0,20823.6,0.0447449,0.0444066,1.25411,11,0.00206093,10,5.56908e-05,-2.90166,0.227979,0.258796,12.6657,0.0444066,
2,1,0,1,0,20823.9,0.0522363,0.0518964,1.34199,11,0.00255433,10,6.96442e-05,-2.87225,0.255594,0.230835,12.1022,0.0518964,
2,1,0,1,0,20824.3,0.0597291,0.0594057,1.42821,11,0.0030804,10,8.48437e-05,-2.84521,0.296235,0.199166,11.084,0.0594057,
2,1,0,1,0,20824.7,0.0672182,0.0668915,1.50506,11,0.00363564,10,0.000100676,-2.82245,0.366524,0.160972,9.42757,0.0668915,
2,1,0,1,0,20825.1,0.0747092,0.0744477,1.56614,11,0.00421668,10,0.000116596,-2.80517,0.469713,0.125609,7.67362,0.0744477,
2,1,0,1,0,20825.4,0.0822001,0.0818615,1.6184,11,0.00481993,10,0.000132485,-2.79091,0.549804,0.107311,6.78545,0.0818615,
2,1,0,1,0,20825.8,0.0896911,0.0893629,1.68479,11,0.00544449,10,0.000150558,-2.77345,0.381153,0.154793,10.195,0.0893629,
2,1,0,1,0,20826.2,0.097182,0.0968527,1.78833,11,0.00610037,10,0.000173205,-2.74755,0.218162,0.270441,18.8942,0.0968527,
2,1,0,1,0,20826.6,0.104673,0.104386,1.948,11,0.00680461,10,0.000203343,-2.71041,0.190589,0.309566,23.4757,0.104386,
2,1,0,1,0,20826.9,0.112164,0.111825,2.1015,11,0.00757023,10,0.000235,-2.67747,0.261455,0.22566,18.5047,0.1118251,
2,1,0,1,0,20827.3,0.119655,0.119347,2.22043,11,0.00838805,10,0.000265001,-2.65356,0.476549,0.123807,10.7171,0.119347,
2,1,0,1,0,20827.7,0.127146,0.126793,2.29636,11,0.00924119,10,0.000291163,-2.63896,0.524294,0.112532,10.0917,0.126793,
2,1,0,1,0,20828.1,0.134637,0.134347,2.35875,11,0.0101215,10,0.000316891,-2.62732,3.36828,0.0175163,1.60985,0.134347,
2,1,0,1,0,20828.4,0.142128,0.141832,2.26847,11,0.0110019,10,0.000321741,-2.64427,-0.18174,-0.32464,-28.5823,0.141832,
2,1,0,1,0,20828.8,0.149619,0.149292,1.91952,11,0.0117988,10,0.000286568,-2.71681,-0.0764062,-0.772189,-57.6716,0.149292,
2,1,0,1,0,20829.2,0.157108,0.156781,1.522,11,0.0124454,10,0.000238621,-2.81759,-0.0815956,-0.723078,-43.0282,0.156781,
2,1,0,1,0,20829.5,0.164601,0.164284,1.28061,11,0.0129713,10,0.000210383,-2.89258,-0.127211,-0.463798,-23.2531,0.164284,
2,1,0,1,0,20829.9,0.172092,0.171771,1.15297,11,0.013431,10,0.000198048,-2.93818,-0.228683,-0.258,-11.6447,0.171771,
2,1,0,1,0,20830.3,0.179582,0.179243,1.08423,11,0.0138556,10,0.000194341,-2.96488,-0.393389,-0.149979,-6.36843,0.179243,
2,1,0,1,0,20830.7,0.187073,0.186788,1.04656,11,0.0142602,10,0.000195485,-2.98024,-0.6745,-0.0874722,-3.56377,0.186788,
2,1,0,1,0,20831,0.194564,0.194285,1.01638,11,0.0146524,10,0.000197468,-2.99294,-0.829801,-0.0711013,-2.82682,0.194285,
2,1,0,1,0,20831.4,0.202057,0.201778,0.999493,11,0.0150359,10,0.000201675,-3.00022,-0.964525,-0.06117,-2.3777,0.201778,
2,1,0,1,0,20831.8,0.209546,0.209272,0.982885,11,0.015413,10,0.00020569,-3.0075,-0.701931,-0.0840538,-3.22236,0.209272,
2,1,0,1,0,20832.2,0.217037,0.216706,0.966627,11,0.0157842,10,0.000209473,-3.01474,-2.94974,-0.0200017,-0.75654,0.216706,
2,1,0,1,0,20832.5,0.224528,0.224207,0.95782,11,0.0161511,10,0.00021475,-3.01872,-1.00641,-0.058624,-2.19206,0.224207,
2,1,0,1,0,20832.9,0.232019,0.231699,0.94478,11,0.0165138,10,0.000218904,-3.02467,-3.38581,-0.0174257,-0.644467,0.231699,
2,1,0,1,0,20833.3,0.23951,0.239188,0.937669,11,0.0168733,10,0.000224279,-3.02795,-1.69476,-0.0348132,-1.2756,0.239188,
2,1,0,1,0,20833.7,0.247001,0.246666,0.932422,11,0.0172295,10,0.000229997,-3.03039,-1.08045,-0.0546071,-1.98136,0.246666,
2,1,0,1,0,20834,0.254492,0.254196,0.923658,11,0.0175826,10,0.00023479,-3.03449,-1.71574,-0.0343875,-1.2379,0.254196,
2,1,0,1,0,20834.4,0.261983,0.261668,0.913452,11,0.0179328,10,0.000239021,-3.03931,-3.83721,-0.0153758,-0.549094,0.261668,
2,1,0,1,0,20834.8,0.269474,0.269142,0.907065,11,0.0182801,10,0.000244129,-3.04236,-9.16267,-0.00643917,-0.227846,0.269142,
2,1,0,1,0,20835.2,0.276965,0.276691,0.898024,11,0.0186243,10,0.000248476,-3.04671,-1.88935,-0.0312277,-1.09564,0.276691,
2,1,0,1,0,20835.5,0.284456,0.284187,0.889312,11,0.0189653,10,0.000252731,-3.05095,-2.57822,-0.022884,-0.794073,0.284187,
2,1,0,1,0,20835.9,0.291947,0.291631,0.878789,11,0.0193027,10,0.000256283,-3.05612,-1.89888,-0.0310709,-1.06576,0.291631,
2,1,0,1,0,20836.3,0.299436,0.299103,0.870604,11,0.0196367,10,0.0002604,-3.06018,-0.00303315,-19.4517,-360.647,0.299103,
2,0,0,1,0,20836.6,0.293745,0.293451,-0.183244,11,0.019653,10,-5.3773e-05,-3.73697,-0.0184761,-3.19332,21.1939,0.2934505,
2,0,0,1,0,20837,0.286254,0.285929,-0.286625,11,0.0195565,10,-8.19546e-05,-3.54269,-0.0616124,-0.957599,10.7143,0.285929,
2,0,0,1,0,20837.4,0.278763,0.278447,-0.353555,11,0.0194293,10,-9.84464e-05,-3.45154,-0.117646,-0.501504,6.92294,0.278447,
2,0,0,1,0,20837.8,0.271272,0.270933,-0.405023,11,0.0192808,10,-0.000109734,-3.39252,-0.140373,-0.420308,6.60878,0.270933,
2,0,0,1,0,20838.1,0.263781,0.263512,-0.445254,11,0.0191153,10,-0.00011733,-3.35139,-0.195994,-0.30103,5.23107,0.263512,
2,0,0,1,0,20838.5,0.25629,0.255956,-0.483831,11,0.0189354,10,-0.000123839,-3.31531,-0.279183,-0.211331,3.95536,0.255956,
2,0,0,1,0,20838.9,0.248799,0.248473,-0.512585,11,0.018743,10,-0.000127364,-3.29023,-0.335718,-0.175743,3.51726,0.248473,
2,0,0,1,0,20839.3,0.241308,0.241,-0.540323,11,0.0185392,10,-0.000130218,-3.26735,-0.396898,-0.148653,3.14579,0.2410001,
2,0,0,1,0,20839.6,0.233817,0.23346,-0.571374,11,0.0183247,10,-0.000133393,-3.24308,-0.314391,-0.187665,4.16897,0.23346,
2,0,0,1,0,20840,0.226326,0.226036,-0.597291,11,0.0180999,10,-0.000135009,-3.22381,-0.40031,-0.147386,3.42209,0.226036,
2,0,0,1,0,20840.4,0.218835,0.218504,-0.623351,11,0.0178651,10,-0.000136205,-3.20527,-0.38587,-0.152901,3.71134,0.2185041,
2,0,0,1,0,20840.8,0.211344,0.211028,-0.648325,11,0.0176208,10,-0.000136814,-3.18821,-0.485216,-0.121595,3.06961,0.211028,
2,0,0,1,0,20841.1,0.203855,0.203504,-0.674804,11,0.0173666,10,-0.000137325,-3.17082,-0.475044,-0.124199,3.28007,0.203504,
2,0,0,1,0,20841.5,0.196362,0.196045,-0.704977,11,0.0171022,10,-0.000138207,-3.15182,-0.422493,-0.139647,3.8352,0.196045,
2,0,0,1,0,20841.9,0.188871,0.188524,-0.735465,11,0.0168262,10,-0.000138653,-3.13344,-0.30151,-0.195682,5.59432,0.188524,
2,0,0,1,0,20842.3,0.18138,0.181045,-0.772743,11,0.0165377,10,-0.000139902,-3.11196,-0.364736,-0.161761,4.8705,0.181045,
2,0,0,1,0,20842.6,0.173891,0.173555,-0.819151,11,0.0162342,10,-0.000142168,-3.08664,-0.254659,-0.231683,7.38055,0.173555,
2,0,0,1,0,20843,0.166398,0.166072,-0.878287,11,0.015911,10,-0.000145859,-3.05636,-0.256883,-0.229676,7.87076,0.1660717,
2,0,0,1,0,20843.4,0.158906,0.158601,-0.957334,11,0.0155617,10,-0.000151835,-3.01894,-0.154209,-0.382598,14.3547,0.158601,
2,0,0,1,0,20843.8,0.151417,0.15106,-1.09874,11,0.0151716,10,-0.000165976,-2.95911,-0.107967,-0.546464,23.4864,0.15106,
2,0,0,1,0,20844.1,0.143926,0.143561,-1.33212,11,0.0147138,10,-0.000191239,-2.87546,-0.0758236,-0.778122,40.476,0.143561,
2,0,0,1,0,20844.5,0.136435,0.136146,-1.67061,11,0.0141476,10,-0.000227447,-2.77712,-0.0780096,-0.756317,49.2845,0.136146,
2,0,0,1,0,20844.9,0.128942,0.128603,-2.02614,11,0.0134473,10,-0.000260567,-2.69333,-0.1135,-0.519824,40.899,0.128603,
2,0,0,1,0,20845.2,0.121453,0.121164,-2.27316,11,0.0126322,10,-0.000275425,-2.64337,-0.21842,-0.270121,23.9059,0.121164,
2,0,0,1,0,20845.6,0.113962,0.113607,-2.38243,11,0.0117489,10,-0.00027066,-2.62298,-0.997132,-0.0591697,5.50117,0.113607,
2,0,0,1,0,20846,0.106471,0.106152,-2.37396,11,0.0108478,10,-0.000252,-2.62453,0.810796,0.072768,-6.74773,0.106152,
2,0,0,1,0,20846.4,0.0989798,0.0986523,-2.29286,11,0.00996542,10,-0.000226195,-2.63962,0.443741,0.13296,-11.881,0.0986523,
2,0,0,1,0,20846.7,0.0914889,0.0911803,-2.19217,11,0.00911944,10,-0.000199883,-2.65913,0.435019,0.135626,-11.5892,0.0911803,
2,0,0,1,0,20847.1,0.083998,0.0837057,-2.10506,11,0.0083096,10,-0.000176206,-2.67674,0.45371,0.130039,-10.675,0.0837057,
2,0,0,1,0,20847.5,0.076507,0.0761524,-2.04055,11,0.00752748,10,-0.000155393,-2.69025,0.491947,0.119932,-9.54199,0.0761524,
2,0,0,1,0,20847.9,0.0690161,0.0687128,-1.97669,11,0.00676849,10,-0.000135824,-2.70406,0.544766,0.108303,-8.37682,0.0687128,
2,0,0,1,0,20848.2,0.0615251,0.0612113,-1.92428,11,0.00603034,10,-0.000117788,-2.71573,0.607398,0.0971357,-7.30537,0.06121134,
2,0,0,1,0,20848.6,0.0540342,0.0537449,-1.87014,11,0.00531376,10,-0.000100511,-2.72813,0.58409,0.101012,-7.36119,0.0537449,
2,0,0,1,0,20849,0.0465432,0.0462432,-1.80454,11,0.00461885,10,-8.34479e-05,-2.74363,0.518159,0.113865,-8.02855,0.0462432,
2,0,0,1,0,20849.4,0.0390523,0.0387328,-1.74012,11,0.00394821,10,-6.73997e-05,-2.75942,0.401769,0.14685,-9.95274,0.0387328,
2,0,0,1,0,20849.7,0.0315626,0.0312408,-1.66903,11,0.00330365,10,-5.21416e-05,-2.77754,0.373661,0.157897,-10.285,0.0312408,
2,0,0,1,0,20850.1,0.0240704,0.0237205,-1.59614,11,0.00268538,10,-3.78612e-05,-2.79693,0.419579,0.140617,-8.78721,0.02372052,
2,0,0,1,0,20850.5,0.0165785,0.0162715,-1.54164,11,0.00209099,10,-2.50849e-05,-2.81202,0.562683,0.104855,-6.31465,0.0162715,
2,0,0,1,0,20850.9,0.00908846,0.00877198,-1.49881,11,0.00151547,10,-1.31475e-05,-2.82425,0.922792,0.0639364,-3.74073,0.00877198,
2,0,0,1,0,20851.2,0.0015984,0.00125858,-1.49258,11,0.000951325,10,-1.87853e-06,-2.82606, , , ,0.001258583,
2,0,0,1,0,20851.3,0.000199195,-0.000180321,-1.47847,11,0.000846026,10,2.666e-07,-2.83019, , , ,-0.000180321,

File: 20221101_1-115_003_TrumpetPlot_ParaChange_from10_every3_05_CV_C01_11.csv
mode,ox/red,error,control changes,counter inc.,time/s,control/V,Ewe/V,<I>/mA,cycle number,(Q-Qo)/C,I Range,P/W,log(|I|),Tafel slope mV/dec,alpha_eff,dI/d(E-IR),E-IR/V,
2,0,0,1,0,22791.5,2.44065e-05,-0.000229887,-0.735426,12,0.0000000E+000,10,1.69065e-07,-3.13346, , , ,-0.000229887,
2,1,0,1,0,22791.8,0.00729063,0.0070064,0.736082,12,0.000171559,10,5.15729e-06,-3.13307,0.0585246,1.00812,28.5669,0.0070064,
2,1,0,1,0,22792.2,0.0147802,0.0144784,0.878525,12,0.000483848,10,1.27197e-05,-3.05625,0.127992,0.460968,15.8181,0.0144784,
2,1,0,1,0,22792.6,0.0222725,0.0219539,0.981947,12,0.000840353,10,2.15576e-05,-3.00791,0.176103,0.335031,12.8364,0.0219539,
2,1,0,1,0,22792.9,0.0297644,0.0294516,1.08233,12,0.00123398,10,3.18763e-05,-2.96564,0.205863,0.286598,12.0635,0.0294516,
2,1,0,1,0,22793.3,0.0372544,0.0369693,1.18356,12,0.00166436,10,4.37555e-05,-2.92681,0.21852,0.269998,12.4368,0.0369693,
2,1,0,1,0,22793.7,0.0447449,0.044438,1.27758,12,0.00213141,10,5.67729e-05,-2.89361,0.230887,0.255536,12.7266,0.044438,
2,1,0,1,0,22794.1,0.0522363,0.051904,1.3644,12,0.00263361,10,7.08177e-05,-2.86506,0.236781,0.249176,13.2846,0.051904,
2,1,0,1,0,22794.4,0.0597291,0.059422,1.45119,12,0.00316844,10,8.62325e-05,-2.83828,0.307994,0.191562,10.8346,0.059422,
2,1,0,1,0,22794.8,0.0672182,0.0668856,1.52778,12,0.00373272,10,0.000102186,-2.81594,0.348296,0.169396,10.0739,0.0668856,
2,1,0,1,0,22795.2,0.0747092,0.074395,1.5877,12,0.00432282,10,0.000118117,-2.79923,0.477642,0.123524,7.6468,0.074395,
2,1,0,1,0,22795.6,0.0822001,0.0818975,1.63696,12,0.00493538,10,0.000134063,-2.78596,0.592969,0.0994992,6.38126,0.0818975,
2,1,0,1,0,22795.9,0.0896911,0.0893681,1.7083,12,0.00556909,10,0.000152667,-2.76744,0.367926,0.160358,10.7018,0.0893681,
2,1,0,1,0,22796.3,0.097182,0.0968706,1.81146,12,0.00623418,10,0.000175478,-2.74197,0.220154,0.267994,18.99,0.0968706,
2,1,0,1,0,22796.7,0.104673,0.104375,1.97204,12,0.00694877,10,0.000205831,-2.70508,0.188795,0.312509,24.0441,0.104375,
2,1,0,1,0,22797.1,0.112164,0.111847,2.13719,12,0.0077266,10,0.000239038,-2.67016,0.264691,0.222902,18.5595,0.111847,
2,1,0,1,0,22797.4,0.119655,0.119334,2.25861,12,0.00855824,10,0.000269529,-2.64616,0.484663,0.121734,10.7116,0.119334,
2,1,0,1,0,22797.8,0.127146,0.126806,2.32864,12,0.00942551,10,0.000295284,-2.6329,0.574957,0.102616,9.35096,0.126806,
2,1,0,1,0,22798.2,0.134637,0.134331,2.38979,12,0.0103196,10,0.000321022,-2.62164,19.2305,0.00306805,0.285964,0.134331,
2,1,0,1,0,22798.6,0.142128,0.141808,2.29116,12,0.0112119,10,0.000324904,-2.63995,-0.177315,-0.332741,-29.6195,0.141808,
2,1,0,1,0,22798.9,0.149619,0.14929,1.93483,12,0.0120166,10,0.00028885,-2.71336,-0.0760988,-0.775307,-58.3489,0.1492897,
2,1,0,1,0,22799.3,0.157108,0.15677,1.52842,12,0.0126678,10,0.00023961,-2.81576,-0.0760822,-0.775477,-46.3519,0.15677,
2,1,0,1,0,22799.7,0.164601,0.164294,1.27909,12,0.0131954,10,0.000210147,-2.8931,-0.121244,-0.486621,-24.3091,0.164294,
2,1,0,1,0,22800.1,0.172092,0.171801,1.14491,12,0.0136541,10,0.000196696,-2.94123,-0.207473,-0.284375,-12.7534,0.171801,
2,1,0,1,0,22800.4,0.179582,0.179294,1.07683,12,0.014076,10,0.00019307,-2.96785,-0.378788,-0.15576,-6.55709,0.179294,
2,1,0,1,0,22800.8,0.187073,0.186744,1.03606,12,0.0144775,10,0.000193478,-2.98461,-0.737072,-0.0800465,-3.23067,0.186744,
2,1,0,1,0,22801.2,0.194564,0.194291,1.00721,12,0.0148667,10,0.000195693,-2.99688,-0.688925,-0.0856407,-3.3676,0.194291,
2,1,0,1,0,22801.6,0.202057,0.201769,0.986863,12,0.0152472,10,0.000199118,-3.00574,-0.80781,-0.073037,-2.81647,0.201769,
2,1,0,1,0,22801.9,0.209546,0.209269,0.974038,12,0.0156215,10,0.000203836,-3.01142,-0.858899,-0.0686926,-2.61225,0.209269,
2,1,0,1,0,22802.3,0.217037,0.216699,0.957913,12,0.0159903,10,0.000207578,-3.01867,-1.59541,-0.0369811,-1.38624,0.216699,
2,1,0,1,0,22802.7,0.224528,0.22422,0.948823,12,0.0163553,10,0.000212745,-3.02281,-1.22163,-0.0482962,-1.79431,0.22422,
2,1,0,1,0,22803.1,0.232019,0.231728,0.943032,12,0.0167163,10,0.000218527,-3.02547,-1.99499,-0.0295741,-1.08668,0.2317279,
2,1,0,1,0,22803.4,0.23951,0.239196,0.933535,12,0.017074,10,0.000223298,-3.02987,-2.17638,-0.0271092,-0.987344,0.239196,
2,1,0,1,0,22803.8,0.247001,0.246684,0.925069,12,0.0174288,10,0.000228199,-3.03383,-2.43884,-0.0241919,-0.87162,0.246684,
2,1,0,1,0,22804.2,0.254492,0.254182,0.915625,12,0.0177806,10,0.000232735,-3.03828,-1.22932,-0.0479942,-1.71836,0.254182,
2,1,0,1,0,22804.5,0.261983,0.261685,0.909909,12,0.0181294,10,0.00023811,-3.041,-1.26901,-0.0464931,-1.64906,0.261685,
2,1,0,1,0,22804.9,0.269474,0.269179,0.900092,12,0.0184754,10,0.000242286,-3.04571,-5.21292,-0.011318,-0.397955,0.269179,
2,1,0,1,0,22805.3,0.276965,0.27665,0.895225,12,0.0188185,10,0.000247664,-3.04807,-1.66558,-0.035423,-1.23351,0.27665,
2,1,0,1,0,22805.7,0.284456,0.284148,0.885919,12,0.0191584,10,0.000251732,-3.05261,-2.42421,-0.0243378,-0.839181,0.284148,
2,1,0,1,0,22806,0.291947,0.29165,0.876901,12,0.0194949,10,0.000255748,-3.05705,-0.760522,-0.0775783,-2.65327,0.29165,
2,1,0,1,0,22806.4,0.299436,0.299161,0.863835,12,0.019828,10,0.000258426,-3.06357,-0.00276049,-21.373,-369.789,0.299161,
2,0,0,1,0,22806.8,0.293745,0.293412,-0.211551,12,0.0198338,10,-6.20717e-05,-3.67458,-0.0220896,-2.67094,20.8561,0.293412,
2,0,0,1,0,22807.1,0.286254,0.285983,-0.308239,12,0.019727,10,-8.8151e-05,-3.51111,-0.0706323,-0.835312,10.1354,0.285983,
2,0,0,1,0,22807.5,0.278763,0.278443,-0.372468,12,0.0195909,10,-0.000103711,-3.42891,-0.128611,-0.458749,6.66677,0.278443,
2,0,0,1,0,22807.9,0.271272,0.270997,-0.420401,12,0.0194347,10,-0.000113928,-3.37634,-0.148313,-0.397808,6.52601,0.270997,
2,0,0,1,0,22808.3,0.263781,0.263485,-0.461158,12,0.0192619,10,-0.000121508,-3.33615,-0.199245,-0.296117,5.33805,0.2634846,
2,0,0,1,0,22808.6,0.25629,0.256003,-0.49798,12,0.0190754,10,-0.000127484,-3.30279,-0.264105,-0.223396,4.30754,0.2560026,
2,0,0,1,0,22809,0.248799,0.248477,-0.527144,12,0.0188766,10,-0.000130983,-3.27807,-0.368107,-0.160279,3.29812,0.248477,
2,0,0,1,0,22809.4,0.241308,0.240983,-0.552845,12,0.0186667,10,-0.000133227,-3.2574,-0.38661,-0.152609,3.31535,0.2409834,
2,0,0,1,0,22809.8,0.233817,0.233499,-0.580296,12,0.0184463,10,-0.000135498,-3.23635,-0.382206,-0.154367,3.52237,0.233499,
2,0,0,1,0,22810.1,0.226326,0.22604,-0.610914,12,0.0182159,10,-0.000138091,-3.21402,-0.423311,-0.139377,3.32219,0.22604,
2,0,0,1,0,22810.5,0.218835,0.218457,-0.634678,12,0.0179756,10,-0.00013865,-3.19745,-0.353743,-0.166788,4.12912,0.2184568,
2,0,0,1,0,22810.9,0.211344,0.211056,-0.660931,12,0.017726,10,-0.000139494,-3.17984,-0.537089,-0.109851,2.83124,0.211056,
2,0,0,1,0,22811.3,0.203855,0.203528,-0.686073,12,0.0174662,10,-0.000139635,-3.16363,-0.503131,-0.117266,3.15424,0.203528,
2,0,0,1,0,22811.6,0.196362,0.196058,-0.715459,12,0.0171963,10,-0.000140272,-3.14542,-0.431642,-0.136687,3.82077,0.196058,
2,0,0,1,0,22812,0.188871,0.188547,-0.748681,12,0.016915,10,-0.000141161,-3.1257,-0.335883,-0.175657,5.11659,0.188547,
2,0,0,1,0,22812.4,0.18138,0.181072,-0.785701,12,0.0166211,10,-0.000142269,-3.10474,-0.306669,-0.19239,5.89289,0.181072,
2,0,0,1,0,22812.8,0.173891,0.173552,-0.832825,12,0.0163118,10,-0.000144538,-3.07945,-0.24432,-0.241486,7.82914,0.173552,
2,0,0,1,0,22813.1,0.166398,0.166059,-0.890439,12,0.0159825,10,-0.000147865,-3.0504,-0.232321,-0.253959,8.85645,0.166059,
2,0,0,1,0,22813.5,0.158906,0.158576,-0.977825,12,0.0156259,10,-0.00015506,-3.00974,-0.157099,-0.37556,14.4069,0.158576,
2,0,0,1,0,22813.9,0.151417,0.151088,-1.12389,12,0.0152268,10,-0.000169807,-2.94927,-0.102843,-0.573688,25.2679,0.151088,
2,0,0,1,0,22814.3,0.143926,0.143619,-1.36447,12,0.0147574,10,-0.000195965,-2.86503,-0.0747489,-0.789309,42.0567,0.1436193,
2,0,0,1,0,22814.6,0.136435,0.136078,-1.71443,12,0.0141759,10,-0.000233295,-2.76588,-0.0797466,-0.739843,49.3584,0.136078,
2,0,0,1,0,22815,0.128942,0.128587,-2.06844,12,0.013458,10,-0.000265976,-2.68436,-0.114611,-0.514785,41.4496,0.128587,
2,0,0,1,0,22815.4,0.121453,0.121131,-2.31781,12,0.0126248,10,-0.000280758,-2.63492,-0.220861,-0.267137,24.1126,0.121131,
2,0,0,1,0,22815.8,0.113962,0.113673,-2.42255,12,0.0117247,10,-0.000275377,-2.61573,-1.37796,-0.0428169,4.04554,0.113673,
2,0,0,1,0,22816.1,0.106471,0.106178,-2.40393,12,0.0108094,10,-0.000255243,-2.61908,0.669545,0.0881196,-8.27223,0.106178,
2,0,0,1,0,22816.5,0.0989798,0.0986613,-2.31612,12,0.00991654,10,-0.000228512,-2.63524,0.377853,0.156145,-14.0992,0.0986613,
2,0,0,1,0,22816.9,0.0914889,0.0911571,-2.20922,12,0.00906289,10,-0.000201386,-2.65576,0.404465,0.145872,-12.56,0.0911571,
2,0,0,1,0,22817.3,0.083998,0.0837311,-2.11893,12,0.00824672,10,-0.00017742,-2.67388,0.416701,0.141588,-11.6934,0.0837311,
2,0,0,1,0,22817.6,0.076507,0.0761478,-2.05134,12,0.00745945,10,-0.000156205,-2.68796,0.496403,0.118855,-9.49616,0.0761478,
2,0,0,1,0,22818,0.069016,0.0687263,-1.98491,12,0.00669685,10,-0.000136416,-2.70226,0.554542,0.106394,-8.25375,0.0687263,
2,0,0,1,0,22818.4,0.0615251,0.0611973,-1.92546,12,0.00595651,10,-0.000117833,-2.71547,0.531396,0.111028,-8.35561,0.0611973,
2,0,0,1,0,22818.8,0.0540342,0.053717,-1.86742,12,0.00523916,10,-0.000100312,-2.72876,0.61164,0.096462,-7.02167,0.053717,
2,0,0,1,0,22819.1,0.0465432,0.0462202,-1.80006,12,0.00454498,10,-8.3199e-05,-2.74471,0.513042,0.115,-8.0846,0.0462202,
2,0,0,1,0,22819.5,0.0390523,0.0387518,-1.73019,12,0.00387654,10,-6.70481e-05,-2.76191,0.374597,0.157503,-10.6285,0.0387518,
2,0,0,1,0,22819.9,0.0315626,0.0312211,-1.65825,12,0.00323538,10,-5.17725e-05,-2.78035,0.383443,0.153869,-9.94498,0.0312211,
2,0,0,1,0,22820.2,0.0240704,0.0238206,-1.5836,12,0.00262104,10,-3.77224e-05,-2.80035,0.406421,0.14517,-9.00144,0.0238206,
2,0,0,1,0,22820.6,0.0165785,0.0162862,-1.52955,12,0.00203058,10,-2.49106e-05,-2.81544,0.569354,0.103626,-6.1965,0.0162862,
2,0,0,1,0,22821,0.00908845,0.00873135,-1.49085,12,0.00145839,10,-1.30171e-05,-2.82657,0.965808,0.0610888,-3.55547,0.008731355,
2,0,0,1,0,22821.4,0.0015984,0.00122919,-1.49163,12,0.000896228,10,-1.83349e-06,-2.82634, , , ,0.00122919,
2,0,0,1,0,22821.4,0.000199195,-0.000161388,-1.47716,12,0.000791082,10,2.38397e-07,-2.83057, , , ,-0.000161388,