Folder: Figs_alphaMnO2_OER_Tafel_sleope/Figure_codes/Fig_3-5/rawdata_trumpetplot_data/after 10th (part 168)

File: 20221101_1-115_003_TrumpetPlot_ParaChange_from10_every3_11_CV_C01_23.csv
mode,ox/red,error,control changes,counter inc.,time/s,control/V,Ewe/V,<I>/mA,cycle number,(Q-Qo)/C,I Range,P/W,log(|I|),Tafel slope mV/dec,alpha_eff,dI/d(E-IR),E-IR/V,
2,1,0,1,0,46507.5,2.44065e-05,-0.000363498,9.53903,24,0.0000000E+000,10,-3.46742e-06,-2.0205, , , ,-0.000363498,
2,1,0,1,0,46507.5,0.0101427,0.00979838,12.8242,24,0.000288993,10,0.000125657,-1.89197,0.136039,0.433701,216.109,0.00979838,
2,1,0,1,0,46507.6,0.0205441,0.0202116,14.6791,24,0.00064822,10,0.000296687,-1.8333,0.222801,0.26481,151.498,0.0202116,
2,1,0,1,0,46507.6,0.0309482,0.0306089,16.0693,24,0.00104873,10,0.000491864,-1.794,0.308191,0.19144,119.859,0.0306089,
2,1,0,1,0,46507.6,0.0413439,0.0409743,17.2062,24,0.00148162,10,0.000705013,-1.76431,0.390055,0.151261,101.469,0.0409743,
2,1,0,1,0,46507.6,0.0517425,0.0514151,18.2334,24,0.00194264,10,0.000937474,-1.73913,0.421556,0.139958,99.6842,0.0514151,
2,1,0,1,0,46507.7,0.0621438,0.0618336,19.2719,24,0.0024304,10,0.00119165,-1.71507,0.440646,0.133894,100.659,0.06183359,
2,1,0,1,0,46507.7,0.0725479,0.0721641,20.3152,24,0.00294504,10,0.00146603,-1.69218,0.455583,0.129504,102.622,0.0721641,
2,1,0,1,0,46507.7,0.0829437,0.0826218,21.3688,24,0.00348703,10,0.00176553,-1.67022,0.468886,0.12583,105.02,0.0826218,
2,1,0,1,0,46507.8,0.0933422,0.0929523,22.4638,24,0.00405725,10,0.00208806,-1.64852,0.498253,0.118414,103.831,0.0929523,
2,1,0,1,0,46507.8,0.103749,0.103415,23.53,24,0.00465519,10,0.00243337,-1.62838,0.517352,0.114042,104.7,0.1034153,
2,1,0,1,0,46507.8,0.114148,0.113803,24.6359,24,0.00528139,10,0.00280364,-1.60843,0.519731,0.11352,109.123,0.113803,
2,1,0,1,0,46507.8,0.124543,0.124194,25.8208,24,0.00593709,10,0.00320678,-1.58803,0.484544,0.121764,122.747,0.124194,
2,1,0,1,0,46507.9,0.134942,0.134585,27.1767,24,0.00662595,10,0.00365757,-1.5658,0.460259,0.128189,135.989,0.134585,
2,1,0,1,0,46507.9,0.145349,0.145016,28.5969,24,0.00735106,10,0.00414702,-1.54368,0.499164,0.118198,131.798,0.145016,
2,1,0,1,0,46507.9,0.155747,0.155388,29.8851,24,0.00811166,10,0.00464379,-1.52454,0.5896,0.100068,116.686,0.155388,
2,1,0,1,0,46507.9,0.166143,0.165783,30.9268,24,0.0089033,10,0.00512715,-1.50966,0.900019,0.0655542,79.0768,0.165783,
2,1,0,1,0,46508,0.176542,0.176176,31.3949,24,0.00971532,10,0.00553104,-1.50314,16.7944,0.00351307,4.29715,0.176176,
2,1,0,1,0,46508,0.186949,0.186621,30.9275,24,0.0105277,10,0.00577173,-1.50965,-0.751712,-0.0784875,-94.5885,0.186621,
2,1,0,1,0,46508,0.197347,0.197021,29.4578,24,0.0113145,10,0.0058038,-1.5308,-0.368218,-0.160231,-183.95,0.197021,
2,1,0,1,0,46508,0.207743,0.207433,27.2499,24,0.0120525,10,0.00565252,-1.56464,-0.266226,-0.221616,-235.353,0.207433,
2,1,0,1,0,46508.1,0.218141,0.217827,24.7612,24,0.0127283,10,0.00539365,-1.60623,-0.2427,-0.243098,-235.022,0.217827,
2,1,0,1,0,46508.1,0.228548,0.228234,22.484,24,0.0133415,10,0.00513162,-1.64813,-0.258213,-0.228494,-200.596,0.228234,
2,1,0,1,0,46508.1,0.238947,0.238653,20.5927,24,0.0139004,10,0.00491451,-1.68629,-0.290916,-0.202808,-162.995,0.2386532,
2,1,0,1,0,46508.1,0.249343,0.248987,19.0844,24,0.0144152,10,0.00475177,-1.71932,-0.340928,-0.173057,-129.005,0.248987,
2,1,0,1,0,46508.2,0.259741,0.259448,17.9123,24,0.0148955,10,0.00464729,-1.74685,-0.40904,-0.14424,-100.898,0.259448,
2,1,0,1,0,46508.2,0.270148,0.269812,16.9827,24,0.0153485,10,0.00458214,-1.76999,-0.498431,-0.118371,-78.4802,0.2698122,
2,1,0,1,0,46508.2,0.280547,0.280223,16.234,24,0.0157799,10,0.00454916,-1.78957,-0.573516,-0.102874,-65.2035,0.280223,
2,1,0,1,0,46508.2,0.290942,0.290646,15.6186,24,0.0161938,10,0.0045395,-1.80636,-0.665867,-0.0886063,-54.0349,0.290646,
2,1,0,0,0,46508.3,0.300012,0.299727,15.1596,24,0.0165431,10,0.00454376,-1.81931,0.00167447,35.2349,18530.6,0.299727,
2,1,0,1,0,46508.3,0.290704,0.290421,5.68648,24,0.0167647,10,0.00165147,-2.24516,0.020043,2.94367,648.641,0.290421,
2,1,0,1,0,46508.3,0.280305,0.280052,0.690981,24,0.0168409,10,0.000193511,-3.16053,0.00935756,6.30506,367.132,0.280052,
2,0,0,1,0,46508.3,0.269909,0.269606,-2.35293,24,0.0168161,10,-0.000634364,-2.62839,-0.021601,-2.73135,236.014,0.269606,
2,0,0,1,0,46508.4,0.2595,0.25919,-4.37805,24,0.016727,10,-0.00113475,-2.35872,-0.0611856,-0.964279,162.748,0.25919,
2,0,0,1,0,46508.4,0.249104,0.248762,-5.82255,24,0.0165932,10,-0.00144843,-2.23489,-0.111374,-0.529746,120.006,0.248762,
2,0,0,1,0,46508.4,0.238705,0.238389,-6.9285,24,0.0164267,10,-0.00165168,-2.15936,-0.165899,-0.355639,96.0813,0.238389,
2,0,0,1,0,46508.4,0.22831,0.228009,-7.81068,24,0.0162345,10,-0.0017809,-2.10731,-0.23092,-0.2555,77.8691,0.228009,
2,0,0,1,0,46508.5,0.2179,0.21756,-8.56996,24,0.0160212,10,-0.00186448,-2.06702,-0.299534,-0.196973,65.727,0.21756,
2,0,0,1,0,46508.5,0.207504,0.207239,-9.1984,24,0.01579,10,-0.00190626,-2.03629,-0.367038,-0.160746,57.8171,0.207239,
2,0,0,1,0,46508.5,0.197106,0.196799,-9.80256,24,0.0155426,10,-0.00192913,-2.00866,-0.409065,-0.144232,55.1904,0.196799,
2,0,0,1,0,46508.6,0.18671,0.186363,-10.3708,24,0.0152804,10,-0.00193273,-1.98419,-0.442324,-0.133386,53.9479,0.186363,
2,0,0,1,0,46508.6,0.1763,0.175966,-10.9362,24,0.0150034,10,-0.0019244,-1.96113,-0.439347,-0.13429,57.3663,0.175966,
2,0,0,1,0,46508.6,0.165905,0.165574,-11.5658,24,0.014711,10,-0.00191501,-1.93682,-0.413831,-0.14257,64.3622,0.165574,
2,0,0,1,0,46508.6,0.155506,0.155155,-12.3199,24,0.0144008,10,-0.00191149,-1.90939,-0.342585,-0.17222,82.8188,0.155155,
2,0,0,1,0,46508.7,0.145105,0.144782,-13.324,24,0.0140681,10,-0.00192907,-1.87536,-0.262051,-0.225147,117.302,0.144782,
2,0,0,1,0,46508.7,0.134701,0.134388,-14.836,24,0.0137032,10,-0.00199378,-1.82868,-0.194682,-0.303058,175.756,0.134388,
2,0,0,1,0,46508.7,0.124305,0.123991,-16.9939,24,0.0132905,10,-0.0021071,-1.76971,-0.168624,-0.349892,232.145,0.123991,
2,0,0,1,0,46508.7,0.113906,0.113625,-19.5699,24,0.0128154,10,-0.00222363,-1.70841,-0.176904,-0.333514,254.654,0.113625,
2,0,0,1,0,46508.8,0.103505,0.103246,-22.1532,24,0.0122727,10,-0.00228722,-1.65456,-0.208642,-0.282781,244.159,0.103246,
2,0,0,1,0,46508.8,0.0931008,0.0927932,-24.5012,24,0.0116653,10,-0.00227354,-1.61081,-0.270231,-0.218331,208.473,0.0927932,
2,0,0,1,0,46508.8,0.0827051,0.0824108,-26.4049,24,0.0110023,10,-0.00217605,-1.57831,-0.387863,-0.152115,156.556,0.0824108,
2,0,0,1,0,46508.8,0.0723065,0.0720008,-27.7887,24,0.0102965,10,-0.00200081,-1.55613,-0.604066,-0.0976714,105.835,0.0720008,
2,0,0,1,0,46508.9,0.0618997,0.061612,-28.6044,24,0.00956221,10,-0.00176237,-1.54357,-1.197,-0.0492901,54.977,0.061612,
2,0,0,1,0,46508.9,0.0515011,0.0511839,-28.9638,24,0.0088132,10,-0.00148248,-1.53814,-3.61509,-0.0163205,18.4242,0.05118392,
2,0,0,1,0,46508.9,0.0411053,0.0407771,-28.9929,24,0.00805934,10,-0.00118224,-1.53771,9.94994,0.00592968,-6.70983,0.0407771,
2,0,0,1,0,46508.9,0.0307068,0.030383,-28.854,24,0.0073068,10,-0.000876672,-1.53979,3.52231,0.0167504,-18.8708,0.030383,
2,0,0,1,0,46509,0.0202999,0.0199295,-28.609,24,0.00655955,10,-0.000570164,-1.5435,2.02613,0.0291196,-32.4829,0.0199295,
2,0,0,1,0,46509,0.00990136,0.00965416,-28.1742,24,0.00582116,10,-0.000271999,-1.55015,1.28426,0.0459407,-50.4926,0.00965416,
2,0,0,1,0,46509,-0.000494411,-0.000879916,-27.5841,24,0.00509602,10,2.42717e-05,-1.55934,0.96285,0.0612764,-65.9163,-0.000879916,
2,0,0,1,0,46509,-0.010893,-0.0112359,-26.796,24,0.00438897,10,0.000301075,-1.57193,0.772351,0.0763901,-79.8397,-0.0112359,
2,0,0,1,0,46509.1,-0.0212998,-0.0216522,-25.9464,24,0.00370353,10,0.000561798,-1.58592,0.745988,0.0790897,-80.0832,-0.0216522,
2,0,0,1,0,46509.1,-0.0316984,-0.0320368,-25.1905,24,0.00303924,10,0.000807024,-1.59876,0.889659,0.0663176,-65.1974,-0.0320368,
2,0,0,1,0,46509.1,-0.0420942,-0.0424171,-24.6,24,0.00239253,10,0.00104346,-1.60907,1.21275,0.0486496,-46.7363,-0.04241712,
2,0,0,1,0,46509.2,-0.0524927,-0.0528876,-24.2276,24,0.0017582,10,0.00128134,-1.61569,2.1624,0.0272845,-25.8141,-0.0528876,
2,0,0,1,0,46509.2,-0.0628996,-0.0632838,-24.0643,24,0.0011309,10,0.00152288,-1.61863,7.75464,0.00760835,-7.14566,-0.0632838,
2,0,0,1,0,46509.2,-0.0732982,-0.0736981,-24.0551,24,0.000505756,10,0.00177281,-1.61879,-5.61159,-0.010514,9.87655,-0.0736981,
2,0,0,1,0,46509.2,-0.0836939,-0.0840688,-24.2183,24,-0.000121521,10,0.002036,-1.61586,-2.4867,-0.0237262,22.4275,-0.0840688,
2,0,0,1,0,46509.3,-0.0940925,-0.0944587,-24.5113,24,-0.000754743,10,0.0023153,-1.61063,-1.63152,-0.0361627,34.6051,-0.0944587,
2,0,0,1,1,46509.3,-0.0978574,-0.0982921,-20.6788,24,-0.00124502,10,0.00203257,-1.68447,-0.0317762,-1.85674,1480.45,-0.0982921,
2,0,0,1,1,46509.3,-0.0874588,-0.0878662,-10.2362,24,-0.00163169,10,0.000899418,-1.98986,-0.030674,-1.92345,765.079,-0.0878662,
2,0,0,1,1,46509.3,-0.077052,-0.0774265,-3.58329,24,-0.00180576,10,0.000277442,-2.44572,-0.0142188,-4.14943,544.343,-0.0774265,
2,1,0,1,1,46509.4,-0.0666562,-0.067044,1.35238,24,-0.00183138,10,-9.06692e-05,-2.8689,0.00318684,18.5136,414.418,-0.067044,
2,1,0,1,1,46509.4,-0.0562576,-0.0566913,5.17896,24,-0.00174406,10,-0.000293602,-2.28576,0.035635,1.65568,327.904,-0.0566913,
2,1,0,1,1,46509.4,-0.0458563,-0.0462632,8.24125,24,-0.00156776,10,-0.000381266,-2.08401,0.0723235,0.815779,260.364,-0.0462632,
2,1,0,1,1,46509.4,-0.0354522,-0.0358097,10.6655,24,-0.00132056,10,-0.000381929,-1.97202,0.118356,0.498498,206.672,-0.0358097,
2,1,0,1,1,46509.5,-0.0250564,-0.0254411,12.5803,24,-0.00101721,10,-0.000320056,-1.90031,0.179693,0.328338,160.836,-0.0254411,
2,1,0,1,1,46509.5,-0.0146579,-0.0150332,14.0749,24,-0.000669787,10,-0.000211591,-1.85155,0.254201,0.2321,127.3,-0.0150332,
2,1,0,1,1,46509.5,-0.00425653,-0.00462952,15.2344,24,-0.000287984,10,-7.0528e-05,-1.81717,0.363332,0.162386,96.5011,-0.004629516,
2,1,0,0,1,46509.5,-7.54729e-05,-0.000382585,15.6348,24,-0.000125869,10,-5.98163e-06,-1.80591, , , ,-0.000382585,

File: 20221101_1-115_003_TrumpetPlot_ParaChange_from10_every3_11_CV_C01_24.csv
mode,ox/red,error,control changes,counter inc.,time/s,control/V,Ewe/V,<I>/mA,cycle number,(Q-Qo)/C,I Range,P/W,log(|I|),Tafel slope mV/dec,alpha_eff,dI/d(E-IR),E-IR/V,
2,1,0,1,0,48477.7,2.44065e-05,-0.000248974,9.53395,25,0.0000000E+000,10,-2.37371e-06,-2.02073, , , ,-0.000248974,
2,1,0,1,0,48477.7,0.0101427,0.00978353,12.6668,25,0.000286173,10,0.000123926,-1.89733,0.137951,0.42769,210.613,0.00978353,
2,1,0,1,0,48477.7,0.0205441,0.0201607,14.4912,25,0.000640901,10,0.000292152,-1.8389,0.22334,0.264172,149.243,0.0201607,
2,1,0,1,0,48477.7,0.0309482,0.0305951,15.878,25,0.00103649,10,0.00048579,-1.7992,0.306662,0.192394,118.971,0.0305951,
2,1,0,1,0,48477.8,0.0413439,0.0409892,17.0034,25,0.0014643,10,0.000696955,-1.76946,0.385479,0.153056,101.524,0.0409892,
2,1,0,1,0,48477.8,0.0517425,0.0514087,18.0294,25,0.00192006,10,0.000926869,-1.74402,0.427018,0.138168,97.2838,0.0514087,
2,1,0,1,0,48477.8,0.0621438,0.0618071,19.0471,25,0.00240212,10,0.00117724,-1.72017,0.449265,0.131326,97.5502,0.06180707,
2,1,0,1,0,48477.8,0.0725479,0.072163,20.0557,25,0.00291041,10,0.00144728,-1.69776,0.465735,0.126682,99.1277,0.072163,
2,1,0,1,0,48477.9,0.0829437,0.0825709,21.09,25,0.00344532,10,0.00174142,-1.67592,0.479962,0.122926,101.217,0.0825709,
2,1,0,1,0,48477.9,0.0933422,0.0929968,22.1519,25,0.00400766,10,0.00206006,-1.65459,0.509649,0.115766,100.038,0.0929968,
2,1,0,1,0,48477.9,0.103749,0.103374,23.2108,25,0.00459707,10,0.00239939,-1.63431,0.521359,0.113166,102.443,0.103374,
2,1,0,1,0,48477.9,0.114148,0.113804,24.2602,25,0.00521424,10,0.00276091,-1.61511,0.537486,0.10977,103.964,0.1138041,
2,1,0,1,0,48478,0.124543,0.124188,25.4005,25,0.00585971,10,0.00315443,-1.59516,0.499035,0.118228,117.239,0.1241876,
2,1,0,1,0,48478,0.134942,0.13458,26.6821,25,0.00653674,10,0.00359087,-1.57378,0.476286,0.123875,129.032,0.1345796,
2,1,0,1,0,48478,0.145349,0.144977,28.0507,25,0.00724835,10,0.0040667,-1.55206,0.498201,0.118426,129.566,0.144977,
2,1,0,1,0,48478,0.155747,0.155405,29.3333,25,0.00799469,10,0.00455854,-1.53264,0.582636,0.101264,115.877,0.155405,
2,1,0,1,0,48478.1,0.166143,0.16582,30.4044,25,0.00877207,10,0.00504166,-1.51706,0.822887,0.0716987,85.0066,0.16582,
2,1,0,1,0,48478.1,0.176542,0.176168,31.0002,25,0.0095718,10,0.00546123,-1.50864,3.27572,0.0180113,21.7618,0.176168,
2,1,0,1,0,48478.1,0.186949,0.186602,30.7936,25,0.010377,10,0.00574615,-1.51154,-1.08336,-0.0544602,-65.366,0.186602,
2,1,0,1,0,48478.1,0.197347,0.197022,29.6508,25,0.0111647,10,0.00584185,-1.52796,-0.450728,-0.130899,-151.255,0.197022,
2,1,0,1,0,48478.2,0.207743,0.207408,27.7209,25,0.0119115,10,0.00574953,-1.55719,-0.298089,-0.197928,-213.767,0.207408,
2,1,0,1,0,48478.2,0.218141,0.217801,25.3495,25,0.0126016,10,0.00552116,-1.59603,-0.255557,-0.230868,-228.506,0.217801,
2,1,0,1,0,48478.2,0.228548,0.228223,23.0605,25,0.0132302,10,0.00526293,-1.63713,-0.256212,-0.230278,-207.31,0.228223,
2,1,0,1,0,48478.2,0.238947,0.238636,21.0772,25,0.0138029,10,0.00502978,-1.67619,-0.277928,-0.212286,-174.621,0.238636,
2,1,0,1,0,48478.3,0.249343,0.249022,19.4587,25,0.0143289,10,0.00484563,-1.71089,-0.322985,-0.182671,-138.847,0.249022,
2,1,0,1,0,48478.3,0.259741,0.259428,18.1808,25,0.0148175,10,0.0047166,-1.74039,-0.389457,-0.151493,-107.591,0.259428,
2,1,0,1,0,48478.3,0.270148,0.269823,17.1824,25,0.0152766,10,0.0046362,-1.76492,-0.467036,-0.126329,-84.7068,0.269823,
2,1,0,1,0,48478.4,0.280547,0.280187,16.3661,25,0.0157123,10,0.00458558,-1.78605,-0.538724,-0.109518,-69.9925,0.280187,
2,1,0,1,0,48478.4,0.290942,0.290625,15.707,25,0.016129,10,0.00456485,-1.80391,-0.634147,-0.0930383,-57.084,0.290625,
2,1,0,0,0,48478.4,0.300012,0.299632,15.2143,25,0.01648,10,0.0045587,-1.81775,0.00179151,32.9332,17536.9,0.299632,
2,1,0,1,0,48478.4,0.290704,0.290388,6.08284,25,0.0167087,10,0.00176638,-2.21589,0.0216946,2.71957,642.749,0.290388,
2,1,0,1,0,48478.4,0.280305,0.279998,1.0761,25,0.0167955,10,0.000301306,-2.96815,0.00336828,17.5164,371.493,0.279998,
2,0,0,1,0,48478.5,0.269909,0.269572,-2.03371,25,0.0167799,10,-0.000548232,-2.69171,-0.0177295,-3.32778,243.081,0.2695725,
2,0,0,1,0,48478.5,0.2595,0.259201,-4.13039,25,0.016698,10,-0.0010706,-2.38401,-0.0556831,-1.05957,168.401,0.259201,
2,0,0,1,0,48478.5,0.249104,0.248775,-5.63482,25,0.01657,10,-0.0014018,-2.24912,-0.103804,-0.568379,124.501,0.248775,
2,0,0,1,0,48478.6,0.238705,0.23842,-6.78635,25,0.0164077,10,-0.001618,-2.16836,-0.157122,-0.375505,99.2582,0.23842,
2,0,0,1,0,48478.6,0.22831,0.227992,-7.69976,25,0.0162188,10,-0.00175548,-2.11352,-0.222766,-0.264852,79.5598,0.227992,
2,0,0,1,0,48478.6,0.2179,0.217607,-8.47388,25,0.0160081,10,-0.00184398,-2.07192,-0.286819,-0.205704,67.947,0.217607,
2,0,0,1,0,48478.6,0.207504,0.207193,-9.1291,25,0.015779,10,-0.00189149,-2.03957,-0.353921,-0.166704,59.4379,0.207193,
2,0,0,1,0,48478.7,0.197106,0.196803,-9.72962,25,0.0155335,10,-0.00191482,-2.0119,-0.395164,-0.149305,56.7124,0.196803,
2,0,0,1,0,48478.7,0.18671,0.186393,-10.2985,25,0.015273,10,-0.00191957,-1.98723,-0.451252,-0.130747,52.5362,0.186393,
2,0,0,1,0,48478.7,0.1763,0.175966,-10.8621,25,0.0149979,10,-0.00191136,-1.96409,-0.449263,-0.131326,55.7068,0.175966,
2,0,0,1,0,48478.7,0.165905,0.165585,-11.4798,25,0.0147075,10,-0.00190088,-1.94007,-0.419699,-0.140577,62.9578,0.1655848,
2,0,0,1,0,48478.8,0.155506,0.155204,-12.1998,25,0.0144,10,-0.00189347,-1.91365,-0.364092,-0.162047,77.1768,0.155204,
2,0,0,1,0,48478.8,0.145105,0.144758,-13.1434,25,0.0140711,10,-0.00190262,-1.88129,-0.276238,-0.213584,109.804,0.144758,
2,0,0,1,0,48478.8,0.134701,0.134383,-14.5384,25,0.0137123,10,-0.00195372,-1.83748,-0.208094,-0.283526,161.017,0.134383,
2,0,0,1,0,48478.8,0.124305,0.124009,-16.5234,25,0.0133098,10,-0.00204906,-1.7819,-0.176191,-0.334863,216.019,0.124009,
2,0,0,1,0,48478.9,0.113906,0.113581,-18.9348,25,0.0128491,10,-0.00215065,-1.72274,-0.181219,-0.325573,240.662,0.113581,
2,0,0,1,0,48478.9,0.103505,0.103266,-21.4088,25,0.0123239,10,-0.0022108,-1.66941,-0.213539,-0.276296,230.764,0.103266,
2,0,0,1,0,48478.9,0.0931008,0.0928017,-23.7364,25,0.0117363,10,-0.00220278,-1.62458,-0.263219,-0.224148,207.341,0.0928017,
2,0,0,1,0,48478.9,0.0827051,0.0824044,-25.6757,25,0.0110928,10,-0.00211579,-1.59048,-0.365644,-0.161359,161.517,0.0824044,
2,0,0,1,0,48479,0.0723065,0.0720336,-27.1347,25,0.010405,10,-0.00195461,-1.56647,-0.526135,-0.112139,118.692,0.0720336,
2,0,0,1,0,48479,0.0618997,0.0616098,-28.1237,25,0.00968543,10,-0.00173269,-1.55093,-0.945598,-0.0623944,68.3936,0.0616098,
2,0,0,1,0,48479,0.0515011,0.05115,-28.6166,25,0.00894714,10,-0.00146374,-1.54338,-2.25726,-0.0261379,29.1556,0.05115,
2,0,0,1,0,48479,0.0411053,0.0408078,-28.764,25,0.00820069,10,-0.0011738,-1.54115,-27.6434,-0.00213432,2.39603,0.0408078,
2,0,0,1,0,48479.1,0.0307068,0.0304243,-28.7153,25,0.00745295,10,-0.000873645,-1.54189,6.25885,0.00942665,-10.5658,0.0304243,
2,0,0,1,0,48479.1,0.0202999,0.0199762,-28.5382,25,0.00670848,10,-0.000570083,-1.54457,2.6261,0.0224668,-24.9943,0.0199762,
2,0,0,1,0,48479.1,0.00990136,0.00959054,-28.169,25,0.00597109,10,-0.000270156,-1.55023,1.54199,0.0382622,-42.0647,0.00959054,
2,0,0,1,0,48479.2,-0.000494411,-0.000824775,-27.6723,25,0.00524489,10,2.28234e-05,-1.55795,1.12163,0.0526019,-56.7465,-0.000824775,
2,0,0,1,0,48479.2,-0.010893,-0.0113048,-26.9526,25,0.00453472,10,0.000304693,-1.5694,0.839708,0.0702625,-73.8476,-0.0113048,
2,0,0,1,0,48479.2,-0.0212998,-0.0216904,-26.128,25,0.00384482,10,0.000566727,-1.58289,0.753149,0.0783378,-79.872,-0.0216904,
2,0,0,1,0,48479.2,-0.0316984,-0.0320919,-25.3415,25,0.00317606,10,0.000813257,-1.59617,0.85243,0.0692139,-68.4803,-0.0320919,
2,0,0,1,0,48479.3,-0.0420942,-0.0424765,-24.7168,25,0.00252569,10,0.00104988,-1.60701,1.08534,0.0543608,-52.4486,-0.0424765,
2,0,0,1,0,48479.3,-0.0524927,-0.052825,-24.2871,25,0.00188908,10,0.00128297,-1.61462,1.69664,0.0347747,-32.9743,-0.052825,
2,0,0,1,0,48479.3,-0.0628996,-0.0633167,-24.069,25,0.00126099,10,0.00152397,-1.61854,4.46649,0.0132095,-12.4081,-0.06331668,
2,0,0,1,0,48479.3,-0.0732982,-0.0736535,-24.0093,25,0.000636447,10,0.00176837,-1.61962,-11.2306,-0.00525352,4.92472,-0.0736535,
2,0,0,1,0,48479.4,-0.0836939,-0.0840805,-24.1319,25,1.0988e-05,10,0.00202903,-1.61741,-2.92822,-0.0201488,18.9714,-0.0840805,
2,0,0,1,0,48479.4,-0.0940925,-0.0944545,-24.3729,25,-0.000619278,10,0.00230213,-1.61309,-1.77478,-0.0332435,31.63,-0.09445446,
2,0,0,1,1,48479.4,-0.0978574,-0.0982624,-20.7847,25,-0.00110732,10,0.00204235,-1.68226,-0.0337805,-1.74657,1398.88,-0.0982624,
2,0,0,1,1,48479.4,-0.0874588,-0.0878799,-10.7171,25,-0.00150263,10,0.000941818,-1.96992,-0.0328469,-1.79621,748.269,-0.0878799,
2,0,0,1,1,48479.5,-0.0770519,-0.0774699,-4.18523,25,-0.00169104,10,0.000324229,-2.37828,-0.017358,-3.39901,532.353,-0.0774699,
2,1,0,1,1,48479.5,-0.0666562,-0.0670567,0.712748,25,-0.00173301,10,-4.77946e-05,-3.14706,0.0135794,4.34483,410.978,-0.0670567,
2,1,0,1,1,48479.5,-0.0562576,-0.0567188,4.52622,25,-0.00166262,10,-0.000256722,-2.34426,0.0309176,1.9083,329.216,-0.0567188,
2,1,0,1,1,48479.5,-0.0458563,-0.0463279,7.6079,25,-0.00150299,10,-0.000352458,-2.11874,0.0660735,0.892946,263.168,-0.0463279,
2,1,0,1,1,48479.6,-0.0354522,-0.035867,10.0876,25,-0.00127158,10,-0.000361812,-1.99621,0.107788,0.547372,214.444,-0.035867,
2,1,0,1,1,48479.6,-0.0250564,-0.0254633,12.0567,25,-0.000982581,10,-0.000307004,-1.91877,0.164591,0.358465,168.263,-0.0254633,
2,1,0,1,1,48479.6,-0.0146579,-0.0150289,13.6145,25,-0.00064786,10,-0.000204611,-1.866,0.23524,0.250808,133.129,-0.0150289,
2,1,0,1,1,48479.6,-0.00425653,-0.00467087,14.8418,25,-0.000277075,10,-6.93242e-05,-1.82851,0.324381,0.181885,105.309,-0.00467087,
2,1,0,0,1,48479.7,-7.54729e-05,-0.000439847,15.2659,25,-0.000118887,10,-6.71465e-06,-1.81628, , , ,-0.000439847,