Folder: Figs_alphaMnO2_OER_Tafel_sleope/Figure_codes/Fig_3-5/rawdata_trumpetplot_data/after 10th (part 189)

File: 20221101_1-115_003_TrumpetPlot_ParaChange_from10_every3_12_CV_C01_30.csv
mode,ox/red,error,control changes,counter inc.,time/s,control/V,Ewe/V,<I>/mA,cycle number,(Q-Qo)/C,I Range,P/W,log(|I|),Tafel slope mV/dec,alpha_eff,dI/d(E-IR),E-IR/V,
2,1,0,1,0,60300.4,2.44065e-05,-0.000306236,13.4322,31,0.0000000E+000,10,-4.11342e-06,-1.87185, , , ,-0.000306236,
2,1,0,1,0,60300.5,0.0104008,0.0100444,16.3612,31,0.000259147,10,0.000164338,-1.78618,0.179027,0.329558,209.36,0.0100444,
2,1,0,1,0,60300.5,0.0212099,0.0208775,18.3435,31,0.000572366,10,0.000382967,-1.73652,0.25993,0.226984,162.072,0.0208775,
2,1,0,1,0,60300.5,0.0320052,0.031647,19.9662,31,0.000917664,10,0.000631869,-1.69971,0.329936,0.178823,139.12,0.031647,
2,1,0,1,0,60300.5,0.0428033,0.0424525,21.401,31,0.00129024,10,0.000908526,-1.66957,0.393072,0.1501,125.22,0.0424525,
2,1,0,1,0,60300.5,0.0535986,0.0532263,22.6981,31,0.00168729,10,0.00120814,-1.64401,0.443703,0.132972,117.729,0.0532263,
2,1,0,1,0,60300.5,0.0644077,0.064036,23.9566,31,0.00210734,10,0.00153409,-1.62057,0.481086,0.122639,114.603,0.064036,
2,1,0,1,0,60300.6,0.075203,0.0748384,25.1905,31,0.00254974,10,0.00188521,-1.59876,0.504894,0.116856,114.868,0.0748384,
2,1,0,1,0,60300.6,0.0860011,0.0856365,26.4268,31,0.00301443,10,0.0022631,-1.57795,0.52406,0.112583,116.144,0.0856365,
2,1,0,1,0,60300.6,0.0968075,0.0964315,27.6886,31,0.00350166,10,0.00267005,-1.5577,0.543513,0.108553,117.289,0.0964315,
2,1,0,1,0,60300.6,0.107606,0.107199,28.96,31,0.00401167,10,0.00310448,-1.5382,0.554838,0.106337,120.184,0.107199,
2,1,0,1,0,60300.6,0.118401,0.118051,30.2638,31,0.00454471,10,0.00357267,-1.51908,0.560466,0.10527,124.367,0.118051,
2,1,0,1,0,60300.6,0.129207,0.128801,31.6326,31,0.00510188,10,0.00407432,-1.49987,0.569839,0.103538,127.78,0.128801,
2,1,0,1,0,60300.7,0.140005,0.1396,33.1127,31,0.00568436,10,0.00462252,-1.48,0.523009,0.112809,145.754,0.1396,
2,1,0,1,0,60300.7,0.150803,0.1504,34.6715,31,0.00629473,10,0.00521459,-1.46003,0.570984,0.10333,139.785,0.1504,
2,1,0,1,0,60300.7,0.161604,0.161195,36.1556,31,0.00693241,10,0.00582808,-1.44182,0.635581,0.0928284,130.886,0.161195,
2,1,0,1,0,60300.7,0.172405,0.172027,37.485,31,0.00759556,10,0.00644842,-1.42614,0.773086,0.0763175,111.53,0.172027,
2,1,0,1,0,60300.7,0.183203,0.182828,38.5077,31,0.00828013,10,0.00704028,-1.41445,1.18671,0.0497173,74.5983,0.182828,
2,1,0,1,0,60300.8,0.194001,0.193644,39.0169,31,0.00897873,10,0.0075554,-1.40875,4.3882,0.0134452,20.4415,0.193644,
2,1,0,1,0,60300.8,0.204808,0.204418,38.9212,31,0.00968114,10,0.0079562,-1.40981,-2.43216,-0.0242582,-36.7927,0.204418,
2,1,0,1,0,60300.8,0.215603,0.215237,38.2071,31,0.0103762,10,0.00822359,-1.41786,-0.949184,-0.0621586,-92.5783,0.215237,
2,1,0,1,0,60300.8,0.226401,0.226067,36.9282,31,0.0110532,10,0.00834825,-1.43264,-0.599335,-0.0984425,-141.738,0.226067,
2,1,0,1,0,60300.8,0.237207,0.236797,35.2321,31,0.011703,10,0.00834288,-1.45306,-0.473575,-0.124584,-171.17,0.236797,
2,1,0,1,0,60300.8,0.248005,0.24767,33.318,31,0.0123199,10,0.00825185,-1.47732,-0.426175,-0.138441,-179.939,0.24767,
2,1,0,1,0,60300.9,0.258801,0.258451,31.3847,31,0.0129019,10,0.0081114,-1.50328,-0.412122,-0.143162,-175.364,0.258451,
2,1,0,1,0,60300.9,0.26961,0.26927,29.5736,31,0.01345,10,0.0079633,-1.5291,-0.425487,-0.138665,-160.043,0.2692703,
2,1,0,1,0,60300.9,0.280405,0.280068,27.9393,31,0.0139671,10,0.00782491,-1.55378,-0.454548,-0.129799,-141.586,0.2800684,
2,1,0,1,0,60300.9,0.291203,0.290851,26.5095,31,0.0144567,10,0.0077103,-1.5766,-0.490241,-0.120349,-124.584,0.290851,
2,1,0,0,0,60300.9,0.300012,0.299632,25.4735,31,0.0148385,10,0.00763269,-1.59391,0.0035614,16.5665,15078.1,0.299632,
2,1,0,1,0,60300.9,0.290843,0.290521,15.545,31,0.0151406,10,0.00451616,-1.80841,0.045777,1.28886,787.651,0.290521,
2,1,0,1,0,60301,0.280047,0.279718,8.68774,31,0.0153541,10,0.00243012,-2.06109,0.0373011,1.58172,531.973,0.279718,
2,1,0,1,0,60301,0.269244,0.268894,3.78595,31,0.0154636,10,0.00101802,-2.42183,0.0209673,2.8139,392.467,0.268894,
2,1,0,1,0,60301,0.258443,0.25812,0.0846665,31,0.0154966,10,2.18541e-05,-4.07229,0.10149,0.581337,299.234,0.25812,
2,0,0,1,0,60301,0.247645,0.247285,-2.81264,31,0.0154706,10,-0.000695522,-2.55089,-0.0249473,-2.36498,240.087,0.247285,
2,0,0,1,0,60301,0.236849,0.236506,-5.14083,31,0.015398,10,-0.00121584,-2.28897,-0.0599071,-0.984859,193.993,0.236506,
2,0,0,1,0,60301.1,0.22604,0.225743,-7.06292,31,0.0152874,10,-0.0015944,-2.15102,-0.0999127,-0.590515,161.176,0.225743,
2,0,0,1,0,60301.1,0.215245,0.214922,-8.66777,31,0.0151454,10,-0.0018629,-2.06209,-0.144116,-0.409394,137.805,0.214922,
2,0,0,1,0,60301.1,0.204447,0.20411,-10.0524,31,0.0149766,10,-0.00205179,-1.99773,-0.191405,-0.308248,120.47,0.20411,
2,0,0,1,0,60301.1,0.19364,0.193272,-11.2791,31,0.0147844,10,-0.00217994,-1.94772,-0.245473,-0.240352,105.457,0.193272,
2,0,0,1,0,60301.1,0.182842,0.182516,-12.3707,31,0.0145715,10,-0.00225785,-1.90761,-0.288394,-0.204581,98.6303,0.182516,
2,0,0,1,0,60301.1,0.172047,0.171693,-13.4022,31,0.0143394,10,-0.00230106,-1.87282,-0.32054,-0.184064,96.2763,0.171693,
2,0,0,1,0,60301.2,0.161241,0.16092,-14.4342,31,0.0140888,10,-0.00232276,-1.84061,-0.345868,-0.170586,96.1074,0.16092,
2,0,0,1,0,60301.2,0.150443,0.150104,-15.5305,31,0.0138192,10,-0.00233119,-1.80881,-0.329412,-0.179107,108.667,0.150104,
2,0,0,1,0,60301.2,0.139645,0.139268,-16.8338,31,0.0135281,10,-0.0023444,-1.77382,-0.286596,-0.205865,135.548,0.139268,
2,0,0,1,0,60301.2,0.128849,0.128524,-18.5207,31,0.0132105,10,-0.00238035,-1.73234,-0.238462,-0.247419,179.27,0.128524,
2,0,0,1,0,60301.2,0.118043,0.117719,-20.7267,31,0.0128578,10,-0.00243993,-1.68347,-0.211488,-0.278975,225.893,0.117719,
2,0,0,1,0,60301.3,0.107245,0.106933,-23.341,31,0.0124612,10,-0.00249591,-1.63188,-0.214481,-0.275083,250.402,0.106933,
2,0,0,1,0,60301.3,0.0964468,0.0960985,-26.0274,31,0.0120167,10,-0.0025012,-1.58457,-0.243233,-0.242566,246.062,0.0960985,
2,0,0,1,0,60301.3,0.0856404,0.0853502,-28.5693,31,0.0115248,10,-0.00243839,-1.5441,-0.288386,-0.204587,227.863,0.0853502,
2,0,0,1,0,60301.3,0.0748451,0.074585,-30.8741,31,0.010989,10,-0.00230274,-1.51041,-0.361417,-0.163247,196.366,0.074585,
2,0,0,1,0,60301.3,0.0640471,0.0637529,-32.7728,31,0.0104153,10,-0.00208936,-1.48449,-0.482169,-0.122364,156.305,0.0637529,
2,0,0,1,0,60301.3,0.0532407,0.0529484,-34.2647,31,0.00981129,10,-0.00181426,-1.46515,-0.64813,-0.0910311,121.605,0.0529484,
2,0,0,1,0,60301.4,0.0424426,0.0421037,-35.4072,31,0.00918356,10,-0.00149077,-1.45091,-0.910989,-0.0647648,89.4099,0.0421037,
2,0,0,1,0,60301.4,0.0316473,0.0313024,-36.21,31,0.00853844,10,-0.00113346,-1.44117,-1.35392,-0.0435771,61.5458,0.0313024,
2,0,0,1,0,60301.4,0.0208437,0.0204989,-36.7451,31,0.00788143,10,-0.000753237,-1.4348,-2.24037,-0.026335,37.7438,0.0204989,
2,0,0,1,0,60301.4,0.0100429,0.00966901,-37.0485,31,0.00721693,10,-0.000358223,-1.43123,-4.93963,-0.0119442,17.2577,0.00966901,
2,0,0,1,0,60301.4,-0.000755208,-0.00118531,-37.1694,31,0.00654877,10,4.40574e-05,-1.42981,-88.0841,-0.000669814,0.970613,-0.00118531,
2,0,0,1,0,60301.5,-0.0115505,-0.0119336,-37.0358,31,0.00588074,10,0.000441971,-1.43138,3.92794,0.0150206,-21.695,-0.0119336,
2,0,0,1,0,60301.5,-0.0223597,-0.022772,-36.709,31,0.00521685,10,0.000835937,-1.43523,2.16956,0.0271945,-38.9391,-0.02277202,
2,0,0,1,0,60301.5,-0.033155,-0.03355,-36.232,31,0.00456029,10,0.00121558,-1.44091,1.83544,0.0321449,-45.4525,-0.03355,
2,0,0,1,0,60301.5,-0.043953,-0.044346,-35.7059,31,0.00391286,10,0.00158341,-1.44726,1.66441,0.035448,-49.3972,-0.044346,
2,0,0,1,0,60301.5,-0.0547594,-0.0551537,-35.1886,31,0.00327497,10,0.00194078,-1.4536,1.76885,0.0333551,-45.81,-0.0551537,
2,0,0,1,0,60301.5,-0.0655575,-0.0659507,-34.7406,31,0.00264573,10,0.00229117,-1.45916,2.30265,0.0256226,-34.761,-0.0659507,
2,0,0,1,0,60301.6,-0.0763528,-0.0767573,-34.4224,31,0.0020234,10,0.00264217,-1.46316,3.54161,0.0166591,-22.3935,-0.0767573,
2,0,0,1,0,60301.6,-0.0871592,-0.0874939,-34.2409,31,0.00140563,10,0.00299587,-1.46546,6.56092,0.00899265,-12.0228,-0.0874939,
2,0,0,1,0,60301.6,-0.0979573,-0.0983737,-34.1901,31,0.000789907,10,0.00336341,-1.4661,7.07877,0.00833478,-11.1127,-0.0983737,
2,0,0,1,1,60301.6,-0.0955546,-0.0960133,-27.3167,31,0.000443138,10,0.00262277,-1.56357,-0.0510205,-1.1564,1252.82,-0.0960133,
2,0,0,1,1,60301.6,-0.0847538,-0.0851791,-17.3231,31,4.8886e-05,10,0.00147556,-1.76138,-0.0518219,-1.13852,769.165,-0.08517909,
2,0,0,1,1,60301.6,-0.0739557,-0.074417,-10.152,31,-0.000194889,10,0.00075548,-1.99345,-0.0395744,-1.49086,583.965,-0.074417,
2,0,0,1,1,60301.7,-0.0631604,-0.0635956,-4.47653,31,-0.000324322,10,0.000284687,-2.34906,-0.0201366,-2.92999,476.349,-0.0635956,
2,1,0,1,1,60301.7,-0.0523512,-0.0527985,0.224169,31,-0.000360888,10,-1.18358e-05,-3.64942,0.148279,0.397898,398.395,-0.0527985,
2,1,0,1,1,60301.7,-0.0415559,-0.0420099,4.16149,31,-0.000320134,10,-0.000174824,-2.38075,0.0264807,2.22804,337.732,-0.04200992,
2,1,0,1,1,60301.7,-0.0307579,-0.0312224,7.52666,31,-0.000213829,10,-0.000235,-2.1234,0.0587123,1.0049,290.029,-0.0312224,
2,1,0,1,1,60301.7,-0.0199515,-0.0204116,10.4145,31,-5.13891e-05,10,-0.000212575,-1.98236,0.0965535,0.611061,246.25,-0.0204116,
2,1,0,1,1,60301.8,-0.0091534,-0.00955405,12.8795,31,0.000159044,10,-0.000123051,-1.8901,0.140016,0.421382,210.754,-0.00955405,
2,1,0,0,1,60301.8,-7.54729e-05,-0.00042076,14.619,31,0.000367408,10,-6.1511e-06,-1.83508, , , ,-0.00042076,

File: 20221101_1-115_003_TrumpetPlot_ParaChange_from10_every3_12_CV_C01_31.csv
mode,ox/red,error,control changes,counter inc.,time/s,control/V,Ewe/V,<I>/mA,cycle number,(Q-Qo)/C,I Range,P/W,log(|I|),Tafel slope mV/dec,alpha_eff,dI/d(E-IR),E-IR/V,
2,1,0,1,0,62270.6,2.44065e-05,-0.000401673,13.1727,32,0.0000000E+000,10,-5.29111e-06,-1.88033, , , ,-0.000401673,
2,1,0,1,0,62270.6,0.0104008,0.0100338,16.0438,32,0.000254038,10,0.00016098,-1.79469,0.178802,0.329973,205.567,0.0100338,
2,1,0,1,0,62270.6,0.0212099,0.0208468,18.0096,32,0.000561352,10,0.000375441,-1.7445,0.25556,0.230865,161.774,0.0208468,
2,1,0,1,0,62270.6,0.0320052,0.0316374,19.6102,32,0.000900385,10,0.000620417,-1.70752,0.324321,0.181919,138.977,0.0316374,
2,1,0,1,0,62270.6,0.0428033,0.0424091,21.0217,32,0.00126638,10,0.000891512,-1.67733,0.392287,0.1504,123.251,0.0424091,
2,1,0,1,0,62270.7,0.0535986,0.0532167,22.3055,32,0.00165653,10,0.00118703,-1.65159,0.440728,0.133869,116.497,0.0532167,
2,1,0,1,0,62270.7,0.0644077,0.0640604,23.5401,32,0.00206937,10,0.00150799,-1.62819,0.476397,0.123846,113.737,0.0640604,
2,1,0,1,0,62270.7,0.075203,0.0748713,24.7534,32,0.00250419,10,0.00185332,-1.60637,0.504257,0.117004,113.043,0.0748713,
2,1,0,1,0,62270.7,0.0860011,0.0856546,25.9693,32,0.00296081,10,0.00222439,-1.58554,0.530167,0.111286,112.806,0.0856546,
2,1,0,1,0,62270.7,0.0968075,0.0964474,27.2035,32,0.00343951,10,0.0026237,-1.56538,0.547764,0.107711,114.342,0.0964474,
2,1,0,1,0,62270.7,0.107606,0.107227,28.4529,32,0.00394053,10,0.00305093,-1.54587,0.563502,0.104702,116.247,0.107227,
2,1,0,1,0,62270.8,0.118401,0.118017,29.7323,32,0.00446414,10,0.00350892,-1.52677,0.568238,0.10383,120.482,0.1180171,
2,1,0,1,0,62270.8,0.129207,0.128839,31.0799,32,0.00501141,10,0.00400429,-1.50752,0.566777,0.104097,126.231,0.128839,
2,1,0,1,0,62270.8,0.140005,0.139578,32.5194,32,0.00558347,10,0.004539,-1.48786,0.524267,0.112538,142.791,0.139578,
2,1,0,1,0,62270.8,0.150803,0.150409,34.0516,32,0.00618283,10,0.00512168,-1.46786,0.566065,0.104228,138.476,0.150409,
2,1,0,1,0,62270.8,0.161604,0.161225,35.5077,32,0.0068091,10,0.00572475,-1.44968,0.632478,0.0932839,129.201,0.161225,
2,1,0,1,0,62270.9,0.172405,0.172026,36.8131,32,0.00746048,10,0.00633279,-1.434,0.761278,0.0775013,111.262,0.172026,
2,1,0,1,0,62270.9,0.183203,0.182806,37.8354,32,0.00813309,10,0.00691653,-1.4221,1.16484,0.0506507,74.7051,0.182806,
2,1,0,1,0,62270.9,0.194001,0.193629,38.3742,32,0.00881993,10,0.00743038,-1.41596,3.92549,0.01503,22.4822,0.193629,
2,1,0,1,0,62270.9,0.204808,0.204433,38.3287,32,0.00951127,10,0.00783564,-1.41648,-2.78662,-0.0211726,-31.631,0.204433,
2,1,0,1,0,62270.9,0.215603,0.215242,37.686,32,0.0101963,10,0.0081116,-1.42382,-1.0183,-0.05794,-85.1029,0.215242,
2,1,0,1,0,62270.9,0.226401,0.226073,36.485,32,0.0108646,10,0.00824827,-1.43789,-0.622042,-0.0948489,-134.887,0.226073,
2,1,0,1,0,62271,0.237207,0.236855,34.8562,32,0.0115069,10,0.00825587,-1.45772,-0.484129,-0.121868,-165.617,0.236855,
2,1,0,1,0,62271,0.248005,0.24766,32.9977,32,0.0121175,10,0.00817222,-1.48152,-0.437004,-0.13501,-173.769,0.24766,
2,1,0,1,0,62271,0.258801,0.258482,31.1022,32,0.012694,10,0.00803936,-1.50721,-0.416223,-0.141751,-172.056,0.258482,
2,1,0,1,0,62271,0.26961,0.269299,29.3181,32,0.0132373,10,0.00789533,-1.53286,-0.427869,-0.137893,-157.806,0.269299,
2,1,0,1,0,62271,0.280405,0.280046,27.7034,32,0.0137501,10,0.00775822,-1.55747,-0.457659,-0.128917,-139.437,0.280046,
2,1,0,1,0,62271,0.291203,0.290863,26.2811,32,0.0142355,10,0.00764419,-1.58036,-0.494995,-0.119193,-122.345,0.290863,
2,1,0,0,0,62271.1,0.300012,0.299727,25.2509,32,0.0146142,10,0.0075684,-1.59772,0.00341668,17.2682,15601.9,0.299727,
2,1,0,1,0,62271.1,0.290842,0.290535,15.5256,32,0.0149147,10,0.00451074,-1.80895,0.0463282,1.27352,776.884,0.290535,
2,1,0,1,0,62271.1,0.280047,0.279709,8.77162,32,0.0151288,10,0.0024535,-2.05692,0.0383495,1.53848,522.285,0.279709,
2,1,0,1,0,62271.1,0.269244,0.268916,3.91976,32,0.0152403,10,0.00105409,-2.40674,0.0221948,2.65828,386.964,0.2689161,
2,1,0,1,0,62271.1,0.258443,0.258183,0.253286,32,0.0152761,10,6.5394e-05,-3.59639,0.0478952,1.23185,299.926,0.2581827,
2,0,0,1,0,62271.2,0.247645,0.247287,-2.62409,32,0.0152534,10,-0.000648903,-2.58102,-0.0231955,-2.5436,237.671,0.247287,
2,0,0,1,0,62271.2,0.236849,0.236513,-4.94239,32,0.0151843,10,-0.00116894,-2.30606,-0.056991,-1.03525,195.55,0.236513,
2,0,0,1,0,62271.2,0.22604,0.225743,-6.84688,32,0.0150775,10,-0.00154563,-2.16451,-0.0977037,-0.603867,159.838,0.225743,
2,0,0,1,0,62271.2,0.215245,0.214874,-8.45251,32,0.0149393,10,-0.00181622,-2.07301,-0.140166,-0.420929,138.118,0.214874,
2,0,0,1,0,62271.2,0.204447,0.204067,-9.83485,32,0.0147744,10,-0.00200697,-2.00723,-0.187946,-0.313921,120.065,0.204067,
2,0,0,1,0,62271.2,0.19364,0.193237,-11.0517,32,0.0145862,10,-0.00213559,-1.95657,-0.238876,-0.24699,106.274,0.193237,
2,0,0,1,0,62271.3,0.182842,0.182466,-12.134,32,0.0143773,10,-0.00221404,-1.916,-0.285955,-0.206326,97.6454,0.182466,
2,0,0,1,0,62271.3,0.172047,0.171719,-13.1673,32,0.0141494,10,-0.00226109,-1.8805,-0.320469,-0.184105,94.6203,0.171719,
2,0,0,1,0,62271.3,0.161241,0.160928,-14.191,32,0.0139031,10,-0.00228372,-1.84799,-0.341821,-0.172605,95.6255,0.1609275,
2,0,0,1,0,62271.3,0.150443,0.150118,-15.279,32,0.0136379,10,-0.00229365,-1.81591,-0.324946,-0.181568,108.359,0.150118,
2,0,0,1,0,62271.3,0.139645,0.139292,-16.5635,32,0.0133516,10,-0.00230717,-1.78085,-0.285174,-0.206892,133.997,0.139292,
2,0,0,1,0,62271.3,0.128849,0.128484,-18.2235,32,0.013039,10,-0.00234144,-1.73937,-0.240644,-0.245176,174.702,0.128484,
2,0,0,1,0,62271.4,0.118043,0.117744,-20.3745,32,0.0126923,10,-0.00239897,-1.69091,-0.211251,-0.279288,222.234,0.117744,
2,0,0,1,0,62271.4,0.107245,0.106919,-22.9173,32,0.0123027,10,-0.00245029,-1.63984,-0.216427,-0.27261,243.716,0.106919,
2,0,0,1,0,62271.4,0.0964468,0.0961271,-25.5534,32,0.0118662,10,-0.00245638,-1.59255,-0.243316,-0.242483,241.574,0.0961271,
2,0,0,1,0,62271.4,0.0856404,0.085329,-28.0387,32,0.0113833,10,-0.00239251,-1.55224,-0.287478,-0.205233,224.462,0.085329,
2,0,0,1,0,62271.4,0.0748451,0.0744906,-30.305,32,0.0108573,10,-0.00225744,-1.51849,-0.35686,-0.165331,195.273,0.0744906,
2,0,0,1,0,62271.5,0.0640471,0.0637222,-32.1882,32,0.010294,10,-0.0020511,-1.4923,-0.47831,-0.123351,154.735,0.0637222,
2,0,0,1,0,62271.5,0.0532407,0.0529495,-33.6639,32,0.0097007,10,-0.00178249,-1.47284,-0.64272,-0.0917974,120.473,0.0529495,
2,0,0,1,0,62271.5,0.0424426,0.04211,-34.7946,32,0.00908394,10,-0.0014652,-1.45849,-0.900901,-0.06549,88.8483,0.04211,
2,0,0,1,0,62271.5,0.0316473,0.0312854,-35.6005,32,0.00844982,10,-0.00111378,-1.44854,-1.33016,-0.0443556,61.584,0.0312854,
2,0,0,1,0,62271.5,0.0208437,0.0205127,-36.1467,32,0.00780377,10,-0.000741468,-1.44193,-2.1892,-0.0269505,37.9826,0.0205127,
2,0,0,1,0,62271.5,0.0100429,0.00968279,-36.45,32,0.00715012,10,-0.000352937,-1.4383,-4.4691,-0.0132018,18.7668,0.00968279,
2,0,0,1,0,62271.6,-0.000755208,-0.00115774,-36.5846,32,0.00649262,10,4.23556e-05,-1.4367,-31.0627,-0.00189938,2.70873,-0.001157743,
2,0,0,1,0,62271.6,-0.0115505,-0.0119718,-36.4593,32,0.00583497,10,0.000436483,-1.43819,4.15329,0.0142056,-20.206,-0.0119718,
2,0,0,1,0,62271.6,-0.0223597,-0.0227328,-36.1584,32,0.00518117,10,0.000821981,-1.44179,2.33138,0.0253069,-35.6924,-0.0227328,
2,0,0,1,0,62271.6,-0.033155,-0.0335309,-35.6975,32,0.00453425,10,0.00119697,-1.44736,1.89389,0.0311529,-43.414,-0.0335309,
2,0,0,1,0,62271.6,-0.043953,-0.0443725,-35.2013,32,0.00389607,10,0.00156197,-1.45344,1.68518,0.0350111,-48.1091,-0.04437251,
2,0,0,1,0,62271.7,-0.0547594,-0.0551727,-34.7064,32,0.00326702,10,0.00191485,-1.45959,1.81271,0.0325479,-44.0957,-0.0551727,
2,0,0,1,0,62271.7,-0.0655575,-0.0659475,-34.279,32,0.00264627,10,0.00226061,-1.46497,2.38603,0.0247272,-33.0987,-0.0659475,
2,0,0,1,0,62271.7,-0.0763528,-0.0767584,-33.9795,32,0.0020321,10,0.00260822,-1.46878,3.41746,0.0172643,-22.9017,-0.0767584,
2,0,0,1,0,62271.7,-0.0871592,-0.0875639,-33.8123,32,0.00142233,10,0.00296074,-1.47093,7.55413,0.00781029,-10.3073,-0.0875639,
2,0,0,1,0,62271.7,-0.0979573,-0.0983621,-33.7607,32,0.000814443,10,0.00332078,-1.47159,10.6394,0.00554542,-7.29948,-0.0983621,
2,0,0,1,1,62271.7,-0.0955546,-0.0959709,-27.0391,32,0.000471677,10,0.00259496,-1.56801,-0.0517716,-1.13962,1221.86,-0.0959709,
2,0,0,1,1,62271.8,-0.0847538,-0.0851939,-17.2292,32,8.05247e-05,10,0.00146782,-1.76374,-0.0530737,-1.11166,748.135,-0.0851939,
2,0,0,1,1,62271.8,-0.0739557,-0.0744064,-10.2036,32,-0.000163131,10,0.000759214,-1.99125,-0.0404012,-1.46035,575.137,-0.0744064,
2,0,0,1,1,62271.8,-0.0631604,-0.0635648,-4.60398,32,-0.000294177,10,0.000292651,-2.33687,-0.0210547,-2.80222,471.088,-0.0635648,
2,0,0,1,1,62271.8,-0.0523512,-0.0528165,0.0332186,32,-0.000333581,10,-1.75449e-06,-4.47862,-0.504471,-0.116954,395.837,-0.0528165,
2,1,0,1,1,62271.8,-0.0415559,-0.0420195,3.92262,32,-0.000296649,10,-0.000164827,-2.40642,0.0252773,2.33411,331.627,-0.0420195,
2,1,0,1,1,62271.8,-0.0307579,-0.0312129,7.24981,32,-0.000194957,10,-0.000226287,-2.13967,0.0577015,1.0225,284.364,-0.0312129,
2,1,0,1,1,62271.9,-0.0199515,-0.0203681,10.1106,32,-3.77122e-05,10,-0.000205934,-1.99522,0.0951778,0.619893,242.473,-0.0203681,
2,1,0,1,1,62271.9,-0.0091534,-0.00954662,12.5572,32,0.000167064,10,-0.000119879,-1.90111,0.137348,0.429566,209.36,-0.00954662,
2,1,0,0,1,62271.9,-7.54729e-05,-0.000363498,14.2775,32,0.000370387,10,-5.18983e-06,-1.84535, , , ,-0.000363498,