Folder: Figs_alphaMnO2_OER_Tafel_sleope/Figure_codes/Fig_3-5/rawdata_trumpetplot_data/after 10th (part 123)

File: 20221101_1-115_003_TrumpetPlot_ParaChange_from10_every3_09_CV_C01_2.csv
mode,ox/red,error,control changes,counter inc.,time/s,control/V,Ewe/V,<I>/mA,cycle number,(Q-Qo)/C,I Range,P/W,log(|I|),Tafel slope mV/dec,alpha_eff,dI/d(E-IR),E-IR/V,
2,0,0,0,0,5122.78,2.44065e-05,-0.000268062,-5.20609,3,0.0000000E+000,10,1.39555e-06,-2.28349, , , ,-0.000268062,
2,1,0,1,0,5122.88,0.00978761,0.00946734,2.58172,3,1.60252e-05,10,2.4442e-05,-2.58809,0.024395,2.41853,232.85,0.00946734,
2,1,0,1,0,5122.98,0.0197755,0.0194969,3.82303,3,0.000347694,10,7.4537e-05,-2.41759,0.12118,0.48688,72.6302,0.0194969,
2,1,0,1,0,5123.08,0.0297635,0.0294405,4.45319,3,0.000762873,10,0.000131104,-2.35133,0.185344,0.318326,55.3173,0.0294405,
2,1,0,1,0,5123.18,0.0397514,0.0394435,5.02156,3,0.00123663,10,0.000198068,-2.29916,0.184302,0.320127,62.8408,0.0394435,
2,1,0,1,0,5123.28,0.0497484,0.0494444,5.62921,3,0.00176843,10,0.000278333,-2.24955,0.215778,0.273429,59.8928,0.0494444,
2,1,0,1,0,5123.38,0.0597273,0.0594223,6.20232,3,0.00235823,10,0.000368556,-2.20745,0.245912,0.239924,57.9959,0.0594223,
2,1,0,1,0,5123.48,0.0697152,0.0694351,6.74649,3,0.00300537,10,0.000468443,-2.17092,0.314044,0.187872,49.5149,0.0694351,
2,1,0,1,0,5123.58,0.0797031,0.0793681,7.25887,3,0.00370551,10,0.000576123,-2.13913,0.338726,0.174182,49.3812,0.0793681,
2,1,0,1,0,5123.68,0.0896911,0.089383,7.72149,3,0.00445454,10,0.00069017,-2.1123,0.356884,0.16532,49.899,0.089383,
2,1,0,1,0,5123.78,0.099679,0.0993906,8.28586,3,0.00525212,10,0.000823536,-2.08166,0.305485,0.193136,62.3746,0.0993906,
2,1,0,1,0,5123.88,0.109667,0.10935,9.06976,3,0.00611588,10,0.000991774,-2.0424,0.226582,0.260391,92.2297,0.10935,
2,1,0,1,0,5123.98,0.119655,0.119307,10.0399,3,0.00706993,10,0.00119784,-1.99827,0.251054,0.235009,92.0131,0.119307,
2,1,0,1,0,5124.08,0.129643,0.129344,10.8892,3,0.00811727,10,0.00140845,-1.96301,0.330729,0.178394,75.7752,0.129344,
2,1,0,1,0,5124.18,0.139631,0.139325,11.5482,3,0.00924024,10,0.00160895,-1.93749,0.462698,0.127513,57.4803,0.139325,
2,1,0,1,0,5124.28,0.149619,0.149328,11.8214,3,0.0104133,10,0.00176526,-1.92733,-1.07411,-0.0549294,-25.2625,0.149328,
2,1,0,1,0,5124.38,0.159607,0.159327,10.6048,3,0.0115504,10,0.00168963,-1.9745,-0.108031,-0.54614,-225.304,0.159327,
2,1,0,1,0,5124.48,0.169595,0.169315,7.99354,3,0.0124804,10,0.00135342,-2.09726,-0.0753459,-0.783055,-244.55,0.169315,
2,1,0,1,0,5124.58,0.179582,0.17924,6.21447,3,0.0131795,10,0.00111388,-2.2066,-0.118702,-0.497042,-121.055,0.17924,
2,1,0,1,0,5124.68,0.18957,0.189276,5.35672,3,0.0137536,10,0.0010139,-2.2711,-0.196347,-0.300488,-62.913,0.189276,
2,1,0,1,0,5124.78,0.199558,0.199256,4.8661,3,0.0142619,10,0.000969601,-2.31282,-0.302139,-0.195274,-37.0665,0.199256,
2,1,0,1,0,5124.88,0.209546,0.209239,4.5538,3,0.0147312,10,0.000952831,-2.34163,-0.34284,-0.172092,-30.5854,0.209239,
2,1,0,1,0,5124.98,0.219534,0.219251,4.33801,3,0.0151744,10,0.000951114,-2.36271,-0.606241,-0.0973211,-16.4723,0.219251,
2,1,0,1,0,5125.08,0.229522,0.229223,4.18216,3,0.0156001,10,0.000958645,-2.3786,-0.716533,-0.082341,-13.4576,0.229223,
2,1,0,1,0,5125.17,0.23951,0.239213,4.08052,3,0.0160133,10,0.000976113,-2.38928,-1.30705,-0.0451399,-7.19767,0.239213,
2,1,0,1,0,5125.27,0.249498,0.249181,4.00488,3,0.016417,10,0.00099794,-2.39741,-1.6933,-0.0348433,-5.44172,0.249181,
2,1,0,1,0,5125.37,0.259486,0.259208,3.94095,3,0.0168136,10,0.00102153,-2.4044,-1.00082,-0.0589518,-9.0513,0.259208,
2,1,0,1,0,5125.47,0.269474,0.269168,3.87513,3,0.0172039,10,0.00104306,-2.41171,-2.21414,-0.0266469,-4.03371,0.2691685,
2,1,0,1,0,5125.57,0.279462,0.279202,3.81848,3,0.0175887,10,0.00106612,-2.41811,-1.69123,-0.0348859,-5.20025,0.279202,
2,1,0,1,0,5125.67,0.28945,0.289153,3.7632,3,0.0179677,10,0.00108814,-2.42444,-2.03506,-0.0289917,-4.258,0.289153,
2,1,0,1,0,5125.77,0.299438,0.299146,3.71228,3,0.0183411,10,0.00111052,-2.43036,-0.0248018,-2.37886,-311.106,0.299146,
2,0,0,1,0,5125.86,0.291747,0.291428,-1.27442,3,0.0183569,10,-0.000371403,-2.89469,-0.0263709,-2.23732,106.961,0.291428,
2,0,0,1,0,5125.96,0.281759,0.281457,-1.81448,3,0.0181976,10,-0.000510697,-2.74125,-0.113823,-0.518349,36.6269,0.281457,
2,0,0,1,0,5126.06,0.271771,0.271458,-2.11202,3,0.0180004,10,-0.000573326,-2.6753,-0.17427,-0.338556,27.812,0.271458,
2,0,0,1,0,5126.16,0.261783,0.261487,-2.32936,3,0.0177781,10,-0.000609097,-2.63276,-0.311679,-0.189297,17.1633,0.261487,
2,0,0,1,0,5126.26,0.251795,0.25144,-2.49634,3,0.0175366,10,-0.000627679,-2.6027,-0.356904,-0.165311,16.1208,0.25144,
2,0,0,1,0,5126.36,0.241807,0.24149,-2.64988,3,0.0172787,10,-0.000639919,-2.57677,-0.381677,-0.154581,16.0405,0.24149,
2,0,0,1,0,5126.46,0.231815,0.231506,-2.80155,3,0.0170061,10,-0.000648577,-2.5526,-0.373912,-0.157791,17.2333,0.231506,
2,0,0,1,0,5126.56,0.221831,0.221521,-2.93645,3,0.0167195,10,-0.000650485,-2.53218,-0.478884,-0.123203,14.1041,0.221521,
2,0,0,1,0,5126.66,0.211843,0.211517,-3.07976,3,0.0164186,10,-0.000651423,-2.51148,-0.547893,-0.107685,12.9317,0.211517,
2,0,0,1,0,5126.76,0.201856,0.201556,-3.2259,3,0.0161028,10,-0.000650202,-2.49135,-0.487701,-0.120976,15.2774,0.201556,
2,0,0,1,0,5126.86,0.191868,0.191526,-3.41168,3,0.0157705,10,-0.000653427,-2.46703,-0.371553,-0.158793,21.1872,0.191526,
2,0,0,1,0,5126.96,0.18188,0.181559,-3.64834,3,0.0154185,10,-0.00066239,-2.4379,-0.286349,-0.206042,29.2906,0.181559,
2,0,0,1,0,5127.06,0.171892,0.171527,-3.96579,3,0.0150388,10,-0.000680241,-2.40167,-0.239338,-0.246514,38.209,0.171527,
2,0,0,1,0,5127.16,0.161904,0.161603,-4.47188,3,0.0146186,10,-0.000722669,-2.34951,-0.154652,-0.381502,66.6882,0.161603,
2,0,0,1,0,5127.26,0.151916,0.151608,-5.33051,3,0.0141318,10,-0.00080815,-2.27323,-0.110731,-0.532824,111.264,0.151608,
2,0,0,1,0,5127.36,0.141928,0.141616,-6.81361,3,0.0135299,10,-0.000964918,-2.16662,-0.0856427,-0.688908,183.3,0.141616,
2,0,0,1,0,5127.46,0.13194,0.131644,-8.77655,3,0.012753,10,-0.00115538,-2.05668,-0.101122,-0.583452,199.777,0.131644,
2,0,0,1,0,5127.56,0.121952,0.121647,-10.5922,3,0.0117804,10,-0.00128852,-1.97501,-0.16788,-0.351441,144.945,0.121647,
2,0,0,1,0,5127.66,0.111964,0.111659,-11.6931,3,0.0106604,10,-0.00130565,-1.93207,-0.370917,-0.159065,72.4872,0.111659,
2,0,0,1,0,5127.76,0.101976,0.101633,-12.0123,3,0.00946901,10,-0.00122085,-1.92037,2.75732,0.0213976,-10.0162,0.101633,
2,0,0,1,0,5127.86,0.0919883,0.0916826,-11.5584,3,0.00828524,10,-0.00105971,-1.9371,0.368607,0.160062,-72.2053,0.0916826,
2,0,0,1,0,5127.96,0.0820004,0.0816829,-10.6585,3,0.00717431,10,-0.000870617,-1.9723,0.267116,0.220878,-91.9034,0.08168292,
2,0,0,1,0,5128.06,0.0720124,0.0716759,-9.87925,3,0.0061507,10,-0.000708104,-2.00528,0.36714,0.160702,-62.0613,0.0716759,
2,0,0,1,0,5128.16,0.0620245,0.0617209,-9.37827,3,0.00518961,10,-0.000578835,-2.02788,0.469844,0.125573,-45.9838,0.0617209,
2,0,0,1,0,5128.26,0.0520366,0.051698,-8.97897,3,0.00427221,10,-0.000464195,-2.04677,0.489699,0.120482,-42.2018,0.051698,
2,0,0,1,0,5128.36,0.0420486,0.0417224,-8.55894,3,0.00339508,10,-0.000357099,-2.06758,0.470044,0.12552,-41.9536,0.0417224,
2,0,0,1,0,5128.46,0.0320607,0.0317302,-8.06849,3,0.00256394,10,-0.000256014,-2.09321,0.32179,0.183349,-57.6326,0.03173016,
2,0,0,1,0,5128.56,0.0220728,0.0217283,-7.47752,3,0.00178754,10,-0.000162474,-2.12624,0.30496,0.193468,-56.4452,0.0217283,
2,0,0,1,0,5128.66,0.0120848,0.0117711,-6.96435,3,0.00106679,10,-8.19777e-05,-2.15712,0.352707,0.167277,-45.5121,0.0117711,
2,0,0,1,0,5128.76,0.0020969,0.0016988,-6.71872,3,0.00038694,10,-1.14138e-05,-2.17271,1.32041,0.0446831,-11.651,0.0016988,
2,0,0,1,0,5128.86,-0.00789103,-0.00825279,-6.54794,3,-0.000274078,10,5.40388e-05,-2.1839,9.99065,0.00590552,-1.51324,-0.00825279,
2,0,0,1,0,5128.96,-0.017879,-0.0181994,-6.60743,3,-0.000930242,10,0.000120251,-2.17997,-1.24259,-0.0474816,12.2377,-0.0181994,
2,0,0,1,0,5129.06,-0.0278669,-0.0282627,-6.75302,3,-0.00159717,10,0.000190858,-2.1705,-0.901071,-0.0654777,17.2714,-0.0282627,
2,0,0,1,0,5129.16,-0.0378548,-0.0382195,-6.98098,3,-0.00228293,10,0.000266809,-2.15608,-0.663685,-0.0888977,24.1969,-0.0382195,
2,0,0,1,0,5129.26,-0.0478428,-0.0482289,-7.26084,3,-0.00299445,10,0.000350182,-2.13901,-0.45748,-0.128967,36.6032,-0.0482289,
2,0,0,1,0,5129.36,-0.0578216,-0.0581981,-7.61971,3,-0.00373737,10,0.000443452,-2.11806,-0.442435,-0.133353,39.6671,-0.0581981,
2,0,0,1,0,5129.46,-0.0678187,-0.068155,-8.06358,3,-0.00452051,10,0.000549574,-2.09347,-0.363099,-0.16249,51.1107,-0.068155,
2,0,0,1,0,5129.56,-0.0778066,-0.0781808,-8.59379,3,-0.00535244,10,0.000671869,-2.06582,-0.347863,-0.169607,56.932,-0.07818079,
2,0,0,1,0,5129.66,-0.0877945,-0.0881415,-9.22944,3,-0.00624284,10,0.000813497,-2.03482,-0.309722,-0.190493,68.5862,-0.0881415,
2,0,0,1,0,5129.76,-0.0977825,-0.0981249,-9.86929,3,-0.00719755,10,0.000968423,-2.00571,-0.358981,-0.164354,63.2919,-0.0981249,
2,0,0,1,1,5129.85,-0.0927386,-0.0931092,-1.06036,3,-0.00774016,10,9.87292e-05,-2.97455,-0.00212336,-27.7861,628.273,-0.0931092,
2,1,0,1,1,5129.95,-0.0827529,-0.0831539,2.59966,3,-0.00763019,10,-0.000216172,-2.58508,0.0273475,2.15742,213.687,-0.0831539,
2,1,0,1,1,5130.05,-0.0727627,-0.0731144,4.06455,3,-0.00728759,10,-0.000297178,-2.39099,0.095826,0.615699,96.9229,-0.0731144,
2,1,0,1,1,5130.15,-0.0627748,-0.0630671,4.76204,3,-0.00684229,10,-0.000300328,-2.32221,0.212259,0.277962,51.6544,-0.0630671,
2,1,0,1,1,5130.25,-0.0527868,-0.0531151,5.14853,3,-0.00634405,10,-0.000273465,-2.28832,0.439253,0.134319,26.9511,-0.0531151,
2,1,0,1,1,5130.35,-0.0427989,-0.0431551,5.34028,3,-0.00581812,10,-0.00023046,-2.27244,0.797461,0.0739848,15.4164,-0.0431551,
2,1,0,1,1,5130.45,-0.0328109,-0.0331633,5.42419,3,-0.00527964,10,-0.000179884,-2.26567,2.60331,0.0226634,4.792,-0.0331633,
2,1,0,1,1,5130.55,-0.022823,-0.0231608,5.43245,3,-0.00473663,10,-0.00012582,-2.265,31.275,0.00188649,0.399822,-0.0231608,
2,1,0,1,1,5130.65,-0.0128351,-0.0131819,5.40836,3,-0.00419433,10,-7.12927e-05,-2.26693,-3.3271,-0.0177332,-3.74374,-0.0131819,
2,1,0,1,1,5130.75,-0.00284713,-0.00317141,5.38772,3,-0.00365421,10,-1.70867e-05,-2.26859,-4.98426,-0.0118373,-2.48849,-0.00317141,
2,1,0,1,1,5130.78,-2.55332e-05,-0.000363498,5.40801,3,-0.00350259,10,-1.9658e-06,-2.26696, , , ,-0.000363498,

File: 20221101_1-115_003_TrumpetPlot_ParaChange_from10_every3_09_CV_C01_3.csv
mode,ox/red,error,control changes,counter inc.,time/s,control/V,Ewe/V,<I>/mA,cycle number,(Q-Qo)/C,I Range,P/W,log(|I|),Tafel slope mV/dec,alpha_eff,dI/d(E-IR),E-IR/V,
2,0,0,0,0,7092.91,2.44065e-05,-0.000325324,-5.2856,4,0.0000000E+000,10,1.71953e-06,-2.27691, , , ,-0.000325324,
2,1,0,1,0,7093.01,0.00978761,0.00943784,2.61077,4,1.3682e-05,10,2.464e-05,-2.58323,0.0232974,2.53247,246.386,0.00943784,
2,1,0,1,0,7093.11,0.0197755,0.0194442,3.92784,4,0.000353585,10,7.63734e-05,-2.40585,0.118485,0.497954,76.2146,0.0194442,
2,1,0,1,0,7093.21,0.0297635,0.0294804,4.58855,4,0.000781494,10,0.000135272,-2.33832,0.179152,0.32933,58.8736,0.02948039,
2,1,0,1,0,7093.31,0.0397514,0.0394456,5.16454,4,0.00127,10,0.000203718,-2.28697,0.188835,0.312443,63.0935,0.0394456,
2,1,0,1,0,7093.41,0.0497484,0.049454,5.76158,4,0.00181673,10,0.000284933,-2.23946,0.227108,0.259788,58.2814,0.049454,
2,1,0,1,0,7093.51,0.0597273,0.0594167,6.31493,4,0.00241994,10,0.000375212,-2.19963,0.25795,0.228726,56.2891,0.0594167,
2,1,0,1,0,7093.61,0.0697152,0.0694368,6.83689,4,0.00307818,10,0.000474732,-2.16514,0.338892,0.174097,46.48,0.0694368,
2,1,0,1,0,7093.71,0.0797031,0.0794232,7.32587,4,0.00378678,10,0.000581845,-2.13514,0.371046,0.15901,45.4246,0.0794232,
2,1,0,1,0,7093.81,0.0896911,0.0893859,7.7643,4,0.00454136,10,0.000694019,-2.1099,0.384574,0.153417,46.5403,0.0893859,
2,1,0,1,0,7093.91,0.099679,0.0993677,8.31314,4,0.00534246,10,0.000826058,-2.08023,0.30051,0.196333,63.6105,0.09936773,
2,1,0,1,0,7094.01,0.109667,0.109349,9.0987,4,0.00620974,10,0.000994931,-2.04102,0.226354,0.260654,92.5656,0.109349,
2,1,0,1,0,7094.11,0.119655,0.119387,10.0516,4,0.00716706,10,0.00120003,-1.99776,0.2637,0.223739,87.7088,0.119387,
2,1,0,1,0,7094.21,0.129643,0.12933,10.8394,4,0.00821339,10,0.00140186,-1.96499,0.354837,0.166273,70.2957,0.12933,
2,1,0,1,0,7094.31,0.139631,0.139329,11.4329,4,0.0093287,10,0.00159294,-1.94184,0.532836,0.110728,49.424,0.139329,
2,1,0,1,0,7094.41,0.149619,0.149325,11.6004,4,0.0104865,10,0.00173222,-1.93553,-0.633907,-0.0930735,-41.9925,0.149325,
2,1,0,1,0,7094.51,0.159607,0.159308,10.185,4,0.0115923,10,0.00162255,-1.99204,-0.0988435,-0.596903,-236.682,0.159308,
2,1,0,1,0,7094.61,0.169595,0.169299,7.64597,4,0.0124819,10,0.00129445,-2.11657,-0.0781611,-0.754851,-225.708,0.169299,
2,1,0,1,0,7094.71,0.179582,0.179276,6.051,4,0.0131568,10,0.0010848,-2.21817,-0.129062,-0.457145,-108.291,0.1792755,
2,1,0,1,0,7094.81,0.18957,0.189261,5.26822,4,0.013719,10,0.000997072,-2.27834,-0.210972,-0.279658,-57.547,0.1892615,
2,1,0,1,0,7094.91,0.199558,0.199283,4.81802,4,0.0142211,10,0.000960148,-2.31713,-0.318973,-0.184969,-34.7385,0.199283,
2,1,0,1,0,7095.01,0.209546,0.209261,4.52553,4,0.0146871,10,0.000947017,-2.34433,-0.364208,-0.161995,-28.6311,0.209261,
2,1,0,1,0,7095.11,0.219534,0.219262,4.32022,4,0.0151285,10,0.000947262,-2.36449,-0.615804,-0.0958097,-16.1518,0.2192622,
2,1,0,1,0,7095.21,0.229522,0.22923,4.16637,4,0.0155533,10,0.000955055,-2.38024,-0.836308,-0.0705482,-11.4911,0.2292296,
2,1,0,1,0,7095.31,0.23951,0.239206,4.06909,4,0.0159656,10,0.000973349,-2.3905,-1.62715,-0.0362597,-5.76334,0.239206,
2,1,0,1,0,7095.41,0.249498,0.249196,3.99512,4,0.0163685,10,0.000995567,-2.39847,-1.35755,-0.0434606,-6.76947,0.2491961,
2,1,0,1,0,7095.51,0.259486,0.259243,3.92918,4,0.0167645,10,0.00101861,-2.4057,-0.949915,-0.0621108,-9.51348,0.259243,
2,1,0,1,0,7095.6,0.269474,0.269175,3.86134,4,0.0171542,10,0.00103937,-2.41326,-2.14099,-0.0275574,-4.15968,0.269175,
2,1,0,1,0,7095.7,0.279462,0.279168,3.81106,4,0.0175383,10,0.00106393,-2.41895,-1.73291,-0.0340468,-5.06188,0.279168,
2,1,0,1,0,7095.8,0.28945,0.289191,3.75439,4,0.0179167,10,0.00108574,-2.42546,-2.45859,-0.0239975,-3.51663,0.289191,
2,1,0,1,0,7095.9,0.299438,0.299142,3.70809,4,0.0182895,10,0.00110925,-2.43085,-0.0244385,-2.41422,-314.978,0.299142,
2,0,0,1,0,7095.99,0.291747,0.291455,-1.31702,4,0.0183044,10,-0.000383853,-2.88041,-0.0266356,-2.21508,109.073,0.291455,
2,0,0,1,0,7096.09,0.281759,0.281477,-1.87613,4,0.0181407,10,-0.000528087,-2.72674,-0.124687,-0.473186,34.386,0.281477,
2,0,0,1,0,7096.19,0.271771,0.271438,-2.15927,4,0.0179391,10,-0.000586107,-2.66569,-0.182469,-0.323343,27.2099,0.271438,
2,0,0,1,0,7096.29,0.261783,0.261498,-2.37294,4,0.0177125,10,-0.000620519,-2.62471,-0.340371,-0.17334,16.0469,0.261498,
2,0,0,1,0,7096.39,0.251795,0.251479,-2.54566,4,0.017467,10,-0.000640181,-2.5942,-0.374679,-0.157468,15.6546,0.251479,
2,0,0,1,0,7096.49,0.241807,0.241514,-2.69146,4,0.0172052,10,-0.000650026,-2.57001,-0.417675,-0.141258,14.9113,0.241514,
2,0,0,1,0,7096.59,0.231815,0.231501,-2.84446,4,0.0169289,10,-0.000658496,-2.546,-0.427269,-0.138086,15.3076,0.231501,
2,0,0,1,0,7096.69,0.221831,0.221566,-2.97616,4,0.0166391,10,-0.000659415,-2.52634,-0.532627,-0.110772,12.8582,0.2215656,
2,0,0,1,0,7096.79,0.211843,0.211516,-3.11556,4,0.0163353,10,-0.000658991,-2.50646,-0.581521,-0.101458,12.3284,0.2115161,
2,0,0,1,0,7096.89,0.201856,0.201557,-3.26245,4,0.0160172,10,-0.00065757,-2.48646,-0.475791,-0.124004,15.8002,0.201557,
2,0,0,1,0,7096.99,0.191868,0.19151,-3.43188,4,0.0156834,10,-0.00065724,-2.46447,-0.409634,-0.144031,19.323,0.1915101,
2,0,0,1,0,7097.09,0.18188,0.181568,-3.65575,4,0.0153312,10,-0.000663765,-2.43702,-0.302776,-0.194863,27.7117,0.181568,
2,0,0,1,0,7097.19,0.171892,0.171546,-3.94573,4,0.0149534,10,-0.000676873,-2.40387,-0.264603,-0.222976,34.3149,0.171546,
2,0,0,1,0,7097.29,0.161904,0.161562,-4.40339,4,0.0145389,10,-0.000711419,-2.35621,-0.176756,-0.333794,57.3819,0.161562,
2,0,0,1,0,7097.39,0.151916,0.151552,-5.16915,4,0.0140644,10,-0.000783398,-2.28658,-0.122177,-0.482905,97.7998,0.151552,
2,0,0,1,0,7097.49,0.141928,0.141556,-6.53122,4,0.0134856,10,-0.000924536,-2.18501,-0.0883088,-0.66811,170.396,0.141556,
2,0,0,1,0,7097.59,0.13194,0.131607,-8.44353,4,0.0127419,10,-0.00111123,-2.07348,-0.0950381,-0.620804,204.242,0.131607,
2,0,0,1,0,7097.69,0.121952,0.121667,-10.2895,4,0.0118029,10,-0.0012519,-1.9876,-0.153431,-0.384538,154.051,0.121667,
2,0,0,1,0,7097.79,0.111964,0.111639,-11.4834,4,0.0107095,10,-0.00128199,-1.93993,-0.322997,-0.182664,81.7559,0.111639,
2,0,0,1,0,7097.89,0.101976,0.10163,-11.914,4,0.00953464,10,-0.00121082,-1.92394,-22.9688,-0.00256871,1.19232,0.10163,
2,0,0,1,0,7097.99,0.0919883,0.0916664,-11.5643,4,0.00835624,10,-0.00106005,-1.93688,0.418361,0.141027,-63.6579,0.0916664,
2,0,0,1,0,7098.09,0.0820004,0.0816958,-10.7072,4,0.00724287,10,-0.000874734,-1.97032,0.27432,0.215078,-89.867,0.0816958,
2,0,0,1,0,7098.19,0.0720124,0.0717102,-9.91776,4,0.00621577,10,-0.000711205,-2.00359,0.35205,0.16759,-64.9494,0.0717102,
2,0,0,1,0,7098.29,0.0620245,0.0616865,-9.42216,4,0.00525162,10,-0.00058122,-2.02585,0.493709,0.119504,-43.9733,0.0616865,
2,0,0,1,0,7098.39,0.0520366,0.0516776,-9.03734,4,0.00433009,10,-0.000467028,-2.04396,0.513681,0.114857,-40.4864,0.0516776,
2,0,0,1,0,7098.49,0.0420486,0.0417249,-8.63469,4,0.00344702,10,-0.000360281,-2.06375,0.528403,0.111657,-37.6868,0.0417249,
2,0,0,1,0,7098.59,0.0320607,0.0317302,-8.1872,4,0.00260674,10,-0.000259781,-2.08686,0.369624,0.159621,-50.9518,0.0317302,
2,0,0,1,0,7098.69,0.0220728,0.0217843,-7.62532,4,0.00181701,10,-0.000166112,-2.11774,0.308371,0.191328,-56.9614,0.0217843,
2,0,0,1,0,7098.79,0.0120848,0.0117333,-7.10947,4,0.0010821,10,-8.34176e-05,-2.14816,0.344199,0.171413,-47.6029,0.0117333,
2,0,0,1,0,7098.89,0.0020969,0.00174435,-6.82157,4,0.000390917,10,-1.18992e-05,-2.16612,0.927698,0.0635983,-16.8405,0.001744349,
2,0,0,1,0,7098.99,-0.00789103,-0.00826026,-6.62292,4,-0.000277843,10,5.4707e-05,-2.17895,3.05239,0.0193291,-5.00513,-0.00826026,
2,0,0,1,0,7099.09,-0.017879,-0.0182541,-6.65267,4,-0.000938929,10,0.000121439,-2.177,-1.35324,-0.0435992,11.3133,-0.0182541,
2,0,0,1,0,7099.19,-0.0278669,-0.028195,-6.77921,4,-0.00160888,10,0.00019114,-2.16882,-0.948909,-0.0621767,16.4714,-0.02819499,
2,0,0,1,0,7099.29,-0.0378548,-0.0382278,-7.00738,4,-0.00229686,10,0.000267877,-2.15444,-0.690572,-0.0854364,23.3495,-0.03822777,
2,0,0,1,0,7099.39,-0.0478428,-0.048156,-7.28228,4,-0.00301005,10,0.000350686,-2.13773,-0.465831,-0.126655,36.0301,-0.048156,
2,0,0,1,0,7099.49,-0.0578216,-0.0582154,-7.63998,4,-0.00375439,10,0.000444765,-2.11691,-0.460188,-0.128209,38.2159,-0.0582154,
2,0,0,1,0,7099.59,-0.0678187,-0.0681828,-8.0807,4,-0.00453867,10,0.000550965,-2.09255,-0.355767,-0.165839,52.2602,-0.0681828,
2,0,0,1,0,7099.69,-0.0778066,-0.0781435,-8.60036,4,-0.00537133,10,0.000672062,-2.06548,-0.352982,-0.167147,56.1651,-0.0781435,
2,0,0,1,0,7099.79,-0.0877945,-0.0881386,-9.23027,4,-0.00626178,10,0.000813543,-2.03479,-0.327613,-0.180091,64.8585,-0.0881386,
2,0,0,1,0,7099.89,-0.0977825,-0.0981041,-9.8506,4,-0.00721571,10,0.000966384,-2.00654,-0.370807,-0.159112,61.2143,-0.0981041,
2,0,0,1,1,7099.98,-0.0927386,-0.0930693,-1.09775,4,-0.00776013,10,0.000102167,-2.9595,-0.00172654,-34.1724,628.771,-0.0930693,
2,1,0,1,1,7100.08,-0.0827529,-0.0831287,2.62287,4,-0.00765134,10,-0.000218036,-2.58122,0.0265245,2.22436,222.144,-0.0831287,
2,1,0,1,1,7100.18,-0.0727627,-0.0731281,4.12486,4,-0.00730484,10,-0.000301643,-2.38459,0.0923761,0.638694,102.12,-0.0731281,
2,1,0,1,1,7100.28,-0.0627748,-0.0631265,4.84778,4,-0.00685306,10,-0.000306024,-2.31446,0.210182,0.280709,53.022,-0.0631265,
2,1,0,1,1,7100.38,-0.0527868,-0.0531163,5.23277,4,-0.00634751,10,-0.000277945,-2.28127,0.4669,0.126365,25.7573,-0.0531163,
2,1,0,1,1,7100.48,-0.0427989,-0.0431577,5.41635,4,-0.00581418,10,-0.000233757,-2.26629,0.788172,0.0748567,15.8299,-0.0431577,
2,1,0,1,1,7100.58,-0.0328109,-0.0331655,5.50318,4,-0.00526841,10,-0.000182516,-2.25939,3.40497,0.0173276,3.71764,-0.0331655,
2,1,0,1,1,7100.68,-0.022823,-0.0231343,5.51317,4,-0.00471838,10,-0.000127543,-2.2586,-13.5621,-0.00435034,-0.935036,-0.02313426,
2,1,0,1,1,7100.78,-0.0128351,-0.013152,5.48493,4,-0.00416914,10,-7.21378e-05,-2.26083,-5.21025,-0.0113238,-2.42371,-0.013152,
2,1,0,1,1,7100.88,-0.00284713,-0.00319548,5.46709,4,-0.00362187,10,-1.74699e-05,-2.26224,-9.57641,-0.00616097,-1.31412,-0.00319548,
2,1,0,1,1,7100.91,-2.55332e-05,-0.000363498,5.47606,4,-0.00346816,10,-1.99054e-06,-2.26153, , , ,-0.000363498,