Folder: Figs_alphaMnO2_OER_Tafel_sleope/Figure_codes/Fig_3-5/rawdata_trumpetplot_data/after 10th (part 150)

File: 20221101_1-115_003_TrumpetPlot_ParaChange_from10_every3_10_CV_C01_21.csv
mode,ox/red,error,control changes,counter inc.,time/s,control/V,Ewe/V,<I>/mA,cycle number,(Q-Qo)/C,I Range,P/W,log(|I|),Tafel slope mV/dec,alpha_eff,dI/d(E-IR),E-IR/V,
2,1,0,0,0,42563.3,-2.44065e-05,-0.0002108,5.1873,22,0.0000000E+000,10,-1.09348e-06,-2.28506, , , ,-0.0002108,
2,1,0,1,0,42563.3,0.00977853,0.00946127,7.61741,22,0.000324697,10,7.20703e-05,-2.11819,0.119412,0.494087,146.407,0.00946127,
2,1,0,1,0,42563.4,0.0197755,0.0194179,8.73212,22,0.000735825,10,0.00016956,-2.05888,0.233,0.253219,86.1594,0.0194179,
2,1,0,1,0,42563.4,0.0297726,0.0294335,9.46034,22,0.00119161,10,0.000278451,-2.02409,0.347258,0.169902,62.7323,0.0294335,
2,1,0,1,0,42563.5,0.0397514,0.0394248,10.0837,22,0.00167945,10,0.000397548,-1.99638,0.358972,0.164358,64.6531,0.0394248,
2,1,0,1,0,42563.5,0.0497394,0.0493989,10.6962,22,0.0021977,10,0.000528381,-1.97077,0.400358,0.147368,61.478,0.0493989,
2,1,0,1,0,42563.6,0.0597364,0.0593928,11.322,22,0.00274787,10,0.000672445,-1.94608,0.388528,0.151855,67.0516,0.0593928,
2,1,0,1,0,42563.6,0.0697152,0.0693784,11.9738,22,0.00332907,10,0.000830722,-1.92177,0.417974,0.141157,66.0053,0.0693784,
2,1,0,1,0,42563.7,0.0796941,0.0793408,12.6294,22,0.0039431,10,0.00100203,-1.89862,0.447999,0.131697,64.872,0.0793408,
2,1,0,1,0,42563.7,0.0896911,0.0893478,13.2473,22,0.00459014,10,0.00118362,-1.87787,0.498477,0.118361,61.2338,0.0893478,
2,1,0,1,0,42563.8,0.099679,0.0993304,13.8478,22,0.00526628,10,0.00137551,-1.85862,0.548124,0.10764,58.1133,0.0993304,
2,1,0,1,0,42563.8,0.109658,0.109339,14.4657,22,0.00597206,10,0.00158167,-1.83966,0.474818,0.124258,70.1914,0.109339,
2,1,0,1,0,42563.9,0.119655,0.119339,15.2842,22,0.00671504,10,0.001824,-1.81576,0.397261,0.148517,88.5858,0.119339,
2,1,0,1,0,42563.9,0.129652,0.129334,16.2386,22,0.00750294,10,0.0021002,-1.78945,0.379216,0.155584,98.6468,0.129334,
2,1,0,1,0,42564,0.139631,0.139274,17.1763,22,0.00833741,10,0.00239221,-1.76507,0.462502,0.127567,85.4629,0.139274,
2,1,0,1,0,42564,0.149619,0.149267,17.9055,22,0.00921374,10,0.0026727,-1.74701,0.686182,0.085983,60.0564,0.149267,
2,1,0,1,0,42564.1,0.159616,0.159309,18.2053,22,0.0101191,10,0.00290026,-1.7398,-5.76171,-0.01024,-7.26881,0.159309,
2,1,0,1,0,42564.1,0.169595,0.169254,17.6143,22,0.0110175,10,0.0029813,-1.75413,-0.340234,-0.17341,-119.055,0.169254,
2,1,0,1,0,42564.2,0.179573,0.179253,15.9094,22,0.0118576,10,0.00285182,-1.79835,-0.170416,-0.346212,-214.774,0.179253,
2,1,0,1,0,42564.2,0.18957,0.189256,13.743,22,0.0125987,10,0.00260095,-1.86192,-0.153201,-0.385116,-206.805,0.189256,
2,1,0,1,0,42564.3,0.199558,0.199252,11.9434,22,0.0132372,10,0.00237973,-1.92287,-0.184362,-0.320022,-149.178,0.199252,
2,1,0,1,0,42564.3,0.209537,0.209192,10.6672,22,0.0137991,10,0.00223149,-1.97195,-0.226759,-0.260189,-108.452,0.209192,
2,1,0,1,0,42564.4,0.219534,0.219183,9.78829,22,0.014309,10,0.00214543,-2.00929,-0.308926,-0.190984,-72.9307,0.219183,
2,1,0,1,0,42564.4,0.229531,0.229242,9.15494,22,0.014782,10,0.0020987,-2.03834,-0.396742,-0.148711,-53.2269,0.229242,
2,1,0,1,0,42564.5,0.23951,0.23922,8.72,22,0.0152275,10,0.00208599,-2.05948,-0.550934,-0.107091,-36.4271,0.23922,
2,1,0,1,0,42564.5,0.249498,0.249202,8.37136,22,0.0156535,10,0.00208616,-2.0772,-0.63864,-0.0923838,-30.2053,0.2492023,
2,1,0,1,0,42564.6,0.259495,0.259212,8.11929,22,0.0160653,10,0.00210462,-2.09048,-0.746182,-0.0790692,-25.0079,0.2592119,
2,1,0,1,0,42564.6,0.269474,0.269141,7.88743,22,0.0164644,10,0.00212283,-2.10306,-0.941534,-0.0626637,-19.3241,0.269141,
2,1,0,1,0,42564.7,0.279453,0.279185,7.71825,22,0.0168537,10,0.00215482,-2.11248,-1.00908,-0.0584691,-17.6005,0.279185,
2,1,0,1,0,42564.7,0.28945,0.289077,7.55085,22,0.0172353,10,0.00218278,-2.122,-1.25611,-0.0469703,-13.8537,0.289077,
2,1,0,1,0,42564.8,0.299438,0.299118,7.41482,22,0.0176086,10,0.00221791,-2.1299,-0.0673893,-0.87551,-244.363,0.299118,
2,1,0,1,0,42564.8,0.291747,0.291443,0.969978,22,0.0177694,10,0.000282693,-3.01324,0.0045127,13.0742,401.309,0.291443,
2,0,0,1,0,42564.8,0.28175,0.281378,-1.58086,22,0.0177443,10,-0.000444819,-2.80111,-0.021513,-2.74253,163.054,0.281378,
2,0,0,1,0,42564.9,0.27178,0.271442,-2.77199,22,0.0176328,10,-0.000752435,-2.55721,-0.0681567,-0.865652,93.4656,0.2714425,
2,0,0,1,0,42564.9,0.261783,0.261468,-3.50614,22,0.0174745,10,-0.000916745,-2.45517,-0.13853,-0.425899,57.9902,0.2614685,
2,0,0,1,0,42565,0.251786,0.251464,-3.99953,22,0.0172861,10,-0.00100574,-2.39799,-0.205594,-0.286974,44.9388,0.251464,
2,0,0,1,0,42565,0.241807,0.24153,-4.40003,22,0.0170758,10,-0.00106274,-2.35654,-0.281472,-0.209612,35.9957,0.24153,
2,0,0,1,0,42565.1,0.231824,0.231525,-4.7292,22,0.0168477,10,-0.00109493,-2.32521,-0.34017,-0.173443,32.0494,0.231525,
2,0,0,1,0,42565.1,0.221822,0.221514,-5.02235,22,0.0166038,10,-0.00111252,-2.29909,-0.402639,-0.146533,28.6527,0.221514,
2,0,0,1,0,42565.2,0.211843,0.211507,-5.28674,22,0.0163466,10,-0.00111818,-2.27681,-0.524362,-0.112518,23.2198,0.211507,
2,0,0,1,0,42565.2,0.201865,0.20153,-5.54469,22,0.0160764,10,-0.00111742,-2.25612,-0.527642,-0.111818,24.156,0.20153,
2,0,0,1,0,42565.3,0.191868,0.19152,-5.79114,22,0.0157929,10,-0.00110912,-2.23724,-0.484232,-0.121842,27.6049,0.19152,
2,0,0,1,0,42565.3,0.18188,0.181534,-6.08166,22,0.0154969,10,-0.00110403,-2.21598,-0.439175,-0.134343,31.8081,0.181534,
2,0,0,1,0,42565.4,0.171901,0.171583,-6.38533,22,0.0151862,10,-0.00109561,-2.19482,-0.430583,-0.137024,34.1683,0.171583,
2,0,0,1,0,42565.4,0.161904,0.161582,-6.78763,22,0.0148574,10,-0.00109676,-2.16828,-0.331281,-0.178097,47.1177,0.161582,
2,0,0,1,0,42565.5,0.151907,0.151621,-7.33676,22,0.0145051,10,-0.00111241,-2.1345,-0.250136,-0.235872,67.7094,0.151621,
2,0,0,1,0,42565.5,0.141928,0.14158,-8.25318,22,0.0141178,10,-0.00116849,-2.08338,-0.16279,-0.362429,116.788,0.14158,
2,0,0,1,0,42565.6,0.13194,0.131619,-9.68986,22,0.0136722,10,-0.00127537,-2.01368,-0.129652,-0.455063,172.435,0.131619,
2,0,0,1,0,42565.6,0.121943,0.121614,-11.5732,22,0.0131412,10,-0.00140747,-1.93655,-0.136756,-0.431424,194.459,0.121614,
2,0,0,1,0,42565.7,0.111964,0.111626,-13.4437,22,0.0125159,10,-0.00150066,-1.87148,-0.175421,-0.336334,176.455,0.111626,
2,0,0,1,0,42565.7,0.101985,0.101684,-15.0353,22,0.0118037,10,-0.00152885,-1.82289,-0.254379,-0.231937,135.879,0.101684,
2,0,0,1,0,42565.8,0.0919883,0.0916998,-16.1926,22,0.0110208,10,-0.00148486,-1.79068,-0.394632,-0.149506,94.5014,0.0916998,
2,0,0,1,0,42565.8,0.0820004,0.0816674,-16.8122,22,0.0101945,10,-0.00137301,-1.77437,-1.26693,-0.0465693,30.517,0.0816674,
2,0,0,1,0,42565.9,0.0720215,0.0717024,-16.8616,22,0.00935239,10,-0.00120901,-1.7731,2.25153,0.0262044,-17.2449,0.0717024,
2,0,0,1,0,42565.9,0.0620245,0.061777,-16.6093,22,0.00851502,10,-0.00102608,-1.77965,1.21039,0.0487448,-31.5844,0.061777,
2,0,0,1,0,42566,0.0520275,0.0516616,-16.2932,22,0.00769249,10,-0.000841735,-1.78799,1.15864,0.0509216,-32.3801,0.0516616,
2,0,0,1,0,42566,0.0420486,0.0416882,-15.976,22,0.00688725,10,-0.000666012,-1.79653,1.16725,0.0505461,-31.5201,0.0416882,
2,0,0,1,0,42566.1,0.0320607,0.031737,-15.6223,22,0.00609853,10,-0.000495804,-1.80626,0.944224,0.0624852,-38.0935,0.031737,
2,0,0,1,0,42566.1,0.0220637,0.0217223,-15.1897,22,0.00532787,10,-0.000329955,-1.81845,0.710745,0.0830115,-49.1742,0.0217223,
2,0,0,1,0,42566.2,0.0120848,0.0117601,-14.6267,22,0.00458352,10,-0.000172012,-1.83485,0.52944,0.111438,-63.637,0.01176013,
2,0,0,1,0,42566.2,0.00210598,0.00169446,-14.0382,22,0.00386939,10,-2.37872e-05,-1.85269,0.568458,0.103789,-56.7019,0.00169446,
2,0,0,1,0,42566.3,-0.00789103,-0.00826131,-13.3996,22,0.00318404,10,0.000110699,-1.87291,0.567732,0.103922,-54.4263,-0.00826131,
2,0,0,1,0,42566.3,-0.017879,-0.0182738,-12.9714,22,0.00252687,10,0.000237036,-1.88701,0.912246,0.0646755,-32.7032,-0.0182738,
2,0,0,1,0,42566.4,-0.0278578,-0.0282535,-12.6867,22,0.00188778,10,0.000358443,-1.89665,1.54436,0.0382035,-18.9349,-0.02825355,
2,0,0,1,0,42566.4,-0.0378549,-0.0381963,-12.5995,22,0.00125654,10,0.000481254,-1.89965,9.26248,0.00636978,-3.12785,-0.0381963,
2,0,0,1,0,42566.5,-0.0478519,-0.0482215,-12.6216,22,0.000626642,10,0.000608631,-1.89889,-1.99642,-0.029553,14.5764,-0.0482215,
2,0,0,1,0,42566.5,-0.0578126,-0.0581877,-12.7906,22,-5.73656e-06,10,0.000744255,-1.89311,-1.42998,-0.0412594,20.5784,-0.0581877,
2,0,0,1,0,42566.6,-0.0678187,-0.0682129,-13.0317,22,-0.000650872,10,0.000888932,-1.885,-0.990093,-0.0595903,30.3205,-0.0682129,
2,0,0,1,0,42566.6,-0.0778157,-0.0781955,-13.3763,22,-0.00131088,10,0.00104597,-1.87366,-0.846264,-0.0697182,36.3922,-0.0781955,
2,0,0,1,0,42566.7,-0.0877945,-0.0881787,-13.8126,22,-0.00198902,10,0.00121797,-1.85973,-0.623133,-0.0946828,51.0733,-0.0881787,
2,0,0,1,0,42566.7,-0.0977734,-0.0981288,-14.3387,22,-0.0026913,10,0.00140704,-1.84349,-0.559074,-0.105532,59.0784,-0.0981288,
2,0,0,1,1,42566.8,-0.0936874,-0.094064,-7.19807,22,-0.00317313,10,0.000677079,-2.14278,-0.0214945,-2.74489,770.276,-0.094064,
2,0,0,1,1,42566.8,-0.0837086,-0.0841152,-1.40494,22,-0.00337371,10,0.000118177,-2.85234,-0.00640684,-9.2089,442.37,-0.0841152,
2,1,0,1,1,42566.9,-0.0737025,-0.0741178,2.25077,22,-0.00334594,10,-0.000166822,-2.64767,0.0168137,3.50903,297.62,-0.0741178,
2,1,0,1,1,42566.9,-0.0637236,-0.0641557,4.76119,22,-0.00316728,10,-0.000305457,-2.32228,0.0526083,1.1215,206.96,-0.0641557,
2,1,0,1,1,42567,-0.0537447,-0.0541429,6.5258,22,-0.00288297,10,-0.000353326,-2.18537,0.101975,0.578573,147.158,-0.0541429,
2,1,0,1,1,42567,-0.0437477,-0.0441455,7.7723,22,-0.0025233,10,-0.000343112,-2.10945,0.171317,0.344391,104.341,-0.0441455,
2,1,0,1,1,42567.1,-0.0337507,-0.0341021,8.63199,22,-0.00211142,10,-0.000294369,-2.06389,0.284621,0.207293,69.9019,-0.0341021,
2,1,0,1,1,42567.1,-0.0237809,-0.0241541,9.21451,22,-0.00166589,10,-0.000222568,-2.03553,0.443951,0.132898,47.7167,-0.0241541,
2,1,0,1,1,42567.2,-0.0137839,-0.0141827,9.56356,22,-0.00119562,10,-0.000135637,-2.01938,0.871164,0.0677255,25.2968,-0.0141827,
2,1,0,1,1,42567.2,-0.0037869,-0.00414626,9.78328,22,-0.00071141,10,-4.0564e-05,-2.00952,1.39484,0.0422988,16.1389,-0.00414626,
2,1,0,1,1,42567.3,-2.55332e-05,-0.000344411,9.83034,22,-0.000528027,10,-3.38567e-06,-2.00743, , , ,-0.000344411,

File: 20221101_1-115_003_TrumpetPlot_ParaChange_from10_every3_10_CV_C01_22.csv
mode,ox/red,error,control changes,counter inc.,time/s,control/V,Ewe/V,<I>/mA,cycle number,(Q-Qo)/C,I Range,P/W,log(|I|),Tafel slope mV/dec,alpha_eff,dI/d(E-IR),E-IR/V,
2,1,0,0,0,44533.4,-2.44065e-05,-0.000478022,5.17395,23,0.0000000E+000,10,-2.47326e-06,-2.28618, , , ,-0.000478022,
2,1,0,1,0,44533.4,0.00977853,0.00944391,7.63695,23,0.000325424,10,7.21227e-05,-2.11708,0.116771,0.505263,150.161,0.00944391,
2,1,0,1,0,44533.5,0.0197755,0.0194691,8.75032,23,0.000737813,10,0.000170361,-2.05798,0.240909,0.244906,83.5828,0.01946909,
2,1,0,1,0,44533.5,0.0297726,0.0294283,9.48284,23,0.00119465,10,0.000279064,-2.02306,0.335236,0.175995,65.1159,0.0294283,
2,1,0,1,0,44533.6,0.0397514,0.0394129,10.0963,23,0.00168345,10,0.000397925,-1.99584,0.362857,0.162599,64.0523,0.0394129,
2,1,0,1,0,44533.6,0.0497393,0.0494223,10.7096,23,0.00220237,10,0.000529293,-1.97023,0.410909,0.143584,59.9707,0.0494223,
2,1,0,1,0,44533.7,0.0597364,0.0593737,11.3351,23,0.0027532,10,0.000673008,-1.94557,0.402125,0.146721,64.8559,0.05937374,
2,1,0,1,0,44533.7,0.0697152,0.0693895,11.9844,23,0.003335,10,0.000831593,-1.92138,0.418336,0.141035,66.0139,0.0693895,
2,1,0,1,0,44533.8,0.0796941,0.0793382,12.6481,23,0.00394982,10,0.00100348,-1.89797,0.455825,0.129436,63.8356,0.0793382,
2,1,0,1,0,44533.8,0.0896911,0.0893651,13.2631,23,0.00459761,10,0.00118526,-1.87735,0.496486,0.118835,61.5381,0.08936511,
2,1,0,1,0,44533.9,0.099679,0.0993654,13.867,23,0.00527447,10,0.0013779,-1.85802,0.540888,0.10908,58.9272,0.0993654,
2,1,0,1,0,44533.9,0.109658,0.10936,14.4787,23,0.00598091,10,0.00158339,-1.83927,0.473263,0.124666,70.5236,0.10936,
2,1,0,1,0,44534,0.119655,0.119328,15.3115,23,0.00672493,10,0.00182709,-1.81498,0.402114,0.146725,87.627,0.119328,
2,1,0,1,0,44534,0.129652,0.129329,16.2689,23,0.00751445,10,0.00210404,-1.78864,0.376488,0.156711,99.5815,0.129329,
2,1,0,1,0,44534.1,0.139631,0.139271,17.2092,23,0.00835081,10,0.00239674,-1.76424,0.476855,0.123727,83.0518,0.139271,
2,1,0,1,0,44534.1,0.149619,0.149282,17.92,23,0.00922861,10,0.00267513,-1.74666,0.727917,0.0810532,56.693,0.149282,
2,1,0,1,0,44534.2,0.159616,0.159293,18.1818,23,0.0101341,10,0.00289624,-1.74036,-2.50957,-0.02351,-16.6609,0.159293,
2,1,0,1,0,44534.2,0.169595,0.169268,17.4875,23,0.0110286,10,0.00296007,-1.75727,-0.306858,-0.192271,-131.039,0.169268,
2,1,0,1,0,44534.3,0.179573,0.179241,15.6927,23,0.0118598,10,0.00281278,-1.8043,-0.166403,-0.354562,-216.888,0.179241,
2,1,0,1,0,44534.3,0.18957,0.189259,13.4987,23,0.012589,10,0.00255475,-1.86971,-0.154386,-0.38216,-201.573,0.189259,
2,1,0,1,0,44534.4,0.199558,0.199262,11.7218,23,0.0132155,10,0.00233572,-1.931,-0.182673,-0.322981,-147.605,0.199262,
2,1,0,1,0,44534.4,0.209537,0.209206,10.4619,23,0.0137665,10,0.0021887,-1.98039,-0.226539,-0.260441,-106.492,0.2092057,
2,1,0,1,0,44534.5,0.219534,0.21917,9.61108,23,0.0142669,10,0.00210646,-2.01723,-0.311599,-0.189346,-70.9936,0.21917,
2,1,0,1,0,44534.5,0.229531,0.229222,9.0013,23,0.0147315,10,0.0020633,-2.04569,-0.399789,-0.147578,-51.9455,0.229222,
2,1,0,1,0,44534.6,0.23951,0.239201,8.58468,23,0.0151698,10,0.00205347,-2.06628,-0.542889,-0.108678,-36.3993,0.239201,
2,1,0,1,0,44534.6,0.249498,0.249191,8.25708,23,0.0155895,10,0.00205759,-2.08317,-0.670973,-0.087932,-28.3545,0.249191,
2,1,0,1,0,44534.7,0.259495,0.25923,8.00982,23,0.0159959,10,0.00207639,-2.09638,-0.754847,-0.0781615,-24.4118,0.25923,
2,1,0,1,0,44534.7,0.269474,0.269129,7.80097,23,0.0163902,10,0.00209947,-2.10785,-1.00169,-0.0589007,-17.9562,0.269129,
2,1,0,1,0,44534.8,0.279453,0.279161,7.63637,23,0.0167753,10,0.00213178,-2.11711,-1.17346,-0.0502789,-14.9766,0.279161,
2,1,0,1,0,44534.8,0.28945,0.289143,7.47797,23,0.0171531,10,0.00216221,-2.12622,-1.24816,-0.0472694,-13.8109,0.289143,
2,1,0,1,0,44534.9,0.299438,0.299122,7.35331,23,0.0175232,10,0.00219954,-2.13352,-0.0636364,-0.927142,-256.115,0.299122,
2,1,0,1,0,44534.9,0.291747,0.291403,0.859265,23,0.0176797,10,0.000250392,-3.06587,0.00361885,16.3035,401.409,0.291403,
2,0,0,1,0,44535,0.28175,0.281431,-1.67537,23,0.0176493,10,-0.0004715,-2.77589,-0.0227867,-2.58923,164.52,0.281431,
2,0,0,1,0,44535,0.27178,0.271458,-2.85333,23,0.0175334,10,-0.000774558,-2.54465,-0.0729025,-0.8093,89.7683,0.271458,
2,0,0,1,0,44535.1,0.261783,0.261492,-3.56424,23,0.0173715,10,-0.000932019,-2.44803,-0.145038,-0.406791,56.4823,0.261492,
2,0,0,1,0,44535.1,0.251786,0.251475,-4.05576,23,0.0171804,10,-0.00101992,-2.39193,-0.216279,-0.272796,43.1375,0.251475,
2,0,0,1,0,44535.2,0.241807,0.241496,-4.43597,23,0.016968,10,-0.00107127,-2.35301,-0.290122,-0.203363,35.2605,0.241496,
2,0,0,1,0,44535.2,0.231824,0.231523,-4.76094,23,0.0167383,10,-0.00110227,-2.32231,-0.351896,-0.167663,31.1406,0.231523,
2,0,0,1,0,44535.3,0.221822,0.22154,-5.04411,23,0.016493,10,-0.00111747,-2.29722,-0.434366,-0.13583,26.7168,0.22154,
2,0,0,1,0,44535.3,0.211843,0.211528,-5.30387,23,0.0162349,10,-0.00112192,-2.27541,-0.515048,-0.114552,23.7061,0.211528,
2,0,0,1,0,44535.4,0.201865,0.201521,-5.55231,23,0.0159639,10,-0.00111891,-2.25553,-0.549438,-0.107382,23.2792,0.201521,
2,0,0,1,0,44535.4,0.191868,0.191562,-5.8048,23,0.0156799,10,-0.00111198,-2.23621,-0.502351,-0.117448,26.6539,0.191562,
2,0,0,1,0,44535.5,0.18188,0.181582,-6.08714,23,0.0153834,10,-0.00110531,-2.21559,-0.438279,-0.134617,31.9341,0.181582,
2,0,0,1,0,44535.5,0.171901,0.171582,-6.39102,23,0.0150723,10,-0.00109658,-2.19443,-0.433607,-0.136068,33.9659,0.171582,
2,0,0,1,0,44535.6,0.161904,0.161539,-6.78874,23,0.0147433,10,-0.00109664,-2.16821,-0.353849,-0.166738,44.1493,0.1615386,
2,0,0,1,0,44535.6,0.151907,0.151612,-7.3418,23,0.0143908,10,-0.00111311,-2.1342,-0.246146,-0.239695,68.8401,0.151612,
2,0,0,1,0,44535.7,0.141928,0.141627,-8.26313,23,0.0140031,10,-0.00117028,-2.08286,-0.160364,-0.367914,118.641,0.141627,
2,0,0,1,0,44535.7,0.13194,0.131601,-9.71926,23,0.0135569,10,-0.00127906,-2.01237,-0.129758,-0.454693,172.704,0.131601,
2,0,0,1,0,44535.8,0.121943,0.121657,-11.6259,23,0.0130243,10,-0.00141438,-1.93457,-0.13706,-0.430468,195.036,0.1216574,
2,0,0,1,0,44535.8,0.111964,0.111661,-13.4994,23,0.0123963,10,-0.00150736,-1.86968,-0.175067,-0.337014,177.573,0.111661,
2,0,0,1,0,44535.9,0.101985,0.101669,-15.1,23,0.011681,10,-0.00153521,-1.82102,-0.248225,-0.237688,139.845,0.1016695,
2,0,0,1,0,44535.9,0.0919883,0.0916547,-16.2512,23,0.0108947,10,-0.0014895,-1.78912,-0.41105,-0.143535,91.0718,0.0916547,
2,0,0,1,0,44536,0.0820004,0.0816595,-16.8406,23,0.0100662,10,-0.00137519,-1.77364,-1.45771,-0.0404744,26.5695,0.0816595,
2,0,0,1,0,44536,0.0720215,0.0716521,-16.8503,23,0.0092237,10,-0.00120736,-1.77339,1.98638,0.0297023,-19.5378,0.0716521,
2,0,0,1,0,44536.1,0.0620245,0.0616668,-16.5713,23,0.00838757,10,-0.0010219,-1.78064,1.13193,0.0521233,-33.6875,0.0616668,
2,0,0,1,0,44536.1,0.0520275,0.0516902,-16.2282,23,0.00756746,10,-0.000838837,-1.78973,1.06171,0.0555706,-35.2085,0.0516902,
2,0,0,1,0,44536.2,0.0420486,0.041724,-15.9021,23,0.00676566,10,-0.000663502,-1.79854,1.10044,0.0536147,-33.2645,0.041724,
2,0,0,1,0,44536.2,0.0320607,0.0317362,-15.5257,23,0.00598131,10,-0.000492727,-1.80895,0.862697,0.0683902,-41.4459,0.0317362,
2,0,0,1,0,44536.3,0.0220637,0.0217648,-15.0736,23,0.00521606,10,-0.000328073,-1.82178,0.66419,0.08883,-52.1975,0.0217648,
2,0,0,1,0,44536.3,0.0120848,0.011749,-14.4813,23,0.00447829,10,-0.000170141,-1.83919,0.512131,0.115205,-65.1644,0.011749,
2,0,0,1,0,44536.4,0.00210598,0.00172917,-13.8952,23,0.00377144,10,-2.40272e-05,-1.85713,0.589035,0.100164,-54.154,0.00172917,
2,0,0,1,0,44536.4,-0.00789103,-0.00824049,-13.2594,23,0.00309326,10,0.000109264,-1.87748,0.583247,0.101158,-52.4432,-0.00824049,
2,0,0,1,0,44536.5,-0.017879,-0.018242,-12.8525,23,0.0024423,10,0.000234455,-1.89101,0.977513,0.0603573,-30.2424,-0.018242,
2,0,0,1,0,44536.5,-0.0278578,-0.0282527,-12.5886,23,0.00180834,10,0.000355662,-1.90002,1.64983,0.0357613,-17.5969,-0.0282527,
2,0,0,1,0,44536.6,-0.0378549,-0.0381859,-12.5213,23,0.00118112,10,0.000478139,-1.90235,8.89333,0.00663418,-3.23866,-0.0381859,
2,0,0,1,0,44536.6,-0.0478519,-0.0482354,-12.5665,23,0.000554276,10,0.00060615,-1.90079,-1.84137,-0.0320413,15.7378,-0.0482354,
2,0,0,1,0,44536.7,-0.0578126,-0.0581729,-12.7495,23,-7.58703e-05,10,0.000741676,-1.89451,-1.30322,-0.0452725,22.5172,-0.05817293,
2,0,0,1,0,44536.7,-0.0678187,-0.068225,-13.0082,23,-0.000719487,10,0.000887487,-1.88578,-0.944216,-0.0624857,31.7384,-0.068225,
2,0,0,1,0,44536.8,-0.0778157,-0.0782433,-13.3619,23,-0.00137858,10,0.00104548,-1.87413,-0.811568,-0.0726988,37.9082,-0.0782433,
2,0,0,1,0,44536.8,-0.0877945,-0.0881453,-13.8046,23,-0.00205618,10,0.00121681,-1.85998,-0.626367,-0.094194,50.8059,-0.0881453,
2,0,0,1,0,44536.9,-0.0977734,-0.0981305,-14.3442,23,-0.00275843,10,0.0014076,-1.84332,-0.553268,-0.106639,59.7051,-0.0981305,
2,0,0,1,1,44536.9,-0.0936874,-0.0940536,-7.08252,23,-0.00323786,10,0.000666137,-2.14981,-0.0206866,-2.85209,787.054,-0.0940536,
2,0,0,1,1,44537,-0.0837086,-0.0841378,-1.24006,23,-0.0034312,10,0.000104336,-2.90656,-0.00524731,-11.2438,449.525,-0.0841378,
2,1,0,1,1,44537,-0.0737025,-0.0740961,2.4321,23,-0.00339467,10,-0.000180209,-2.61402,0.0178349,3.30811,304.483,-0.0740961,
2,1,0,1,1,44537.1,-0.0637236,-0.0641565,4.93777,23,-0.00320682,10,-0.00031679,-2.30647,0.0548082,1.07648,206.287,-0.0641565,
2,1,0,1,1,44537.1,-0.0537447,-0.0541238,6.70096,23,-0.00291358,10,-0.000362681,-2.17386,0.106499,0.553994,144.635,-0.0541238,
2,1,0,1,1,44537.2,-0.0437477,-0.0441524,7.93376,23,-0.0025455,10,-0.000350295,-2.10052,0.178624,0.330302,102.075,-0.0441524,
2,1,0,1,1,44537.2,-0.0337507,-0.0341151,8.76774,23,-0.00212617,10,-0.000299112,-2.05711,0.303049,0.194688,66.686,-0.0341151,
2,1,0,1,1,44537.3,-0.0237809,-0.024148,9.33678,23,-0.00167418,10,-0.000225465,-2.0298,0.483822,0.121946,44.3333,-0.024148,
2,1,0,1,1,44537.3,-0.0137839,-0.0141177,9.65979,23,-0.00119853,10,-0.000136374,-2.01503,1.02116,0.0577774,21.8016,-0.0141177,
2,1,0,1,1,44537.4,-0.0037869,-0.00415146,9.86033,23,-0.000709942,10,-4.09348e-05,-2.00611,1.692,0.03487,13.4,-0.00415146,
2,1,0,1,1,44537.4,-2.55332e-05,-0.000363498,9.87677,23,-0.000525248,10,-3.59019e-06,-2.00539, , , ,-0.000363498,