Folder: Figs_alphaMnO2_OER_Tafel_sleope/Figure_codes/Fig_3-5/rawdata_trumpetplot_data/after 10th (part 132)

File: 20221101_1-115_003_TrumpetPlot_ParaChange_from10_every3_09_CV_C01_20.csv
mode,ox/red,error,control changes,counter inc.,time/s,control/V,Ewe/V,<I>/mA,cycle number,(Q-Qo)/C,I Range,P/W,log(|I|),Tafel slope mV/dec,alpha_eff,dI/d(E-IR),E-IR/V,
2,0,0,0,0,40585.1,2.44065e-05,-0.000344411,-5.33521,21,0.0000000E+000,10,1.8375e-06,-2.27285, , , ,-0.000344411,
2,1,0,1,0,40585.2,0.00978761,0.00944652,0.885631,21,-0.000133049,10,8.36613e-06,-3.05275,0.00511611,11.5322,292.876,0.00944652,
2,1,0,1,0,40585.3,0.0197755,0.019433,2.74532,21,6.24974e-05,10,5.33497e-05,-2.56141,0.0524169,1.12559,119.773,0.019433,
2,1,0,1,0,40585.4,0.0297635,0.0294565,3.67591,21,0.000387882,10,0.00010828,-2.43464,0.115508,0.510787,73.0845,0.0294565,
2,1,0,1,0,40585.5,0.0397514,0.0394269,4.32012,21,0.00078924,10,0.000170329,-2.3645,0.163543,0.360761,60.8487,0.0394269,
2,1,0,1,0,40585.6,0.0497484,0.0494331,4.88287,21,0.00125018,10,0.000241375,-2.31133,0.209861,0.281138,53.4987,0.0494331,
2,1,0,1,0,40585.7,0.0597273,0.059441,5.38976,21,0.0017637,10,0.000320372,-2.26843,0.244663,0.241148,50.6819,0.059441,
2,1,0,1,0,40585.8,0.0697152,0.0694098,5.8526,21,0.00232645,10,0.000406228,-2.23265,0.321066,0.183763,41.9913,0.0694098,
2,1,0,1,0,40585.9,0.0797031,0.0793933,6.26845,21,0.00293316,10,0.000497673,-2.20284,0.366172,0.161127,39.4036,0.07939329,
2,1,0,1,0,40586,0.0896911,0.0893643,6.62178,21,0.00357819,10,0.000591751,-2.17903,0.435975,0.135329,34.9813,0.08936432,
2,1,0,1,0,40586.1,0.099679,0.099403,6.98834,21,0.00425722,10,0.000694662,-2.15563,0.390101,0.151243,41.2263,0.099403,
2,1,0,1,0,40586.2,0.109667,0.109351,7.49656,21,0.00497928,10,0.000819755,-2.12514,0.278883,0.211558,61.945,0.109351,
2,1,0,1,0,40586.3,0.119655,0.119346,8.16912,21,0.00576201,10,0.000974947,-2.08782,0.283289,0.208268,66.4105,0.119346,
2,1,0,1,0,40586.4,0.129643,0.129327,8.81241,21,0.00661248,10,0.00113969,-2.05491,0.38173,0.15456,53.1256,0.129327,
2,1,0,1,0,40586.5,0.139631,0.139292,9.25464,21,0.00751746,10,0.00128909,-2.03364,0.606716,0.0972448,35.1237,0.139292,
2,1,0,1,0,40586.6,0.149619,0.149299,9.41082,21,0.00845338,10,0.00140503,-2.02637,-1.70046,-0.0346964,-12.723,0.149299,
2,1,0,1,0,40586.7,0.159607,0.159275,8.76489,21,0.00937078,10,0.00139602,-2.05725,-0.167156,-0.352964,-120.456,0.159275,
2,1,0,1,0,40586.8,0.169595,0.169279,7.26341,21,0.0101749,10,0.00122954,-2.13886,-0.105384,-0.559856,-158.595,0.169279,
2,1,0,1,0,40586.9,0.179582,0.179311,5.91136,21,0.0108287,10,0.00105997,-2.22831,-0.128228,-0.460117,-106.391,0.179311,
2,1,0,1,0,40587,0.18957,0.189294,5.09363,21,0.0113751,10,0.000964196,-2.29297,-0.19064,-0.309484,-61.5495,0.189294,
2,1,0,1,0,40587.1,0.199558,0.199218,4.61231,21,0.0118578,10,0.000918855,-2.33608,-0.293275,-0.201177,-36.2111,0.199218,
2,1,0,1,0,40587.2,0.209546,0.209217,4.3257,21,0.0123033,10,0.000905009,-2.36394,-0.386465,-0.152666,-25.7768,0.209217,
2,1,0,1,0,40587.3,0.219534,0.219227,4.13149,21,0.0127252,10,0.000905732,-2.38389,-0.639787,-0.0922181,-14.8678,0.219227,
2,1,0,1,0,40587.4,0.229522,0.22925,3.99824,21,0.0131315,10,0.000916599,-2.39813,-0.875949,-0.0673555,-10.5163,0.22925,
2,1,0,1,0,40587.5,0.23951,0.239218,3.90456,21,0.0135268,10,0.000934042,-2.40843,-1.31376,-0.0449094,-6.8509,0.239218,
2,1,0,1,0,40587.6,0.249498,0.24918,3.84299,21,0.0139138,10,0.000957597,-2.41533,-1.48617,-0.0396992,-5.95348,0.24918,
2,1,0,1,0,40587.7,0.259486,0.259156,3.78487,21,0.0142948,10,0.000980871,-2.42195,-1.1881,-0.0496593,-7.33105,0.2591559,
2,1,0,1,0,40587.8,0.269474,0.269161,3.73073,21,0.0146705,10,0.00100417,-2.42821,-2.24564,-0.0262732,-3.82916,0.269161,
2,1,0,1,0,40587.9,0.279462,0.279148,3.68458,21,0.0150415,10,0.00102854,-2.43361,-2.08173,-0.0283418,-4.07883,0.279148,
2,1,0,1,0,40588,0.28945,0.289145,3.6402,21,0.0154079,10,0.00105255,-2.43887,-2.59119,-0.0227695,-3.23599,0.289145,
2,1,0,1,0,40588.1,0.299438,0.299106,3.59953,21,0.0157696,10,0.00107664,-2.44375,-0.0362039,-1.62966,-214.115,0.299106,
2,0,0,1,0,40588.2,0.291747,0.291399,-0.523676,21,0.0158566,10,-0.000152598,-3.28094,-0.00470185,-12.5483,180.06,0.291399,
2,0,0,1,0,40588.3,0.281759,0.281437,-1.48842,21,0.0157469,10,-0.000418895,-2.82728,-0.060627,-0.973164,55.9845,0.281437,
2,0,0,1,0,40588.4,0.271771,0.271439,-1.89165,21,0.0155764,10,-0.000513469,-2.72316,-0.130767,-0.451185,33.2677,0.271439,
2,0,0,1,0,40588.5,0.261783,0.261465,-2.15008,21,0.0153739,10,-0.00056217,-2.66755,-0.239539,-0.246307,20.6523,0.261465,
2,0,0,1,0,40588.6,0.251795,0.251488,-2.346,21,0.0151491,10,-0.000589991,-2.62967,-0.2909,-0.202819,18.5557,0.251488,
2,0,0,1,0,40588.7,0.241807,0.241466,-2.50409,21,0.0149067,10,-0.000604654,-2.60135,-0.394275,-0.149642,14.6579,0.241466,
2,0,0,1,0,40588.8,0.231815,0.231482,-2.65178,21,0.0146494,10,-0.00061384,-2.57646,-0.399939,-0.147523,15.2555,0.231482,
2,0,0,1,0,40588.9,0.221831,0.221491,-2.77929,21,0.0143787,10,-0.000615587,-2.55607,-0.458759,-0.128608,13.9454,0.221491,
2,0,0,1,0,40589,0.211843,0.211556,-2.90407,21,0.0140949,10,-0.000614373,-2.53699,-0.634794,-0.0929435,10.536,0.211556,
2,0,0,1,0,40589.1,0.201856,0.201533,-3.03101,21,0.0137986,10,-0.00061085,-2.51841,-0.616067,-0.0957687,11.328,0.201533,
2,0,0,1,0,40589.2,0.191868,0.191545,-3.16442,21,0.0134897,10,-0.000606128,-2.49971,-0.506146,-0.116567,14.408,0.191545,
2,0,0,1,0,40589.3,0.18188,0.181576,-3.3146,21,0.0131672,10,-0.000601851,-2.47957,-0.429287,-0.137437,17.7448,0.181576,
2,0,0,1,0,40589.4,0.171892,0.171556,-3.49022,21,0.0128283,10,-0.000598769,-2.45715,-0.399549,-0.147666,20.106,0.1715564,
2,0,0,1,0,40589.5,0.161904,0.161578,-3.73311,21,0.0124687,10,-0.000603188,-2.42793,-0.294332,-0.200454,29.1976,0.161578,
2,0,0,1,0,40589.6,0.151916,0.151572,-4.09686,21,0.0120792,10,-0.000620968,-2.38755,-0.200355,-0.294477,47.2254,0.151572,
2,0,0,1,0,40589.7,0.141928,0.141635,-4.76259,21,0.01164,10,-0.000674549,-2.32216,-0.125245,-0.471077,87.6305,0.141635,
2,0,0,1,0,40589.8,0.13194,0.131628,-5.8544,21,0.0111143,10,-0.000770605,-2.23252,-0.105234,-0.560657,128.015,0.1316282,
2,0,0,1,0,40589.9,0.121952,0.121638,-7.14816,21,0.010465,10,-0.00086949,-2.14581,-0.133443,-0.442135,123.144,0.1216383,
2,0,0,1,0,40590,0.111964,0.111628,-8.26966,21,0.00969276,10,-0.000923129,-2.08251,-0.192159,-0.307037,98.9933,0.111628,
2,0,0,1,0,40590.1,0.101976,0.101633,-9.06758,21,0.00882374,10,-0.000921562,-2.04251,-0.361912,-0.163023,57.606,0.101633,
2,0,0,1,0,40590.2,0.0919883,0.0916581,-9.40115,21,0.00789758,10,-0.000861691,-2.02682,-1.8771,-0.0314315,11.5241,0.0916581,
2,0,0,1,0,40590.3,0.0820004,0.0816813,-9.28589,21,0.00696215,10,-0.000758483,-2.03218,0.842344,0.0700426,-25.3625,0.0816813,
2,0,0,1,0,40590.4,0.0720124,0.0717289,-8.97413,21,0.00605041,10,-0.000643704,-2.04701,0.659875,0.0894109,-31.3283,0.07172887,
2,0,0,1,0,40590.5,0.0620245,0.0616956,-8.703,21,0.00516849,10,-0.000536937,-2.06033,0.760605,0.0775698,-26.3427,0.0616956,
2,0,0,1,0,40590.6,0.0520366,0.0516998,-8.46304,21,0.00431126,10,-0.000437537,-2.07247,0.810518,0.0727929,-24.0362,0.0516998,
2,0,0,1,0,40590.7,0.0420486,0.0416796,-8.20622,21,0.00347855,10,-0.000342032,-2.08586,0.71337,0.0827061,-26.4922,0.0416796,
2,0,0,1,0,40590.8,0.0320607,0.0317621,-7.90955,21,0.00267417,10,-0.000251224,-2.10185,0.550896,0.107098,-33.0293,0.0317621,
2,0,0,1,0,40590.9,0.0220728,0.0217227,-7.54229,21,0.00190225,10,-0.000163839,-2.1225,0.430484,0.137055,-40.3436,0.0217227,
2,0,0,1,0,40591,0.0120848,0.0117184,-7.16376,21,0.00116837,10,-8.39475e-05,-2.14486,0.420507,0.140307,-39.2023,0.0117184,
2,0,0,1,0,40591.1,0.0020969,0.00173958,-6.86721,21,0.000470687,10,-1.1946e-05,-2.16322,0.701519,0.0841032,-22.4574,0.00173958,
2,0,0,1,0,40591.2,-0.00789103,-0.00823121,-6.62472,21,-0.000201383,10,5.45295e-05,-2.17883,1.08211,0.0545233,-14.1181,-0.00823121,
2,0,0,1,0,40591.3,-0.017879,-0.0182516,-6.55666,21,-0.000857831,10,0.00011967,-2.18332,31.8999,0.00184954,-0.472732,-0.0182516,
2,0,0,1,0,40591.4,-0.0278669,-0.0282631,-6.58712,21,-0.00151291,10,0.000186172,-2.1813,-2.53932,-0.0232346,5.97573,-0.0282631,
2,0,0,1,0,40591.5,-0.0378548,-0.0382245,-6.71679,21,-0.00217645,10,0.000256745,-2.17284,-0.943616,-0.0625254,16.391,-0.0382245,
2,0,0,1,0,40591.6,-0.0478428,-0.0482306,-6.90186,21,-0.00285621,10,0.000332881,-2.16103,-0.612554,-0.096318,25.9871,-0.0482306,
2,0,0,1,0,40591.7,-0.0578217,-0.0582016,-7.17313,21,-0.00355823,10,0.000417488,-2.14429,-0.568183,-0.10384,29.0684,-0.0582016,
2,0,0,1,0,40591.8,-0.0678187,-0.0682077,-7.49415,21,-0.00429007,10,0.000511159,-2.12528,-0.464876,-0.126916,37.1214,-0.0682077,
2,0,0,1,0,40591.9,-0.0778066,-0.0781994,-7.89004,21,-0.00505794,10,0.000616997,-2.10292,-0.431996,-0.136575,42.0836,-0.0781994,
2,0,0,1,0,40592,-0.0877945,-0.0881706,-8.36513,21,-0.00586932,10,0.000737558,-2.07753,-0.371499,-0.158816,51.8461,-0.0881706,
2,0,0,1,0,40592.1,-0.0977825,-0.0981275,-8.86837,21,-0.00673012,10,0.00087023,-2.05216,-0.395532,-0.149166,51.6466,-0.0981275,
2,0,0,1,1,40592.2,-0.0927386,-0.0930962,-2.99464,21,-0.00731731,10,0.00027879,-2.52366,-0.0137442,-4.29271,497.411,-0.0930962,
2,1,0,1,1,40592.3,-0.0827529,-0.0831283,0.513574,21,-0.00742069,10,-4.26926e-05,-3.2894,0.00218683,26.9796,249.122,-0.0831283,
2,1,0,1,1,40592.4,-0.0727627,-0.0731045,2.43835,21,-0.00726461,10,-0.000178254,-2.6129,0.0371648,1.58753,149.082,-0.0731045,
2,1,0,1,1,40592.5,-0.0627748,-0.0631404,3.60276,21,-0.00695805,10,-0.00022748,-2.44336,0.0893774,0.660122,92.5757,-0.0631404,
2,1,0,1,1,40592.6,-0.0527868,-0.0531437,4.32352,21,-0.00655873,10,-0.000229768,-2.36416,0.180475,0.326914,55.0905,-0.0531437,
2,1,0,1,1,40592.7,-0.0427989,-0.0431534,4.76528,21,-0.00610245,10,-0.000205638,-2.32191,0.298032,0.197965,36.8072,-0.0431534,
2,1,0,1,1,40592.8,-0.0328109,-0.0331516,5.02124,21,-0.00561263,10,-0.000166462,-2.29919,0.638435,0.0924135,18.0975,-0.0331516,
2,1,0,1,1,40592.9,-0.022823,-0.0231683,5.14523,21,-0.00510401,10,-0.000119206,-2.28859,1.45677,0.0405005,8.13145,-0.0231683,
2,1,0,1,1,40593,-0.0128351,-0.0131976,5.19035,21,-0.00458712,10,-6.84999e-05,-2.2848,9.54954,0.00617831,1.25199,-0.0131976,
2,1,0,1,1,40593.1,-0.00284713,-0.00320295,5.20127,21,-0.00406776,10,-1.66594e-05,-2.28389,-26.1352,-0.00225749,-0.45801,-0.00320295,
2,1,0,1,1,40593.1,-2.55332e-05,-0.000382585,5.22101,21,-0.00392163,10,-1.99748e-06,-2.28225, , , ,-0.000382585,

File: 20221101_1-115_003_TrumpetPlot_ParaChange_from10_every3_09_CV_C01_21.csv
mode,ox/red,error,control changes,counter inc.,time/s,control/V,Ewe/V,<I>/mA,cycle number,(Q-Qo)/C,I Range,P/W,log(|I|),Tafel slope mV/dec,alpha_eff,dI/d(E-IR),E-IR/V,
2,0,0,0,0,42555.3,2.44065e-05,-0.000382585,-5.30468,22,0.0000000E+000,10,2.02949e-06,-2.27534, , , ,-0.000382585,
2,1,0,1,0,42555.4,0.00978761,0.00944348,1.07422,22,-0.000116274,10,1.01444e-05,-2.96891,0.00698538,8.44621,290.199,0.00944348,
2,1,0,1,0,42555.5,0.0197755,0.0193906,2.88404,22,9.51697e-05,10,5.59234e-05,-2.54,0.0564299,1.04554,117.069,0.0193906,
2,1,0,1,0,42555.6,0.0297635,0.0294322,3.78379,22,0.000432032,10,0.000111365,-2.42207,0.121529,0.485479,71.4697,0.0294322,
2,1,0,1,0,42555.7,0.0397514,0.0393862,4.40623,22,0.000842236,10,0.000173545,-2.35593,0.165389,0.356735,61.3867,0.03938625,
2,1,0,1,0,42555.8,0.0497484,0.049421,4.9642,22,0.00131078,10,0.000245336,-2.30415,0.217726,0.270983,52.4088,0.049421,
2,1,0,1,0,42555.9,0.0597273,0.0594115,5.46531,22,0.00183122,10,0.000324702,-2.26238,0.254037,0.23225,49.4801,0.0594115,
2,1,0,1,0,42556,0.0697152,0.0694197,5.91933,22,0.00240053,10,0.000410919,-2.22773,0.328518,0.179594,41.534,0.0694197,
2,1,0,1,0,42556.1,0.0797031,0.079356,6.33744,22,0.00301339,10,0.000502914,-2.19809,0.380697,0.154979,38.3054,0.079356,
2,1,0,1,0,42556.2,0.0896911,0.0893369,6.68001,22,0.00366413,10,0.000596771,-2.17522,0.437434,0.134877,35.2029,0.0893369,
2,1,0,1,0,42556.3,0.099679,0.0993586,7.05993,22,0.00434894,10,0.000701465,-2.1512,0.381775,0.154541,42.5327,0.0993586,
2,1,0,1,0,42556.4,0.109667,0.109371,7.58655,22,0.00507824,10,0.000829746,-2.11996,0.273459,0.215754,63.9268,0.109371,
2,1,0,1,0,42556.5,0.119655,0.119359,8.28305,22,0.00587068,10,0.000988655,-2.08181,0.273358,0.215834,69.7682,0.119359,
2,1,0,1,0,42556.6,0.129643,0.129327,8.91749,22,0.00673179,10,0.00115327,-2.04976,0.385838,0.152914,53.1972,0.129327,
2,1,0,1,0,42556.7,0.139631,0.139286,9.33487,22,0.00764595,10,0.00130022,-2.02989,0.718569,0.0821076,29.9278,0.139286,
2,1,0,1,0,42556.8,0.149619,0.149313,9.4379,22,0.00858719,10,0.00140921,-2.02512,-0.931832,-0.0633161,-23.2584,0.149313,
2,1,0,1,0,42556.9,0.159607,0.159321,8.65768,22,0.00950023,10,0.00137935,-2.0626,-0.148494,-0.397322,-134.017,0.159321,
2,1,0,1,0,42557,0.169595,0.169293,7.0862,22,0.0102886,10,0.00119964,-2.14959,-0.103844,-0.568161,-157.115,0.169293,
2,1,0,1,0,42557.1,0.179582,0.179276,5.77899,22,0.0109263,10,0.00103604,-2.23815,-0.13237,-0.44572,-100.731,0.179276,
2,1,0,1,0,42557.2,0.18957,0.189266,5.00915,22,0.0114618,10,0.00094806,-2.30024,-0.202762,-0.290981,-56.9708,0.189266,
2,1,0,1,0,42557.3,0.199558,0.199254,4.56806,22,0.0119378,10,0.000910204,-2.34027,-0.313803,-0.188016,-33.4788,0.199254,
2,1,0,1,0,42557.4,0.209546,0.2092,4.29315,22,0.012379,10,0.000898127,-2.36722,-0.396448,-0.148821,-24.9374,0.2092,
2,1,0,1,0,42557.5,0.219534,0.219214,4.10809,22,0.0127979,10,0.000900552,-2.38636,-0.631066,-0.0934926,-14.9858,0.219214,
2,1,0,1,0,42557.6,0.229522,0.229271,3.98006,22,0.013202,10,0.000912513,-2.40011,-0.882198,-0.0668784,-10.3994,0.229271,
2,1,0,1,0,42557.7,0.23951,0.239182,3.89254,22,0.0135956,10,0.000931027,-2.40977,-1.31525,-0.0448585,-6.8221,0.239182,
2,1,0,1,0,42557.8,0.249498,0.249192,3.83043,22,0.0139811,10,0.000954513,-2.41675,-1.32766,-0.044439,-6.63981,0.249192,
2,1,0,1,0,42557.9,0.259486,0.259196,3.7744,22,0.014361,10,0.000978309,-2.42315,-1.38276,-0.0426684,-6.28581,0.259196,
2,1,0,1,0,42558,0.269474,0.269164,3.72663,22,0.0147358,10,0.00100308,-2.42868,-2.31042,-0.0255365,-3.71382,0.269164,
2,1,0,1,0,42558.1,0.279462,0.279162,3.68052,22,0.015106,10,0.00102746,-2.43409,-1.98059,-0.0297891,-4.28059,0.279162,
2,1,0,1,0,42558.2,0.28945,0.289147,3.63783,22,0.0154717,10,0.00105187,-2.43916,-2.57147,-0.0229441,-3.25517,0.289147,
2,1,0,1,0,42558.3,0.299438,0.299142,3.59461,22,0.0158327,10,0.0010753,-2.44435,-0.0343846,-1.71589,-223.784,0.299142,
2,0,0,1,0,42558.3,0.291747,0.291395,-0.609512,22,0.0159128,10,-0.000177609,-3.21502,-0.00621783,-9.48884,173.607,0.291395,
2,0,0,1,0,42558.4,0.281759,0.281449,-1.54149,22,0.0157966,10,-0.00043385,-2.81206,-0.0642421,-0.9184,54.6258,0.281449,
2,0,0,1,0,42558.5,0.271771,0.271449,-1.93255,22,0.0156216,10,-0.000524589,-2.71387,-0.135286,-0.436114,32.7869,0.271449,
2,0,0,1,0,42558.6,0.261783,0.26147,-2.18736,22,0.0154154,10,-0.000571929,-2.66008,-0.247086,-0.238783,20.326,0.2614705,
2,0,0,1,0,42558.7,0.251795,0.251447,-2.37178,22,0.0151875,10,-0.000596377,-2.62493,-0.308088,-0.191504,17.7394,0.251447,
2,0,0,1,0,42558.8,0.241807,0.241484,-2.52259,22,0.0149423,10,-0.000609167,-2.59815,-0.367935,-0.160354,15.8568,0.241484,
2,0,0,1,0,42558.9,0.231815,0.231524,-2.67352,22,0.0146825,10,-0.000618982,-2.57292,-0.414325,-0.1424,14.8358,0.231524,
2,0,0,1,0,42559,0.221831,0.221513,-2.79897,22,0.0144094,10,-0.000620007,-2.553,-0.530061,-0.111308,12.1589,0.221513,
2,0,0,1,0,42559.1,0.211843,0.211541,-2.92204,22,0.0141235,10,-0.000618131,-2.53431,-0.685357,-0.0860865,9.81405,0.211541,
2,0,0,1,0,42559.2,0.201856,0.20148,-3.04523,22,0.0138251,10,-0.000613553,-2.51638,-0.599815,-0.0983637,11.7132,0.20148,
2,0,0,1,0,42559.3,0.191868,0.191554,-3.17741,22,0.0135142,10,-0.000608647,-2.49793,-0.505786,-0.11665,14.486,0.191554,
2,0,0,1,0,42559.4,0.18188,0.181513,-3.33188,22,0.0131897,10,-0.000604779,-2.47731,-0.439186,-0.13434,17.4242,0.181513,
2,0,0,1,0,42559.5,0.171892,0.171575,-3.50469,22,0.0128487,10,-0.000601317,-2.45535,-0.415538,-0.141985,19.4272,0.171575,
2,0,0,1,0,42559.6,0.161904,0.161554,-3.7504,22,0.0124871,10,-0.000605893,-2.42592,-0.287205,-0.205428,30.0571,0.1615542,
2,0,0,1,0,42559.7,0.151916,0.151589,-4.12475,22,0.012095,10,-0.000625266,-2.3846,-0.194529,-0.303297,48.9404,0.151589,
2,0,0,1,0,42559.8,0.141928,0.141628,-4.80508,22,0.011652,10,-0.000680534,-2.3183,-0.120208,-0.490815,92.1502,0.141628,
2,0,0,1,0,42559.9,0.13194,0.131605,-5.93731,22,0.011119,10,-0.000781382,-2.22641,-0.102709,-0.574436,133.171,0.131605,
2,0,0,1,0,42560,0.121952,0.121635,-7.26372,22,0.0104589,10,-0.000883524,-2.13884,-0.136406,-0.432532,122.435,0.121635,
2,0,0,1,0,42560.1,0.111964,0.111604,-8.39189,22,0.00967421,10,-0.000936564,-2.07614,-0.19863,-0.297034,97.1353,0.111604,
2,0,0,1,0,42560.2,0.101976,0.10163,-9.16521,22,0.00879345,10,-0.000931456,-2.03786,-0.40427,-0.145942,52.1107,0.10163,
2,0,0,1,0,42560.3,0.0919883,0.0916448,-9.44672,22,0.0078593,10,-0.000865743,-2.02472,-4.02525,-0.0146575,5.40098,0.0916448,
2,0,0,1,0,42560.4,0.0820004,0.0816767,-9.27001,22,0.00692175,10,-0.000757143,-2.03292,0.672044,0.0877919,-31.7474,0.0816767,
2,0,0,1,0,42560.5,0.0720124,0.0716586,-8.93568,22,0.00601206,10,-0.000640318,-2.04887,0.632945,0.0932151,-32.5232,0.0716586,
2,0,0,1,0,42560.6,0.0620245,0.0616309,-8.66795,22,0.00513311,10,-0.000534213,-2.06208,0.816857,0.0722281,-24.4337,0.0616309,
2,0,0,1,0,42560.7,0.0520366,0.0516468,-8.42804,22,0.00427871,10,-0.000435282,-2.07427,0.729039,0.0809284,-26.6103,0.0516468,
2,0,0,1,0,42560.8,0.0420486,0.0417419,-8.16417,22,0.00344897,10,-0.000340788,-2.08809,0.705847,0.0835876,-26.6516,0.0417419,
2,0,0,1,0,42560.9,0.0320607,0.0317405,-7.87056,22,0.00264781,10,-0.000249816,-2.10399,0.529818,0.111359,-34.1613,0.0317405,
2,0,0,1,0,42561,0.0220728,0.0217119,-7.49277,22,0.00187979,10,-0.000162682,-2.12536,0.423878,0.139191,-40.7068,0.0217119,
2,0,0,1,0,42561.1,0.0120848,0.0117175,-7.1105,22,0.00115015,10,-8.33175e-05,-2.1481,0.427243,0.138095,-38.3414,0.0117175,
2,0,0,1,0,42561.2,0.0020969,0.00173697,-6.83537,22,0.000456182,10,-1.18729e-05,-2.16524,0.773591,0.0762677,-20.2564,0.00173697,
2,0,0,1,0,42561.3,-0.00789103,-0.00827602,-6.59842,22,-0.000213485,10,5.46087e-05,-2.18056,1.119,0.0527256,-13.5988,-0.00827602,
2,0,0,1,0,42561.4,-0.017879,-0.0182433,-6.54012,22,-0.000868626,10,0.000119314,-2.18441,-11.8025,-0.00499892,1.27554,-0.0182433,
2,0,0,1,0,42561.5,-0.0278669,-0.0282453,-6.582,22,-0.00152376,10,0.000185911,-2.18164,-1.89044,-0.0312097,8.0291,-0.0282453,
2,0,0,1,0,42561.6,-0.0378548,-0.0382635,-6.72866,22,-0.00218835,10,0.000257462,-2.17207,-0.931017,-0.0633715,16.6238,-0.0382635,
2,0,0,1,0,42561.7,-0.0478428,-0.0482094,-6.925,22,-0.00287013,10,0.00033385,-2.15958,-0.588752,-0.100212,27.1156,-0.0482094,
2,0,0,1,0,42561.8,-0.0578217,-0.0582181,-7.19697,22,-0.00357484,10,0.000418993,-2.14285,-0.542539,-0.108748,30.5345,-0.0582181,
2,0,0,1,0,42561.9,-0.0678187,-0.0681945,-7.52492,22,-0.00431007,10,0.000513158,-2.1235,-0.455795,-0.129444,38.0329,-0.0681945,
2,0,0,1,0,42562,-0.0778066,-0.0781543,-7.92785,22,-0.00508193,10,0.000619596,-2.10084,-0.435155,-0.135584,41.9612,-0.0781543,
2,0,0,1,0,42562.1,-0.0877945,-0.0881826,-8.40455,22,-0.00589777,10,0.000741135,-2.07549,-0.385376,-0.153097,50.2251,-0.0881826,
2,0,0,1,0,42562.2,-0.0977825,-0.0981505,-8.91029,22,-0.00676332,10,0.000874549,-2.05011,-0.407593,-0.144752,50.3498,-0.0981505,
2,0,0,1,1,42562.3,-0.0927386,-0.0931066,-2.81712,22,-0.00734223,10,0.000262292,-2.5502,-0.0123398,-4.78129,517.719,-0.09310665,
2,1,0,1,1,42562.4,-0.0827529,-0.0831413,0.719287,22,-0.00742516,10,-5.98025e-05,-3.1431,0.00505955,11.6611,248.174,-0.0831413,
2,1,0,1,1,42562.5,-0.0727627,-0.073136,2.62958,22,-0.00724905,10,-0.000192317,-2.58011,0.0410429,1.43752,145.373,-0.073136,
2,1,0,1,1,42562.6,-0.0627748,-0.0631296,3.76336,22,-0.00692471,10,-0.000237579,-2.42442,0.0971477,0.607323,88.9286,-0.0631296,
2,1,0,1,1,42562.7,-0.0527868,-0.0531574,4.45902,22,-0.00651036,10,-0.00023703,-2.35076,0.192003,0.307286,53.3431,-0.0531574,
2,1,0,1,1,42562.8,-0.0427989,-0.0431352,4.86904,22,-0.00604168,10,-0.000210027,-2.31256,0.33567,0.175768,33.4155,-0.0431352,
2,1,0,1,1,42562.9,-0.0328109,-0.0331568,5.10852,22,-0.00554181,10,-0.000169382,-2.2917,0.728834,0.0809512,16.1147,-0.0331568,
2,1,0,1,1,42563,-0.022823,-0.0232243,5.21131,22,-0.00502527,10,-0.000121029,-2.28305,2.59931,0.0226983,4.61258,-0.0232243,
2,1,0,1,1,42563.1,-0.0128351,-0.0131941,5.23391,22,-0.00450232,10,-6.90567e-05,-2.28117,-14.3118,-0.00412246,-0.842531,-0.0131941,
2,1,0,1,1,42563.2,-0.00284713,-0.00322494,5.23823,22,-0.00397822,10,-1.6893e-05,-2.28082,-4.92335,-0.0119837,-2.44742,-0.00322494,
2,1,0,1,1,42563.3,-2.55332e-05,-0.000344411,5.24773,22,-0.00383094,10,-1.80737e-06,-2.28003, , , ,-0.000344411,