Folder: Figs_alphaMnO2_OER_Tafel_sleope/Figure_codes/Fig_3-5/rawdata_trumpetplot_data/after 10th (part 38)

File: 20221101_1-115_003_TrumpetPlot_ParaChange_from10_every3_04_CV_C01_4.csv
mode,ox/red,error,control changes,counter inc.,time/s,control/V,Ewe/V,<I>/mA,cycle number,(Q-Qo)/C,I Range,P/W,log(|I|),Tafel slope mV/dec,alpha_eff,dI/d(E-IR),E-IR/V,
2,0,0,1,0,8940.54,2.44065e-05,-0.000306236,-0.374796,5,0.0000000E+000,10,1.14776e-07,-3.42621, , , ,-0.000306236,
2,1,0,1,0,8941.26,0.00729063,0.00695861,0.386352,5,0.000220763,10,2.68847e-06,-3.41302,0.0674508,0.874712,13.0494,0.00695861,
2,1,0,1,0,8942.01,0.0147814,0.0144355,0.454804,5,0.000552019,10,6.56534e-06,-3.34218,0.126663,0.465803,8.27552,0.01443552,
2,1,0,1,0,8942.76,0.0222725,0.0219517,0.512554,5,0.000929105,10,1.12514e-05,-3.29026,0.169742,0.347586,6.94548,0.0219517,
2,1,0,1,0,8943.51,0.0297635,0.0294392,0.561682,5,0.00134582,10,1.65355e-05,-3.25051,0.1853,0.318402,6.98634,0.0294392,
2,1,0,1,0,8944.26,0.0372544,0.0369501,0.617485,5,0.00180228,10,2.28161e-05,-3.20937,0.189465,0.311404,7.51436,0.0369501,
2,1,0,1,0,8945.01,0.0447458,0.0444477,0.670625,5,0.00229971,10,2.98077e-05,-3.17352,0.18798,0.313863,8.22603,0.0444477,
2,1,0,1,0,8945.76,0.0522363,0.0519198,0.719258,5,0.00283644,10,3.73438e-05,-3.14312,0.228337,0.25839,7.269,0.0519198,
2,1,0,1,0,8946.51,0.0597282,0.0594178,0.770532,5,0.00340972,10,4.57834e-05,-3.11321,0.278791,0.211628,6.35395,0.0594178,
2,1,0,1,0,8947.26,0.0672182,0.0669013,0.813173,5,0.00401739,10,5.44023e-05,-3.08982,0.367038,0.160746,5.09286,0.0669013,
2,1,0,1,0,8948.01,0.0747092,0.0743824,0.851078,5,0.00465542,10,6.33053e-05,-3.07003,0.448991,0.131406,4.36102,0.0743824,
2,1,0,1,0,8948.76,0.0822001,0.0818753,0.884683,5,0.0053214,10,7.24336e-05,-3.05321,0.427595,0.137981,4.78118,0.0818753,
2,1,0,1,0,8949.5,0.0896911,0.0894042,0.932191,5,0.00601607,10,8.33417e-05,-3.0305,0.299247,0.197162,7.17538,0.0894042,
2,1,0,1,0,8950.25,0.097182,0.0968567,0.995835,5,0.00675223,10,9.64533e-05,-3.00181,0.180753,0.326411,12.6841,0.0968567,
2,1,0,1,0,8951,0.104673,0.104377,1.09503,5,0.0075483,10,0.000114296,-2.96057,0.206079,0.286298,12.1797,0.1043771,
2,1,0,1,0,8951.75,0.112164,0.11186,1.17937,5,0.00841474,10,0.000131925,-2.92835,0.296421,0.199041,9.14452,0.11186,
2,1,0,1,0,8952.5,0.119655,0.119326,1.24803,5,0.00933958,10,0.000148922,-2.90378,0.404281,0.145938,7.1142,0.119326,
2,1,0,1,0,8953.25,0.127146,0.126772,1.30574,5,0.0103116,10,0.000165531,-2.88414,0.359467,0.164132,8.37625,0.126772,
2,1,0,1,0,8954,0.134637,0.134366,1.34702,5,0.0113256,10,0.000180995,-2.87062,-3.21799,-0.0183344,-0.962107,0.134366,
2,1,0,1,0,8954.75,0.142127,0.141773,1.26576,5,0.0123296,10,0.000179451,-2.89765,-0.141538,-0.416849,-20.4808,0.141773,
2,1,0,1,0,8955.5,0.149619,0.149309,1.04725,5,0.013215,10,0.000156363,-2.97995,-0.0759929,-0.776389,-31.6636,0.149309,
2,1,0,1,0,8956.25,0.157109,0.156845,0.835261,5,0.0139292,10,0.000131007,-3.07818,-0.0834851,-0.706713,-23.0879,0.156845,
2,1,0,1,0,8957,0.164601,0.164298,0.708293,5,0.0145171,10,0.000116371,-3.14979,-0.134065,-0.440086,-12.1787,0.164298,
2,1,0,1,0,8957.74,0.172091,0.171753,0.636204,5,0.0150334,10,0.00010927,-3.1964,-0.208863,-0.282481,-7.06039,0.1717532,
2,1,0,1,0,8958.49,0.179582,0.179249,0.594811,5,0.0155091,10,0.000106619,-3.22562,-0.335178,-0.176026,-4.11329,0.179249,
2,1,0,1,0,8959.24,0.187074,0.186777,0.574054,5,0.0159608,10,0.00010722,-3.24105,-0.521493,-0.113137,-2.53006,0.186777,
2,1,0,1,0,8959.99,0.194564,0.194294,0.55616,5,0.0163973,10,0.000108059,-3.2548,-0.625768,-0.0942842,-2.04612,0.194294,
2,1,0,1,0,8960.74,0.202056,0.201731,0.544148,5,0.0168229,10,0.000109772,-3.26428,-0.888072,-0.0664361,-1.40741,0.201731,
2,1,0,1,0,8961.49,0.209546,0.20925,0.533985,5,0.0172407,10,0.000111736,-3.27247,-0.740254,-0.0797024,-1.66257,0.20925,
2,1,0,1,0,8962.24,0.217038,0.216729,0.525651,5,0.0176514,10,0.000113924,-3.2793,-1.36638,-0.0431797,-0.887599,0.216729,
2,1,0,1,0,8962.99,0.224528,0.224182,0.518808,5,0.018057,10,0.000116307,-3.28499,-1.08319,-0.0544686,-1.10269,0.224182,
2,1,0,1,0,8963.74,0.232019,0.231717,0.511512,5,0.0184575,10,0.000118526,-3.29114,-1.61532,-0.0365253,-0.731474,0.231717,
2,1,0,1,0,8964.49,0.23951,0.23924,0.507781,5,0.0188538,10,0.000121481,-3.29432,-1.80146,-0.0327512,-0.648957,0.23924,
2,1,0,1,0,8965.24,0.247001,0.246704,0.502566,5,0.0192461,10,0.000123985,-3.29881,-1.56751,-0.0376394,-0.736649,0.246704,
2,1,0,1,0,8965.98,0.254492,0.254206,0.497057,5,0.0196346,10,0.000126355,-3.30359,-3.35971,-0.017561,-0.341022,0.254206,
2,1,0,1,0,8966.73,0.261983,0.261672,0.492622,5,0.0200197,10,0.000128906,-3.30749,-2.05332,-0.0287339,-0.552561,0.261672,
2,1,0,1,0,8967.48,0.269474,0.269198,0.486518,5,0.0204014,10,0.00013097,-3.3129,7.93082,0.00743934,0.141603,0.269198,
2,1,0,1,0,8968.23,0.276965,0.27666,0.483538,5,0.0207797,10,0.000133776,-3.31557,-1.38601,-0.0425683,-0.804351,0.27666,
2,1,0,1,0,8968.98,0.284456,0.284176,0.480711,5,0.0211545,10,0.000136607,-3.31812,-3.82217,-0.0154363,-0.288339,0.284176,
2,1,0,1,0,8969.73,0.291947,0.291655,0.475446,5,0.0215257,10,0.000138667,-3.3229,-1.82245,-0.032374,-0.600641,0.291655,
2,1,0,1,0,8970.48,0.299437,0.299161,0.467367,5,0.0218936,10,0.000139818,-3.33034,-0.00158059,-37.3279,-246.607,0.299161,
2,0,0,1,0,8971.16,0.293745,0.293442,-0.0874331,5,0.021895,10,-2.56566e-05,-4.05832,-0.0182854,-3.22661,10.2165,0.293442,
2,0,0,1,0,8971.91,0.286253,0.285971,-0.136763,5,0.0217947,10,-3.91102e-05,-3.86403,-0.0563802,-1.04647,5.61117,0.285971,
2,0,0,1,0,8972.66,0.278763,0.278448,-0.172564,5,0.0216629,10,-4.80502e-05,-3.76305,-0.101278,-0.582557,3.9108,0.2784481,
2,0,0,1,0,8973.41,0.271272,0.270988,-0.200909,5,0.0215087,10,-5.44439e-05,-3.697,-0.145646,-0.405092,3.13668,0.270988,
2,0,0,1,0,8974.16,0.263781,0.263468,-0.222884,5,0.0213358,10,-5.87228e-05,-3.65192,-0.172482,-0.342065,2.97596,0.263468,
2,0,0,1,0,8974.91,0.25629,0.256007,-0.241527,5,0.0211473,10,-6.18324e-05,-3.61704,-0.292223,-0.2019,1.90345,0.256007,
2,0,0,1,0,8975.66,0.248799,0.248455,-0.26008,5,0.0209451,10,-6.46182e-05,-3.58489,-0.262115,-0.225092,2.28438,0.248455,
2,0,0,1,0,8976.41,0.241308,0.240989,-0.274898,5,0.0207302,10,-6.62474e-05,-3.56083,-0.325911,-0.181031,1.94948,0.240989,
2,0,0,1,0,8977.16,0.233817,0.233526,-0.291252,5,0.0205035,10,-6.80149e-05,-3.53573,-0.264982,-0.222657,2.52468,0.233526,
2,0,0,1,0,8977.91,0.226326,0.226028,-0.305757,5,0.020265,10,-6.91096e-05,-3.51462,-0.591921,-0.0996755,1.19276,0.226028,
2,0,0,1,0,8978.65,0.218835,0.218528,-0.324013,5,0.0200149,10,-7.08059e-05,-3.48944,-0.329569,-0.179022,2.25617,0.218528,
2,0,0,1,0,8979.4,0.211344,0.211024,-0.337453,5,0.0197531,10,-7.12107e-05,-3.47179,-0.425258,-0.138739,1.83089,0.211024,
2,0,0,1,0,8980.15,0.203854,0.203514,-0.355192,5,0.0194786,10,-7.22866e-05,-3.44954,-0.579095,-0.101883,1.41887,0.203514,
2,0,0,1,0,8980.9,0.196362,0.196067,-0.373332,5,0.0191913,10,-7.31983e-05,-3.4279,-0.291253,-0.202573,2.94831,0.196067,
2,0,0,1,0,8981.65,0.188872,0.188569,-0.393946,5,0.0188893,10,-7.42862e-05,-3.40456,-0.241675,-0.244129,3.74989,0.188569,
2,0,0,1,0,8982.4,0.18138,0.181085,-0.420649,5,0.0185702,10,-7.61732e-05,-3.37608,-0.246865,-0.238997,3.92052,0.1810848,
2,0,0,1,0,8983.15,0.17389,0.17359,-0.453441,5,0.0182296,10,-7.87129e-05,-3.34348,-0.182336,-0.323578,5.70372,0.17359,
2,0,0,1,0,8983.9,0.166398,0.166073,-0.498213,5,0.0178599,10,-8.27395e-05,-3.30259,-0.178462,-0.330603,6.46706,0.166073,
2,0,0,1,0,8984.65,0.158907,0.158583,-0.564169,5,0.0174478,10,-8.94674e-05,-3.24859,-0.109079,-0.540895,11.9975,0.158583,
2,0,0,1,0,8985.4,0.151417,0.151083,-0.682244,5,0.0169683,10,-0.000103075,-3.16606,-0.0808578,-0.729676,19.4521,0.151083,
2,0,0,1,0,8986.15,0.143925,0.143662,-0.863787,5,0.0163794,10,-0.000124094,-3.06359,-0.0633601,-0.931186,31.2858,0.143662,
2,0,0,1,0,8986.89,0.136435,0.136102,-1.09828,5,0.0156308,10,-0.000149479,-2.95929,-0.0814198,-0.72464,30.9128,0.136102,
2,0,0,1,0,8987.64,0.128943,0.128636,-1.28533,5,0.0147165,10,-0.00016534,-2.89098,-0.16553,-0.35643,17.8428,0.128636,
2,0,0,1,0,8988.39,0.121453,0.121168,-1.37037,5,0.0136994,10,-0.000166044,-2.86316,-1.09317,-0.0539716,2.87821,0.121168,
2,0,0,1,0,8989.14,0.113962,0.11365,-1.35833,5,0.0126572,10,-0.000154375,-2.86699,0.544895,0.108278,-5.74997,0.11365,
2,0,0,1,0,8989.89,0.106471,0.106147,-1.30799,5,0.0116405,10,-0.000138839,-2.8834,0.407797,0.14468,-7.3995,0.106147,
2,0,0,1,0,8990.64,0.0989799,0.098705,-1.24423,5,0.0106692,10,-0.000122812,-2.9051,0.37863,0.155825,-7.54772,0.098705,
2,0,0,1,0,8991.39,0.0914889,0.0911156,-1.18045,5,0.00974842,10,-0.000107558,-2.92795,0.346274,0.170385,-7.82315,0.0911156,
2,0,0,1,0,8992.14,0.083998,0.0836939,-1.12361,5,0.00887339,10,-9.40389e-05,-2.94939,0.332127,0.177643,-7.78498,0.0836939,
2,0,0,1,0,8992.89,0.076507,0.0761851,-1.07891,5,0.00803535,10,-8.21967e-05,-2.96702,0.391518,0.150695,-6.33158,0.07618513,
2,0,0,1,0,8993.64,0.0690161,0.0687506,-1.03685,5,0.00722781,10,-7.12842e-05,-2.98428,0.513388,0.114923,-4.66936,0.0687506,
2,0,0,1,0,8994.39,0.0615251,0.0612482,-1.00453,5,0.00644685,10,-6.15257e-05,-2.99804,0.540232,0.109212,-4.28263,0.0612482,
2,0,0,1,0,8995.13,0.0540342,0.0537003,-0.969206,5,0.00569338,10,-5.20466e-05,-3.01358,0.491745,0.119981,-4.52777,0.0537003,
2,0,0,1,0,8995.88,0.0465441,0.0462574,-0.927968,5,0.00496774,10,-4.29254e-05,-3.03247,0.45795,0.128835,-4.67934,0.0462574,
2,0,0,1,0,8996.63,0.0390523,0.0387305,-0.892243,5,0.00427148,10,-3.4557e-05,-3.04952,0.353705,0.166805,-5.78602,0.03873051,
2,0,0,1,0,8997.38,0.0315618,0.0312097,-0.853915,5,0.00360458,10,-2.66504e-05,-3.06859,0.419393,0.14068,-4.68774,0.0312097,
2,0,0,1,0,8998.13,0.0240704,0.0237767,-0.814285,5,0.00296486,10,-1.9361e-05,-3.08922,0.399619,0.147641,-4.71577,0.0237767,
2,0,0,1,0,8998.88,0.0165796,0.0162905,-0.793677,5,0.00234783,10,-1.29294e-05,-3.10036,0.892886,0.0660779,-2.04656,0.0162905,
2,0,0,1,0,8999.63,0.00908846,0.00878675,-0.777702,5,0.00174587,10,-6.83347e-06,-3.10919,2.36181,0.0249808,-0.758412,0.00878675,
2,0,0,1,0,9000.38,0.00159728,0.00123106,-0.785972,5,0.00114872,10,-9.67579e-07,-3.10459, , , ,0.00123106,
2,0,0,1,0,9000.52,0.000199195,-0.000121089,-0.774929,5,0.0010369,10,9.38355e-08,-3.11074, , , ,-0.000121089,

File: 20221101_1-115_003_TrumpetPlot_ParaChange_from10_every3_04_CV_C01_5.csv
mode,ox/red,error,control changes,counter inc.,time/s,control/V,Ewe/V,<I>/mA,cycle number,(Q-Qo)/C,I Range,P/W,log(|I|),Tafel slope mV/dec,alpha_eff,dI/d(E-IR),E-IR/V,
2,0,0,1,0,10910.7,2.44065e-05,-0.000382585,-0.37734,6,0.0000000E+000,10,1.44365e-07,-3.42327, , , ,-0.000382585,
2,1,0,1,0,10911.4,0.00729063,0.00696921,0.386266,6,0.000215374,10,2.69197e-06,-3.41311,0.0668398,0.882707,13.1628,0.00696921,
2,1,0,1,0,10912.1,0.0147814,0.0144903,0.459589,6,0.000547582,10,6.65959e-06,-3.33763,0.120415,0.489971,8.7974,0.0144903,
2,1,0,1,0,10912.9,0.0222725,0.0219655,0.517139,6,0.000926854,10,1.13592e-05,-3.28639,0.161089,0.366257,7.38828,0.0219655,
2,1,0,1,0,10913.6,0.0297635,0.0294243,0.569235,6,0.00134677,10,1.67494e-05,-3.24471,0.189775,0.310895,6.90228,0.0294243,
2,1,0,1,0,10914.4,0.0372544,0.0369066,0.621913,6,0.00180671,10,2.29527e-05,-3.20627,0.213892,0.27584,6.71493,0.0369066,
2,1,0,1,0,10915.1,0.0447458,0.0444653,0.678132,6,0.00230724,10,3.01534e-05,-3.16869,0.245882,0.239952,6.33667,0.0444653,
2,1,0,1,0,10915.9,0.0522363,0.0518997,0.726805,6,0.00284597,10,3.7721e-05,-3.13858,0.220407,0.267686,7.57511,0.0518997,
2,1,0,1,0,10916.6,0.0597282,0.0593967,0.774619,6,0.00342089,10,4.60098e-05,-3.11091,0.265745,0.222017,6.69258,0.05939668,
2,1,0,1,0,10917.4,0.0672182,0.0669151,0.816672,6,0.00402903,10,5.46476e-05,-3.08795,0.365988,0.161207,5.11475,0.06691505,
2,1,0,1,0,10918.1,0.0747092,0.0743814,0.852313,6,0.00466604,10,6.33962e-05,-3.0694,0.474205,0.124419,4.13085,0.0743814,
2,1,0,1,0,10918.9,0.0822001,0.0818975,0.882183,6,0.00532981,10,7.22486e-05,-3.05444,0.447142,0.131949,4.557,0.0818975,
2,1,0,1,0,10919.6,0.0896911,0.0893522,0.929131,6,0.00602101,10,8.30199e-05,-3.03192,0.295177,0.19988,7.25647,0.0893522,
2,1,0,1,0,10920.4,0.097182,0.096897,0.992737,6,0.00675291,10,9.61933e-05,-3.00317,0.195669,0.301529,11.6833,0.096897,
2,1,0,1,0,10921.1,0.104673,0.104363,1.08703,6,0.00754391,10,0.000113446,-2.96376,0.190303,0.310032,13.1114,0.104363,
2,1,0,1,0,10921.9,0.112164,0.11184,1.16896,6,0.00840394,10,0.000130737,-2.9322,0.296765,0.19881,9.07038,0.11184,
2,1,0,1,0,10922.6,0.119655,0.11935,1.23665,6,0.00931988,10,0.000147595,-2.90775,0.471893,0.125028,6.03393,0.11935,
2,1,0,1,0,10923.4,0.127146,0.126812,1.29184,6,0.0102811,10,0.000163821,-2.88879,0.378361,0.155936,7.88285,0.126812,
2,1,0,1,0,10924.1,0.134637,0.134306,1.33255,6,0.0112824,10,0.000178969,-2.87532,-3.01863,-0.0195453,-1.01482,0.134306,
2,1,0,1,0,10924.9,0.142127,0.141831,1.24523,6,0.0122715,10,0.000176613,-2.90475,-0.13596,-0.433952,-20.9611,0.141831,
2,1,0,1,0,10925.6,0.149619,0.149336,1.02341,6,0.0131387,10,0.000152831,-2.98995,-0.0740117,-0.797171,-31.8276,0.149336,
2,1,0,1,0,10926.4,0.157109,0.156791,0.817149,6,0.0138347,10,0.000128122,-3.0877,-0.0839478,-0.702818,-22.4311,0.156791,
2,1,0,1,0,10927.1,0.164601,0.164275,0.699648,6,0.0144101,10,0.000114935,-3.15512,-0.136051,-0.433662,-11.8392,0.164275,
2,1,0,1,0,10927.9,0.172091,0.171786,0.633074,6,0.0149199,10,0.000108753,-3.19855,-0.207575,-0.284234,-7.05919,0.171786,
2,1,0,1,0,10928.6,0.179582,0.179304,0.595874,6,0.0153923,10,0.000106843,-3.22485,-0.362018,-0.162975,-3.79628,0.179304,
2,1,0,1,0,10929.4,0.187074,0.186787,0.575565,6,0.0158424,10,0.000107508,-3.23991,-0.570163,-0.103479,-2.3112,0.186787,
2,1,0,1,0,10930.1,0.194564,0.194233,0.557056,6,0.016278,10,0.000108198,-3.2541,-0.644886,-0.091489,-1.98593,0.194233,
2,1,0,1,0,10930.9,0.202056,0.201746,0.54496,6,0.0167026,10,0.000109943,-3.26364,-0.655911,-0.0899512,-1.91096,0.201746,
2,1,0,1,0,10931.6,0.209546,0.209271,0.535319,6,0.0171193,10,0.000112027,-3.27139,-0.790319,-0.0746534,-1.55891,0.209271,
2,1,0,1,0,10932.4,0.217038,0.216705,0.526587,6,0.0175289,10,0.000114114,-3.27853,-1.68803,-0.0349519,-0.718074,0.216705,
2,1,0,1,0,10933.1,0.224528,0.224208,0.51948,6,0.0179334,10,0.000116472,-3.28443,-2.55079,-0.0231301,-0.469491,0.224208,
2,1,0,1,0,10933.9,0.232019,0.231683,0.515638,6,0.0183333,10,0.000119465,-3.28766,-5.77898,-0.0102094,-0.205026,0.231683,
2,1,0,1,0,10934.6,0.23951,0.239207,0.507916,6,0.0187288,10,0.000121497,-3.29421,-2.45712,-0.0240119,-0.475878,0.239207,
2,1,0,1,0,10935.4,0.247001,0.246674,0.50569,6,0.0191201,10,0.000124741,-3.29612,-1.41407,-0.0417234,-0.817821,0.246674,
2,1,0,1,0,10936.1,0.254492,0.254126,0.497675,6,0.019508,10,0.000126472,-3.30305,-2.39215,-0.024664,-0.479489,0.254126,
2,1,0,1,0,10936.9,0.261983,0.261663,0.493791,6,0.0198923,10,0.000129207,-3.30646,-1.23927,-0.0476086,-0.917909,0.261663,
2,1,0,1,0,10937.6,0.269474,0.269136,0.489371,6,0.0202734,10,0.000131707,-3.31036,2.55969,0.0230496,0.440679,0.269136,
2,1,0,1,0,10938.4,0.276965,0.276642,0.484539,6,0.0206519,10,0.000134044,-3.31467,-1.74588,-0.0337939,-0.640979,0.276642,
2,1,0,1,0,10939.1,0.284456,0.284142,0.48107,6,0.0210266,10,0.000136693,-3.31779,26.4031,0.00223459,0.0419474,0.284142,
2,1,0,1,0,10939.9,0.291947,0.291619,0.475275,6,0.0213977,10,0.0001386,-3.32305,-1.21551,-0.0485395,-0.902498,0.291619,
2,1,0,1,0,10940.6,0.299437,0.299137,0.470369,6,0.0217657,10,0.000140705,-3.32756,-0.00173672,-33.972,-242.487,0.299137,
2,0,0,1,0,10941.3,0.293745,0.293396,-0.0887994,6,0.0217694,10,-2.60534e-05,-4.05159,-0.01865,-3.16354,10.1912,0.293396,
2,0,0,1,0,10942,0.286253,0.285949,-0.141598,6,0.0216686,10,-4.04897e-05,-3.84894,-0.0632839,-0.932306,5.16092,0.285949,
2,0,0,1,0,10942.8,0.278763,0.278443,-0.175376,6,0.0215366,10,-4.88323e-05,-3.75603,-0.114346,-0.515977,3.51688,0.2784428,
2,0,0,1,0,10943.5,0.271272,0.270982,-0.203715,6,0.021382,10,-5.52031e-05,-3.69098,-0.134748,-0.437855,3.46534,0.270982,
2,0,0,1,0,10944.3,0.263781,0.263473,-0.224666,6,0.0212087,10,-5.91934e-05,-3.64846,-0.172853,-0.34133,2.99222,0.263473,
2,0,0,1,0,10945,0.25629,0.25598,-0.244766,6,0.0210199,10,-6.26552e-05,-3.61125,-0.238853,-0.247014,2.34375,0.25598,
2,0,0,1,0,10945.8,0.248799,0.248492,-0.261727,6,0.0208174,10,-6.50369e-05,-3.58215,-0.258129,-0.228568,2.34103,0.248492,
2,0,0,1,0,10946.5,0.241308,0.24099,-0.278399,6,0.0206024,10,-6.70914e-05,-3.55533,-0.342202,-0.172413,1.8708,0.24099,
2,0,0,1,0,10947.3,0.233817,0.23343,-0.293007,6,0.0203755,10,-6.83965e-05,-3.53312,-0.355354,-0.166032,1.89855,0.23343,
2,0,0,1,0,10948,0.226326,0.226047,-0.307521,6,0.020137,10,-6.95142e-05,-3.51213,-0.338055,-0.174528,2.10533,0.226047,
2,0,0,1,0,10948.8,0.218835,0.218525,-0.323392,6,0.0198871,10,-7.06691e-05,-3.49027,-0.317227,-0.185986,2.34624,0.218525,
2,0,0,1,0,10949.5,0.211344,0.211034,-0.339205,6,0.0196245,10,-7.15837e-05,-3.46954,-2.50325,-0.0235693,0.315173,0.211034,
2,0,0,1,0,10950.3,0.203854,0.203541,-0.355155,6,0.0193501,10,-7.22885e-05,-3.44958,-0.369609,-0.159628,2.22015,0.203541,
2,0,0,1,0,10951,0.196362,0.196031,-0.37386,6,0.0190634,10,-7.32881e-05,-3.42729,-0.360082,-0.163851,2.38545,0.196031,
2,0,0,1,0,10951.8,0.188872,0.188584,-0.393014,6,0.0187624,10,-7.41164e-05,-3.40559,-0.232364,-0.253912,3.90332,0.188584,
2,0,0,1,0,10952.5,0.18138,0.181089,-0.419939,6,0.018445,10,-7.60464e-05,-3.37681,-0.290834,-0.202865,3.32306,0.181089,
2,0,0,1,0,10953.3,0.17389,0.17357,-0.449541,6,0.0181072,10,-7.80268e-05,-3.34723,-0.203317,-0.290187,5.0795,0.17357,
2,0,0,1,0,10954,0.166398,0.166092,-0.49308,6,0.0177417,10,-8.18965e-05,-3.30708,-0.169449,-0.348187,6.71532,0.1660917,
2,0,0,1,0,10954.8,0.158907,0.158574,-0.553959,6,0.0173362,10,-8.78436e-05,-3.25652,-0.110979,-0.531632,11.5752,0.158574,
2,0,0,1,0,10955.5,0.151417,0.151082,-0.663575,6,0.016868,10,-0.000100254,-3.17811,-0.088068,-0.669937,17.3963,0.151082,
2,0,0,1,0,10956.3,0.143925,0.143607,-0.837619,6,0.0162973,10,-0.000120288,-3.07695,-0.0654259,-0.901783,29.4351,0.1436075,
2,0,0,1,0,10957,0.136435,0.136101,-1.06252,6,0.015573,10,-0.00014461,-2.97366,-0.0811109,-0.727399,30.1203,0.136101,
2,0,0,1,0,10957.8,0.128943,0.128637,-1.26086,6,0.0146834,10,-0.000162193,-2.89933,-0.149177,-0.395503,19.3598,0.128637,
2,0,0,1,0,10958.5,0.121453,0.121151,-1.35297,6,0.0136847,10,-0.000163913,-2.86871,-0.654882,-0.0900925,4.73756,0.121151,
2,0,0,1,0,10959.3,0.113962,0.113637,-1.34858,6,0.0126545,10,-0.000153248,-2.87012,0.696293,0.0847345,-4.46527,0.113637,
2,0,0,1,0,10960,0.106471,0.106151,-1.30013,6,0.0116454,10,-0.00013801,-2.88601,0.383518,0.153839,-7.82856,0.106151,
2,0,0,1,0,10960.8,0.0989799,0.0986827,-1.24098,6,0.0106792,10,-0.000122463,-2.90624,0.37214,0.158543,-7.65647,0.0986827,
2,0,0,1,0,10961.5,0.0914889,0.0911475,-1.17761,6,0.00976134,10,-0.000107336,-2.929,0.369663,0.159605,-7.31538,0.0911475,
2,0,0,1,0,10962.3,0.083998,0.083679,-1.12242,6,0.00888813,10,-9.39229e-05,-2.94984,0.325707,0.181145,-7.91967,0.08367902,
2,0,0,1,0,10963,0.076507,0.0761576,-1.07799,6,0.00805099,10,-8.20972e-05,-2.96738,0.46089,0.128013,-5.38617,0.0761576,
2,0,0,1,0,10963.8,0.0690161,0.0687103,-1.03686,6,0.0072445,10,-7.12426e-05,-2.98428,0.466213,0.126552,-5.14278,0.06871032,
2,0,0,1,0,10964.5,0.0615251,0.0612504,-1.0037,6,0.00646398,10,-6.14769e-05,-2.9984,0.481798,0.122458,-4.81612,0.0612504,
2,0,0,1,0,10965.3,0.0540342,0.0537087,-0.971252,6,0.00571028,10,-5.21648e-05,-3.01267,0.484986,0.121653,-4.60199,0.0537087,
2,0,0,1,0,10966,0.0465441,0.0462562,-0.932351,6,0.00498376,10,-4.3127e-05,-3.03042,0.473106,0.124708,-4.53888,0.04625617,
2,0,0,1,0,10966.8,0.0390523,0.0387422,-0.896613,6,0.00428591,10,-3.47367e-05,-3.04739,0.376235,0.156817,-5.46752,0.0387422,
2,0,0,1,0,10967.5,0.0315618,0.0312254,-0.859901,6,0.00361615,10,-2.68508e-05,-3.06555,0.435183,0.135575,-4.54706,0.0312254,
2,0,0,1,0,10968.3,0.0240704,0.0237894,-0.821685,6,0.00297297,10,-1.95474e-05,-3.08529,0.400039,0.147486,-4.74665,0.0237894,
2,0,0,1,0,10969,0.0165796,0.0162608,-0.79897,6,0.00235252,10,-1.29919e-05,-3.09747,0.801829,0.0735818,-2.29607,0.0162608,
2,0,0,1,0,10969.8,0.00908846,0.00870298,-0.782522,6,0.00174755,10,-6.81027e-06,-3.1065,0.949651,0.0621281,-1.89643,0.00870298,
2,0,0,1,0,10970.5,0.00159728,0.00122578,-0.78887,6,0.00114831,10,-9.66979e-07,-3.10299, , , ,0.00122578,
2,0,0,1,0,10970.6,0.000199195,-0.000191712,-0.778856,6,0.00103615,10,1.49316e-07,-3.10854, , , ,-0.0001917123,