Folder: Figs_alphaMnO2_OER_Tafel_sleope/Figure_codes/Fig_3-5/rawdata_trumpetplot_data/after 10th (part 91)

File: 20221101_1-115_003_TrumpetPlot_ParaChange_from10_every3_07_CV_C01_8.csv
mode,ox/red,error,control changes,counter inc.,time/s,control/V,Ewe/V,<I>/mA,cycle number,(Q-Qo)/C,I Range,P/W,log(|I|),Tafel slope mV/dec,alpha_eff,dI/d(E-IR),E-IR/V,
2,0,0,0,0,16926.1,2.44065e-05,-0.000382585,-2.73002,9,0.0000000E+000,10,1.04447e-06,-2.56383, , , ,-0.000382585,
2,1,0,1,0,16926.2,0.007288,0.0069379,1.68377,9,4.64425e-05,10,1.16818e-05,-2.77372,0.0211418,2.79067,172.023,0.0069379,
2,1,0,1,0,16926.3,0.0147816,0.014471,2.35033,9,0.000308449,10,3.40115e-05,-2.62887,0.0926508,0.636799,58.2423,0.014471,
2,1,0,1,0,16926.4,0.0222712,0.0219676,2.68045,9,0.000626277,10,5.88832e-05,-2.57179,0.155145,0.380289,39.8237,0.0219676,
2,1,0,1,0,16926.6,0.0297648,0.0294639,2.96256,9,0.000981205,10,8.72887e-05,-2.52833,0.199067,0.296382,34.1868,0.0294639,
2,1,0,1,0,16926.7,0.0372518,0.0369246,3.23827,9,0.00136971,10,0.000119572,-2.48969,0.217424,0.271359,34.1964,0.0369246,
2,1,0,1,0,16926.8,0.0447467,0.0444584,3.49206,9,0.00179198,10,0.000155251,-2.45692,0.218508,0.270013,36.8391,0.0444584,
2,1,0,1,0,16926.9,0.052235,0.0519247,3.74512,9,0.00224641,10,0.000194464,-2.42653,0.246554,0.239298,35.0305,0.0519247,
2,1,0,1,0,16927.1,0.0597299,0.0593954,3.99465,9,0.00273235,10,0.000237264,-2.39852,0.309159,0.19084,29.7076,0.0593954,
2,1,0,1,0,16927.2,0.0672156,0.0669042,4.2203,9,0.00324665,10,0.000282356,-2.37466,0.331167,0.178158,29.2784,0.0669042,
2,1,0,1,0,16927.3,0.0747105,0.074401,4.41748,9,0.00378786,10,0.000328665,-2.35483,0.375452,0.157144,27.0361,0.074401,
2,1,0,1,0,16927.4,0.0821988,0.0818987,4.57934,9,0.00435156,10,0.000375042,-2.3392,0.463546,0.12728,22.7757,0.0818987,
2,1,0,1,0,16927.6,0.0896937,0.0894006,4.75442,9,0.00493696,10,0.000425048,-2.3229,0.498214,0.118423,22.0137,0.0894006,
2,1,0,1,0,16927.7,0.0971794,0.0968758,4.99766,9,0.00554677,10,0.000484152,-2.30123,0.287939,0.204905,39.9865,0.0968758,
2,1,0,1,0,16927.8,0.104674,0.10439,5.36457,9,0.00619428,10,0.000560006,-2.27047,0.211346,0.279164,58.3742,0.10439,
2,1,0,1,0,16927.9,0.112163,0.111896,5.80579,9,0.00689311,10,0.000649647,-2.23614,0.212558,0.277572,62.9169,0.111896,
2,1,0,1,0,16928.1,0.119657,0.119366,6.21955,9,0.00764773,10,0.000742401,-2.20624,0.330678,0.178421,43.2931,0.119366,
2,1,0,1,0,16928.2,0.127143,0.126818,6.49889,9,0.00844503,10,0.000824173,-2.18716,0.534243,0.110437,28.0138,0.126818,
2,1,0,1,0,16928.3,0.134638,0.134308,6.71359,9,0.00927307,10,0.000901691,-2.17305,0.652859,0.0903717,23.6849,0.134308,
2,1,0,1,0,16928.4,0.142126,0.141866,6.79536,9,0.010121,10,0.000964033,-2.16779,-1.5992,-0.0368934,-9.75785,0.141866,
2,1,0,1,0,16928.6,0.149621,0.14932,6.37664,9,0.0109534,10,0.000952161,-2.19541,-0.141774,-0.416155,-103.131,0.14932,
2,1,0,1,0,16928.7,0.157107,0.156812,5.31195,9,0.0116893,10,0.000832975,-2.27475,-0.0743132,-0.793937,-164.212,0.156812,
2,1,0,1,0,16928.8,0.164602,0.164343,4.22157,9,0.0122823,10,0.000693786,-2.37453,-0.0818806,-0.720561,-118.888,0.164343,
2,1,0,1,0,16928.9,0.17209,0.171785,3.54441,9,0.0127652,10,0.000608877,-2.45046,-0.127677,-0.462105,-64.3063,0.171785,
2,1,0,1,0,16929.1,0.179585,0.179294,3.16703,9,0.0131853,10,0.000567829,-2.49935,-0.197508,-0.298723,-37.1216,0.179294,
2,1,0,1,0,16929.2,0.187072,0.186736,2.94839,9,0.0135684,10,0.000550569,-2.53042,-0.28422,-0.207586,-23.9141,0.186736,
2,1,0,1,0,16929.3,0.194566,0.19423,2.81374,9,0.0139292,10,0.000546514,-2.55072,-0.438771,-0.134466,-14.7307,0.19423,
2,1,0,1,0,16929.4,0.202055,0.201725,2.70728,9,0.0142749,10,0.000546125,-2.56747,-0.695151,-0.0848736,-8.95683,0.201725,
2,1,0,1,0,16929.6,0.209549,0.209247,2.64028,9,0.0146108,10,0.00055247,-2.57835,-0.636437,-0.0927037,-9.56496,0.209247,
2,1,0,1,0,16929.7,0.217036,0.216718,2.58239,9,0.0149389,10,0.000559651,-2.58798,-0.802026,-0.0735637,-7.44101,0.216718,
2,1,0,1,0,16929.8,0.224529,0.224219,2.55357,9,0.0152618,10,0.000572559,-2.59285,-0.818981,-0.0720408,-7.17568,0.2242189,
2,1,0,1,0,16929.9,0.232019,0.231746,2.5258,9,0.01558,10,0.000585344,-2.5976,-4.54471,-0.0129821,-1.27541,0.231746,
2,1,0,1,0,16930.1,0.239513,0.239169,2.4868,9,0.015895,10,0.000594764,-2.60436,-2.00544,-0.0294199,-2.86122,0.239169,
2,1,0,1,0,16930.2,0.247001,0.246714,2.47135,9,0.0162065,10,0.000609716,-2.60707,-0.840827,-0.070169,-6.7589,0.246714,
2,1,0,1,0,16930.3,0.254493,0.254169,2.44376,9,0.0165154,10,0.00062113,-2.61194,-1.44693,-0.0407761,-3.89455,0.254169,
2,1,0,1,0,16930.4,0.261983,0.261683,2.42278,9,0.0168213,10,0.000633999,-2.61569,-1.87695,-0.031434,-2.97078,0.261683,
2,1,0,1,0,16930.6,0.269477,0.269191,2.40091,9,0.0171248,10,0.000646303,-2.61962,-17.9515,-0.00328662,-0.30851,0.269191,
2,1,0,1,0,16930.7,0.276965,0.276672,2.37266,9,0.0174254,10,0.000656448,-2.62477,-2.3648,-0.0249493,-2.31813,0.2766723,
2,1,0,1,0,16930.8,0.284457,0.284147,2.35993,9,0.0177234,10,0.000670568,-2.6271,-1.43201,-0.0412009,-3.79109,0.284147,
2,1,0,1,0,16930.9,0.291947,0.291606,2.33938,9,0.0180183,10,0.000682176,-2.6309,-1.20335,-0.0490298,-4.461,0.291606,
2,1,0,1,0,16931.1,0.29944,0.299154,2.30325,9,0.0183106,10,0.000689026,-2.63766,-0.00523991,-11.2597,-699.722,0.299154,
2,0,0,1,0,16931.2,0.293742,0.293408,-0.674614,9,0.0183326,10,-0.000197937,-3.17094,-0.0170367,-3.4631,83.8686,0.293408,
2,0,0,1,0,16931.3,0.286254,0.285947,-0.989429,9,0.0182227,10,-0.000282924,-3.00462,-0.0841563,-0.701076,27.0977,0.285947,
2,0,0,1,0,16931.4,0.278761,0.278446,-1.16425,9,0.0180849,10,-0.000324182,-2.93395,-0.149487,-0.394684,17.9117,0.278446,
2,0,0,1,0,16931.5,0.271272,0.270941,-1.29226,9,0.0179293,10,-0.000350125,-2.88865,-0.163949,-0.359867,18.0814,0.270941,
2,0,0,1,0,16931.7,0.263778,0.263421,-1.3842,9,0.0177596,10,-0.000364627,-2.8588,-0.245948,-0.239888,13.0024,0.263421,
2,0,0,1,0,16931.8,0.25629,0.255988,-1.47731,9,0.0175783,10,-0.000378173,-2.83053,-0.510669,-0.115535,6.65576,0.255988,
2,0,0,1,0,16931.9,0.248797,0.248458,-1.55436,9,0.0173868,10,-0.000386195,-2.80845,-0.422413,-0.139674,8.47133,0.248458,
2,0,0,1,0,16932,0.241308,0.241012,-1.62397,9,0.0171862,10,-0.000391396,-2.78942,-0.355427,-0.165998,10.5076,0.241012,
2,0,0,1,0,16932.2,0.233814,0.233493,-1.69302,9,0.0169768,10,-0.000395307,-2.77134,-0.323431,-0.182419,12.0516,0.233493,
2,0,0,1,0,16932.3,0.226326,0.225995,-1.7556,9,0.0167594,10,-0.000396757,-2.75557,-0.562159,-0.104953,7.2001,0.225995,
2,0,0,1,0,16932.4,0.218834,0.218546,-1.82401,9,0.0165338,10,-0.00039863,-2.73897,-0.46056,-0.128105,9.09792,0.218546,
2,0,0,1,0,16932.5,0.211344,0.211009,-1.89112,9,0.0163003,10,-0.000399044,-2.72328,-0.504327,-0.116988,8.57475,0.211009,
2,0,0,1,0,16932.7,0.203856,0.203524,-1.95428,9,0.0160587,10,-0.000397743,-2.70901,-0.428544,-0.137675,10.499,0.203524,
2,0,0,1,0,16932.8,0.196362,0.196043,-2.01493,9,0.0158085,10,-0.000395014,-2.69574,-0.558736,-0.105595,8.3391,0.196043,
2,0,0,1,0,16932.9,0.18887,0.188521,-2.10074,9,0.0155489,10,-0.000396035,-2.67763,-0.40123,-0.147048,12.0642,0.188521,
2,0,0,1,0,16933,0.18138,0.18105,-2.20206,9,0.0152786,10,-0.000398683,-2.65717,-0.35684,-0.16534,14.1677,0.18105,
2,0,0,1,0,16933.2,0.173892,0.173538,-2.31901,9,0.0149953,10,-0.000402436,-2.6347,-0.254356,-0.231958,20.9534,0.173538,
2,0,0,1,0,16933.3,0.166398,0.166083,-2.46643,9,0.0146946,10,-0.000409633,-2.60793,-0.263722,-0.223721,21.6654,0.166083,
2,0,0,1,0,16933.4,0.158905,0.158586,-2.69536,9,0.0143704,10,-0.000427446,-2.56938,-0.176364,-0.334535,35.2844,0.158586,
2,0,0,1,0,16933.5,0.151417,0.151076,-3.06044,9,0.0140105,10,-0.000462358,-2.51422,-0.120498,-0.489634,58.5266,0.151076,
2,0,0,1,0,16933.7,0.143927,0.14361,-3.63716,9,0.0135933,10,-0.000522332,-2.43924,-0.084458,-0.698572,99.2249,0.14361,
2,0,0,1,0,16933.8,0.136435,0.136101,-4.47754,9,0.0130862,10,-0.000609397,-2.34896,-0.0808298,-0.729929,127.668,0.136101,
2,0,0,1,0,16933.9,0.128941,0.128617,-5.42798,9,0.0124646,10,-0.000698133,-2.26536,-0.104218,-0.566118,119.658,0.1286175,
2,0,0,1,0,16934,0.121453,0.12119,-6.22478,9,0.0117326,10,-0.000754379,-2.20588,-0.167699,-0.35182,85.1906,0.12119,
2,0,0,1,0,16934.2,0.113963,0.11366,-6.72408,9,0.0109192,10,-0.000764259,-2.17237,-0.319801,-0.18449,48.3411,0.11366,
2,0,0,1,0,16934.3,0.106471,0.106195,-6.92904,9,0.0100606,10,-0.000735831,-2.15933,-1.84343,-0.0320056,8.65815,0.1061952,
2,0,0,1,0,16934.4,0.0989825,0.098661,-6.85293,9,0.00919479,10,-0.000676117,-2.16412,0.562125,0.104959,-28.0498,0.098661,
2,0,0,1,0,16934.5,0.0914889,0.0911308,-6.55135,9,0.00835408,10,-0.00059703,-2.18367,0.307637,0.191784,-48.9474,0.0911308,
2,0,0,1,0,16934.7,0.0839993,0.0837112,-6.1748,9,0.00755881,10,-0.0005169,-2.20938,0.304847,0.19354,-46.5771,0.0837112,
2,0,0,1,0,16934.8,0.076507,0.076155,-5.88423,9,0.00680522,10,-0.000448114,-2.23031,0.447358,0.131885,-30.3035,0.076155,
2,0,0,1,0,16934.9,0.0690187,0.0687462,-5.68591,9,0.00608138,10,-0.000390884,-2.2452,0.548585,0.107549,-23.9154,0.0687462,
2,0,0,1,0,16935,0.0615251,0.0612315,-5.54022,9,0.00537765,10,-0.000339236,-2.25647,0.55007,0.107259,-23.1954,0.0612315,
2,0,0,1,0,16935.2,0.0540355,0.053746,-5.38989,9,0.00469369,10,-0.000289685,-2.26842,0.664294,0.0888161,-18.6512,0.053746,
2,0,0,1,0,16935.3,0.0465432,0.0462269,-5.22234,9,0.00402866,10,-0.000241413,-2.28213,0.623876,0.0945701,-19.2783,0.0462269,
2,0,0,1,0,16935.4,0.0390549,0.0386982,-5.04006,9,0.00338548,10,-0.000195041,-2.29756,0.409028,0.144244,-28.3762,0.0386982,
2,0,0,1,0,16935.5,0.0315613,0.0312564,-4.84012,9,0.00276602,10,-0.000151285,-2.31514,0.351083,0.168052,-31.7211,0.0312564,
2,0,0,1,0,16935.7,0.0240717,0.0237804,-4.61725,9,0.00217379,10,-0.0001098,-2.33562,0.366907,0.160803,-28.9896,0.0237804,
2,0,0,1,0,16935.8,0.0165781,0.0162314,-4.41139,9,0.00160819,10,-7.16032e-05,-2.35542,0.483556,0.122013,-21.0256,0.0162314,
2,0,0,1,0,16935.9,0.00909108,0.0087743,-4.24171,9,0.00106575,10,-3.72181e-05,-2.37246,0.529105,0.111509,-18.5199,0.0087743,
2,0,0,1,0,16936,0.00159616,0.00125196,-4.17963,9,0.000539364,10,-5.23273e-06,-2.37886, , , ,0.00125196,
2,0,0,1,0,16936.1,0.000199195,-0.000218435,-4.14901,9,0.000441865,10,9.06287e-07,-2.38206, , , ,-0.000218435,

File: 20221101_1-115_003_TrumpetPlot_ParaChange_from10_every3_07_CV_C01_9.csv
mode,ox/red,error,control changes,counter inc.,time/s,control/V,Ewe/V,<I>/mA,cycle number,(Q-Qo)/C,I Range,P/W,log(|I|),Tafel slope mV/dec,alpha_eff,dI/d(E-IR),E-IR/V,
2,0,0,0,0,18896.2,2.44065e-05,-0.000287149,-2.75674,10,0.0000000E+000,10,7.91593e-07,-2.5596, , , ,-0.0002871489,
2,1,0,1,0,18896.3,0.007288,0.00695975,1.38773,10,1.2358e-05,10,9.65824e-06,-2.8577,0.0161478,3.65374,184.025,0.00695975,
2,1,0,1,0,18896.4,0.0147816,0.0144439,2.16747,10,0.000245347,10,3.13067e-05,-2.66405,0.0786387,0.750266,63.1833,0.0144439,
2,1,0,1,0,18896.6,0.0222712,0.0219689,2.55351,10,0.000543389,10,5.60979e-05,-2.59286,0.143326,0.411648,40.8176,0.0219689,
2,1,0,1,0,18896.7,0.0297648,0.0294265,2.84884,10,0.000882233,10,8.38315e-05,-2.54533,0.168943,0.349231,38.6776,0.0294265,
2,1,0,1,0,18896.8,0.0372518,0.0369263,3.11404,10,0.00125626,10,0.00011499,-2.50668,0.195116,0.302384,36.8153,0.0369263,
2,1,0,1,0,18896.9,0.0447467,0.0444301,3.38607,10,0.00166456,10,0.000150443,-2.4703,0.226894,0.260033,34.3573,0.0444301,
2,1,0,1,0,18897.1,0.052235,0.0519022,3.64102,10,0.00210529,10,0.000188977,-2.43878,0.246601,0.239253,34.0133,0.05190222,
2,1,0,1,0,18897.2,0.0597299,0.0594401,3.88701,10,0.0025775,10,0.000231044,-2.41038,0.27282,0.21626,32.7373,0.0594401,
2,1,0,1,0,18897.3,0.0672156,0.0668824,4.10307,10,0.00307817,10,0.000274423,-2.38689,0.315266,0.187144,29.9664,0.0668824,
2,1,0,1,0,18897.4,0.0747105,0.0743909,4.30584,10,0.00360599,10,0.000320315,-2.36594,0.454538,0.129802,21.8119,0.07439094,
2,1,0,1,0,18897.6,0.0821988,0.0818868,4.48418,10,0.00415664,10,0.000367195,-2.34832,0.569249,0.103645,18.1111,0.0818868,
2,1,0,1,0,18897.7,0.0896937,0.0893484,4.65673,10,0.00472846,10,0.000416071,-2.33192,0.418948,0.140829,25.5647,0.0893484,
2,1,0,1,0,18897.8,0.0971794,0.0968517,4.85818,10,0.0053237,10,0.000470523,-2.31353,0.291791,0.2022,38.4567,0.0968517,
2,1,0,1,0,18897.9,0.104674,0.104408,5.20014,10,0.00595302,10,0.000542938,-2.28399,0.224562,0.262734,53.3588,0.104408,
2,1,0,1,0,18898.1,0.112163,0.111839,5.61527,10,0.0066295,10,0.000628005,-2.25063,0.2353,0.250743,54.8945,0.111839,
2,1,0,1,0,18898.2,0.119657,0.11929,6.02005,10,0.00735874,10,0.000718131,-2.2204,0.310953,0.189739,44.4865,0.11929,
2,1,0,1,0,18898.3,0.127143,0.126842,6.29656,10,0.00813025,10,0.000798668,-2.2009,0.43207,0.136552,33.5649,0.126842,
2,1,0,1,0,18898.4,0.134638,0.134317,6.50883,10,0.00893301,10,0.000874247,-2.1865,0.624789,0.0944319,24.0085,0.134317,
2,1,0,1,0,18898.6,0.142126,0.141823,6.62494,10,0.00975686,10,0.000939565,-2.17882,-5.20807,-0.0113286,-2.92273,0.141823,
2,1,0,1,0,18898.7,0.149621,0.149301,6.33771,10,0.0105744,10,0.000946226,-2.19807,-0.181595,-0.324899,-79.9411,0.1493009,
2,1,0,1,0,18898.8,0.157107,0.156808,5.42936,10,0.0113153,10,0.000851369,-2.26525,-0.087114,-0.677273,-143.302,0.156808,
2,1,0,1,0,18898.9,0.164602,0.164249,4.39749,10,0.0119291,10,0.000722284,-2.3568,-0.0850677,-0.693565,-119.496,0.164249,
2,1,0,1,0,18899.1,0.17209,0.17175,3.70885,10,0.0124338,10,0.000636995,-2.43076,-0.115549,-0.510605,-74.1399,0.17175,
2,1,0,1,0,18899.2,0.179585,0.179262,3.29659,10,0.0128713,10,0.000590955,-2.48194,-0.182259,-0.323715,-41.7231,0.179262,
2,1,0,1,0,18899.3,0.187072,0.186757,3.03739,10,0.0132673,10,0.000567254,-2.5175,-0.274143,-0.215216,-25.5389,0.1867575,
2,1,0,1,0,18899.4,0.194566,0.19425,2.87442,10,0.0136376,10,0.000558355,-2.54145,-0.35926,-0.164226,-18.4312,0.19425,
2,1,0,1,0,18899.6,0.202055,0.201745,2.76355,10,0.0139906,10,0.000557532,-2.55853,-0.445448,-0.132451,-14.2543,0.2017446,
2,1,0,1,0,18899.7,0.209549,0.209289,2.68804,10,0.0143323,10,0.000562578,-2.57056,-0.597149,-0.0988028,-10.34,0.209289,
2,1,0,1,0,18899.8,0.217036,0.216747,2.61914,10,0.014665,10,0.00056769,-2.58184,-1.31519,-0.0448606,-4.59385,0.2167467,
2,1,0,1,0,18899.9,0.224529,0.224259,2.57335,10,0.0149917,10,0.000577098,-2.5895,-1.01925,-0.0578856,-5.83479,0.224259,
2,1,0,1,0,18900.1,0.232019,0.231691,2.54317,10,0.0153131,10,0.000589231,-2.59462,-1.41898,-0.0415793,-4.12398,0.231691,
2,1,0,1,0,18900.2,0.239513,0.23923,2.51276,10,0.0156306,10,0.000601127,-2.59985,-1.64751,-0.0358116,-3.50699,0.23923,
2,1,0,1,0,18900.3,0.247001,0.24673,2.48862,10,0.0159444,10,0.000614018,-2.60404,-2.04535,-0.028846,-2.79628,0.24673,
2,1,0,1,0,18900.4,0.254493,0.254177,2.45712,10,0.0162552,10,0.000624544,-2.60957,-1.28741,-0.0458284,-4.41254,0.254177,
2,1,0,1,0,18900.6,0.261983,0.261691,2.43815,10,0.0165628,10,0.000638042,-2.61294,-1.07782,-0.05474,-5.214,0.261691,
2,1,0,1,0,18900.7,0.269477,0.269145,2.41701,10,0.0168677,10,0.000650527,-2.61672,-3.10251,-0.0190168,-1.79169,0.269145,
2,1,0,1,0,18900.8,0.276965,0.276691,2.39357,10,0.0171697,10,0.000662281,-2.62095,-3.03955,-0.0194107,-1.81398,0.276691,
2,1,0,1,0,18900.9,0.284457,0.284144,2.36834,10,0.0174688,10,0.00067295,-2.62556,-2.28068,-0.0258695,-2.39339,0.284144,
2,1,0,1,0,18901.1,0.291947,0.291669,2.3458,10,0.0177649,10,0.000684197,-2.62971,-0.997476,-0.0591493,-5.41614,0.291669,
2,1,0,1,0,18901.2,0.29944,0.299134,2.3206,10,0.0180582,10,0.000694171,-2.6344,-0.00613876,-9.61106,-639.859,0.299134,
2,0,0,1,0,18901.3,0.293742,0.293433,-0.55032,10,0.0180976,10,-0.000161482,-3.25938,-0.010952,-5.38713,98.9731,0.293433,
2,0,0,1,0,18901.4,0.286254,0.285948,-0.920934,10,0.0179993,10,-0.000263339,-3.03577,-0.0666538,-0.88517,31.8233,0.285948,
2,0,0,1,0,18901.5,0.278761,0.278465,-1.11046,10,0.0178688,10,-0.000309224,-2.9545,-0.136816,-0.431235,18.7761,0.278465,
2,0,0,1,0,18901.7,0.271272,0.270955,-1.25437,10,0.0177187,10,-0.000339879,-2.90157,-0.179576,-0.328551,15.9945,0.270955,
2,0,0,1,0,18901.8,0.263778,0.263479,-1.35878,10,0.0175535,10,-0.00035801,-2.86685,-0.229285,-0.257321,13.6003,0.263479,
2,0,0,1,0,18901.9,0.25629,0.255946,-1.44902,10,0.0173761,10,-0.00037087,-2.83893,-0.289978,-0.203464,11.4915,0.255946,
2,0,0,1,0,18902,0.248797,0.248475,-1.52457,10,0.017188,10,-0.000378817,-2.81685,-0.481546,-0.122522,7.31323,0.248475,
2,0,0,1,0,18902.2,0.241308,0.241047,-1.60228,10,0.0169904,10,-0.000386225,-2.79526,-0.666832,-0.0884781,5.53191,0.241047,
2,0,0,1,0,18902.3,0.233814,0.233504,-1.66934,10,0.016784,10,-0.000389797,-2.77745,-0.352126,-0.167553,10.922,0.233504,
2,0,0,1,0,18902.4,0.226326,0.226038,-1.73409,10,0.0165693,10,-0.00039197,-2.76093,-0.399775,-0.147583,10.0055,0.226038,
2,0,0,1,0,18902.5,0.218834,0.218547,-1.79509,10,0.0163464,10,-0.000392312,-2.74591,-0.427687,-0.137951,9.70676,0.218547,
2,0,0,1,0,18902.7,0.211344,0.211039,-1.86254,10,0.0161157,10,-0.00039307,-2.72989,-0.888919,-0.0663728,4.82341,0.211039,
2,0,0,1,0,18902.8,0.203856,0.203528,-1.93632,10,0.0158767,10,-0.000394097,-2.71302,-0.585983,-0.100686,7.58739,0.203528,
2,0,0,1,0,18902.9,0.196362,0.196029,-2.00079,10,0.0156295,10,-0.000392212,-2.6988,-0.379091,-0.155635,12.1373,0.196029,
2,0,0,1,0,18903,0.18887,0.188548,-2.07437,10,0.0153729,10,-0.000391119,-2.68311,-0.431484,-0.136737,11.0883,0.188548,
2,0,0,1,0,18903.2,0.18138,0.181066,-2.16742,10,0.0151063,10,-0.000392446,-2.66406,-0.392132,-0.150459,12.7214,0.181066,
2,0,0,1,0,18903.3,0.173892,0.173581,-2.28491,10,0.0148271,10,-0.000396617,-2.64113,-0.293122,-0.201281,17.8701,0.173581,
2,0,0,1,0,18903.4,0.166398,0.166081,-2.42309,10,0.014532,10,-0.000402429,-2.61563,-0.250258,-0.235756,22.3101,0.166081,
2,0,0,1,0,18903.5,0.158905,0.158613,-2.6218,10,0.0142153,10,-0.000415851,-2.5814,-0.180706,-0.326497,33.5794,0.158613,
2,0,0,1,0,18903.7,0.151417,0.151075,-2.9446,10,0.0138667,10,-0.000444856,-2.53097,-0.132602,-0.444939,51.3049,0.151075,
2,0,0,1,0,18903.8,0.143927,0.143594,-3.46374,10,0.0134671,10,-0.000497373,-2.46045,-0.0914265,-0.645327,87.2596,0.143594,
2,0,0,1,0,18903.9,0.136435,0.136121,-4.22457,10,0.0129871,10,-0.000575051,-2.37422,-0.0835326,-0.706311,116.369,0.1361206,
2,0,0,1,0,18904,0.128941,0.128607,-5.10365,10,0.0124025,10,-0.000656367,-2.29212,-0.101021,-0.584039,116.176,0.128607,
2,0,0,1,0,18904.2,0.121453,0.121163,-5.87744,10,0.0117127,10,-0.000712126,-2.23081,-0.161352,-0.365661,83.7465,0.121163,
2,0,0,1,0,18904.3,0.113963,0.11368,-6.41534,10,0.0109408,10,-0.000729295,-2.19278,-0.281483,-0.209604,52.4032,0.11368,
2,0,0,1,0,18904.4,0.106471,0.106155,-6.69278,10,0.0101174,10,-0.000710469,-2.17439,-0.727472,-0.0811028,21.1573,0.106155,
2,0,0,1,0,18904.5,0.0989825,0.0986414,-6.69681,10,0.00927655,10,-0.000660582,-2.17413,1.10348,0.0534671,-13.9655,0.0986414,
2,0,0,1,0,18904.7,0.0914889,0.0911963,-6.48538,10,0.00844915,10,-0.000591442,-2.18806,0.367658,0.160475,-40.5745,0.0911963,
2,0,0,1,0,18904.8,0.0839993,0.0837019,-6.16943,10,0.00765755,10,-0.000516393,-2.20976,0.314066,0.187858,-45.1904,0.0837019,
2,0,0,1,0,18904.9,0.076507,0.0761616,-5.90562,10,0.0069028,10,-0.000449781,-2.22873,0.471122,0.125233,-28.8416,0.0761616,
2,0,0,1,0,18905,0.0690187,0.0686733,-5.70771,10,0.00617662,10,-0.000391967,-2.24354,0.620393,0.095101,-21.2257,0.0686733,
2,0,0,1,0,18905.2,0.0615251,0.0612127,-5.55963,10,0.00547017,10,-0.00034032,-2.25495,0.648024,0.091046,-19.7819,0.0612127,
2,0,0,1,0,18905.3,0.0540355,0.0536946,-5.41798,10,0.00478274,10,-0.000290917,-2.26616,0.598967,0.098503,-20.8132,0.0536946,
2,0,0,1,0,18905.4,0.0465432,0.0461905,-5.26618,10,0.00411356,10,-0.000243247,-2.2785,0.615968,0.0957841,-19.6574,0.0461905,
2,0,0,1,0,18905.5,0.0390549,0.038758,-5.08917,10,0.00346522,10,-0.000197246,-2.29335,0.474533,0.124333,-24.7132,0.038758,
2,0,0,1,0,18905.7,0.0315613,0.0311966,-4.88663,10,0.00283927,10,-0.000152446,-2.31099,0.388495,0.151868,-29.0073,0.0311966,
2,0,0,1,0,18905.8,0.0240717,0.0237577,-4.67902,10,0.00223961,10,-0.000111163,-2.32984,0.352182,0.167527,-30.6064,0.0237577,
2,0,0,1,0,18905.9,0.0165781,0.0162395,-4.4742,10,0.0016661,10,-7.26586e-05,-2.34928,0.443963,0.132894,-23.221,0.0162395,
2,0,0,1,0,18906,0.00909108,0.00880042,-4.30213,10,0.00111659,10,-3.78606e-05,-2.36632,0.5893,0.100119,-16.8402,0.00880042,
2,0,0,1,0,18906.2,0.00159616,0.00125557,-4.2159,10,0.000584172,10,-5.29336e-06,-2.37511, , , ,0.00125557,
2,0,0,1,0,18906.2,0.000199195,-0.000157355,-4.19175,10,0.000485803,10,6.59593e-07,-2.3776, , , ,-0.000157355,