Folder: Figs_alphaMnO2_OER_Tafel_sleope/Figure_codes/Fig_3-5/rawdata_trumpetplot_data/after 10th (part 2)

File: 20221101_1-115_003_TrumpetPlot_ParaChange_from10_every3_02_CV_C01_2.csv
mode,ox/red,error,control changes,counter inc.,time/s,control/V,Ewe/V,<I>/mA,cycle number,(Q-Qo)/C,I Range,P/W,log(|I|),Tafel slope mV/dec,alpha_eff,dI/d(E-IR),E-IR/V,
2,0,0,1,0,4280.29,2.44065e-05,-0.000382585,-0.349355,3,0.0000000E+000,10,1.33658e-07,-3.45673, , , ,-0.000382585,
2,0,0,1,0,4287.56,0.00729061,0.00693732,-0.0944519,3,-0.000883365,10,-6.55243e-07,-4.02479,-0.0313963,-1.8792,7.01799,0.00693732,
2,0,0,1,0,4295.05,0.0147815,0.0144556,-0.0600225,3,-0.00133058,10,-8.67663e-07,-4.22169,-0.0406946,-1.44983,3.43044,0.0144556,
2,0,0,1,0,4302.54,0.0222725,0.0219591,-0.0407006,3,-0.00158988,10,-8.9375e-07,-4.3904,-0.0409264,-1.44161,2.29549,0.0219591,
2,0,0,1,0,4310.03,0.0297635,0.0294679,-0.0251456,3,-0.00172056,10,-7.40987e-07,-4.59954,-0.0365933,-1.61232,1.60433,0.0294679,
2,0,0,1,0,4317.52,0.0372544,0.0369882,-0.0134665,3,-0.00174802,10,-4.98103e-07,-4.87074,-0.0200048,-2.94929,1.48028,0.0369882,
2,0,0,1,0,4325.01,0.0447454,0.044444,-0.000654921,3,-0.00168096,10,-2.91073e-08,-6.18381,-0.00986767,-5.97912,1.56256,0.044444,
2,0,0,1,0,4332.5,0.0522363,0.0519421,0.00985711,3,-0.00152461,10,5.11999e-07,-5.00625,0.0151719,3.88877,1.47156,0.0519421,
2,1,0,1,0,4339.99,0.0597273,0.0594456,0.0207428,3,-0.00128648,10,1.23307e-06,-4.68313,0.0368775,1.59989,1.25148,0.0594456,
2,1,0,1,0,4347.48,0.0672183,0.0668738,0.0298389,3,-0.000973909,10,1.99544e-06,-4.52522,0.0638098,0.924623,1.07782,0.0668738,
2,1,0,1,0,4354.98,0.0747092,0.0743867,0.0386935,3,-0.000594204,10,2.87828e-06,-4.41236,0.0689139,0.856141,1.29703,0.0743867,
2,1,0,1,0,4362.47,0.0822001,0.0819134,0.0459035,3,-0.000153123,10,3.76011e-06,-4.33815,0.11154,0.528958,0.961153,0.0819134,
2,1,0,1,0,4369.96,0.0896911,0.0893712,0.0562941,3,0.000351747,10,5.03107e-06,-4.24954,0.0889806,0.663066,1.46108,0.0893712,
2,1,0,1,0,4377.45,0.0971821,0.0968621,0.0670035,3,0.000931544,10,6.4901e-06,-4.1739,0.0786475,0.750183,1.95131,0.0968621,
2,1,0,1,0,4384.94,0.104673,0.1044,0.0811147,3,0.0016023,10,8.46841e-06,-4.0909,0.104044,0.567065,1.75474,0.1044,
2,1,0,1,0,4392.43,0.112164,0.111821,0.0925145,3,0.00237117,10,1.03451e-05,-4.03379,0.158018,0.373374,1.33615,0.111821,
2,1,0,1,0,4399.92,0.119655,0.119355,0.103312,3,0.00323211,10,1.23308e-05,-3.98585,0.16397,0.359822,1.46512,0.119355,
2,1,0,1,0,4407.41,0.127146,0.126856,0.11528,3,0.00418152,10,1.46239e-05,-3.93825,0.15452,0.381827,1.71836,0.126856,
2,1,0,1,0,4414.9,0.134637,0.134283,0.122021,3,0.00521032,10,1.63853e-05,-3.91356,4.96653,0.0118795,0.0566458,0.134283,
2,1,0,1,0,4422.39,0.142128,0.141829,0.111915,3,0.00622743,10,1.58728e-05,-3.95111,-0.104314,-0.565602,-2.44696,0.141829,
2,1,0,1,0,4429.89,0.149619,0.149279,0.0879154,3,0.00710155,10,1.31239e-05,-4.05593,-0.0651435,-0.905693,-3.10945,0.149279,
2,1,0,1,0,4437.38,0.15711,0.156812,0.0688888,3,0.00780176,10,1.08026e-05,-4.16185,-0.0783159,-0.753359,-2.02635,0.156812,
2,1,0,1,0,4444.87,0.164601,0.164291,0.0591765,3,0.0083924,10,9.72216e-06,-4.22785,-0.138714,-0.425335,-0.980968,0.164291,
2,1,0,1,0,4452.36,0.172091,0.171847,0.0530657,3,0.00892678,10,9.11921e-06,-4.27519,-0.233116,-0.253093,-0.533112,0.171847,
2,1,0,1,0,4459.85,0.179582,0.179255,0.0511024,3,0.00943049,10,9.16033e-06,-4.29156,-0.46281,-0.127482,-0.253408,0.179255,
2,1,0,1,0,4467.34,0.187073,0.18676,0.0496299,3,0.00991649,10,9.26889e-06,-4.30426,-0.396358,-0.148855,-0.285297,0.18676,
2,1,0,1,0,4474.83,0.194564,0.194231,0.0491302,3,0.0103935,10,9.54258e-06,-4.30865,1.38526,0.0425914,0.0820852,0.194231,
2,1,0,1,0,4482.32,0.202055,0.201751,0.0490576,3,0.0108691,10,9.89743e-06,-4.30929,0.773015,0.0763245,0.145245,0.201751,
2,1,0,1,0,4489.81,0.209546,0.20927,0.0497402,3,0.0113458,10,1.04091e-05,-4.30329,0.860662,0.0685519,0.133407,0.20927,
2,1,0,1,0,4497.3,0.217037,0.216743,0.0504935,3,0.0118268,10,1.09441e-05,-4.29676,0.715326,0.0824799,0.161813,0.216743,
2,1,0,1,0,4504.79,0.224528,0.224286,0.0507489,3,0.0123128,10,1.13823e-05,-4.29457,0.410264,0.14381,0.28723,0.224286,
2,1,0,1,0,4512.29,0.232019,0.231682,0.0515374,3,0.0128029,10,1.19403e-05,-4.28788,-7.94967,-0.00742169,-0.0149071,0.231682,
2,1,0,1,0,4519.78,0.23951,0.239234,0.0522142,3,0.0132973,10,1.24914e-05,-4.28221,0.952536,0.0619399,0.126727,0.239234,
2,1,0,1,0,4527.27,0.247001,0.246724,0.0533546,3,0.0137989,10,1.31639e-05,-4.27283,0.543768,0.108502,0.225651,0.246724,
2,1,0,1,0,4534.76,0.254492,0.254209,0.0541673,3,0.014306,10,1.37698e-05,-4.26626,0.44058,0.133914,0.283725,0.2542094,
2,1,0,1,0,4542.25,0.261983,0.261692,0.0549002,3,0.0148193,10,1.43669e-05,-4.26043,-2.09328,-0.0281855,-0.0603798,0.261692,
2,1,0,1,0,4549.74,0.269474,0.269206,0.0557215,3,0.0153375,10,1.50005e-05,-4.25398,0.626628,0.0941547,0.206306,0.269206,
2,1,0,1,0,4557.23,0.276965,0.276669,0.0563571,3,0.015862,10,1.55922e-05,-4.24905,0.589172,0.100141,0.220816,0.276669,
2,1,0,1,0,4564.72,0.284456,0.284164,0.0573795,3,0.0163913,10,1.63052e-05,-4.24124,0.871665,0.0676866,0.151514,0.284164,
2,1,0,1,0,4572.21,0.291947,0.291651,0.057838,3,0.0169257,10,1.68685e-05,-4.23779,0.781713,0.0754753,0.171871,0.291651,
2,1,0,1,0,4579.7,0.299438,0.299081,0.0588046,3,0.0174665,10,1.75874e-05,-4.23059,-0.00558736,-10.5595,-17.1276,0.299081,
2,1,0,1,0,4586.55,0.293745,0.293432,0.0129856,3,0.0175508,10,3.81037e-06,-4.88654,0.0216207,2.72887,1.40829,0.293432,
2,1,0,1,0,4594.04,0.286254,0.285916,0.00471481,3,0.0175153,10,1.34804e-06,-5.32654,0.0108559,5.43484,1.00353,0.285916,
2,1,0,1,0,4601.53,0.278763,0.278456,-0.000309881,3,0.0174299,10,-8.62881e-08,-6.50881,-0.0352755,-1.67255,0.658592,0.278456,
2,0,0,1,0,4609.02,0.271272,0.270955,-0.00501861,3,0.0173088,10,-1.35982e-06,-5.29942,-0.0166496,-3.54362,0.662336,0.270955,
2,0,0,1,0,4616.51,0.263781,0.263481,-0.0096456,3,0.0171538,10,-2.54144e-06,-5.01567,-0.0514881,-1.1459,0.38548,0.263481,
2,0,0,1,0,4624,0.25629,0.25599,-0.0125924,3,0.0169709,10,-3.22354e-06,-4.89989,-0.0492482,-1.19801,0.572347,0.2559897,
2,0,0,1,0,4631.49,0.248799,0.248432,-0.0150437,3,0.0167644,10,-3.73734e-06,-4.82265,-0.0896466,-0.65814,0.393913,0.248432,
2,0,0,1,0,4638.98,0.241308,0.240998,-0.0181758,3,0.0165356,10,-4.38033e-06,-4.74051,-0.100242,-0.588577,0.415592,0.240998,
2,1,0,1,0,4646.47,0.233817,0.233555,-0.0213445,3,0.0162834,10,-4.9851e-06,-4.67071,-0.163644,-0.360538,0.294531,0.233555,
2,0,0,1,0,4653.97,0.226326,0.226035,-0.0238696,3,0.0160081,10,-5.39537e-06,-4.62215,-0.117688,-0.501324,0.470744,0.226035,
2,0,0,1,0,4661.46,0.218835,0.218569,-0.026979,3,0.0157095,10,-5.89678e-06,-4.56897,-0.119195,-0.494987,0.514034,0.218569,
2,0,0,1,0,4668.95,0.211344,0.211051,-0.0304807,3,0.0153877,10,-6.43297e-06,-4.51598,-0.134116,-0.439919,0.51622,0.2110509,
2,0,0,1,0,4676.44,0.203853,0.203545,-0.0331883,3,0.0150399,10,-6.75533e-06,-4.47901,-0.214563,-0.274978,0.357942,0.203545,
2,0,0,1,0,4683.93,0.196362,0.196013,-0.0359863,3,0.0146711,10,-7.05379e-06,-4.44386,-0.175619,-0.335954,0.472057,0.196013,
2,0,0,1,0,4691.42,0.188871,0.18857,-0.0401308,3,0.0142762,10,-7.56747e-06,-4.39652,-0.169725,-0.347622,0.542899,0.18857,
2,0,0,1,0,4698.91,0.18138,0.181071,-0.0450556,3,0.0138473,10,-8.15826e-06,-4.34625,-0.188947,-0.312257,0.54623,0.181071,
2,0,0,1,0,4706.4,0.173889,0.173562,-0.0502958,3,0.0133791,10,-8.72946e-06,-4.29847,-0.172159,-0.342706,0.671976,0.1735623,
2,0,0,1,0,4713.89,0.166398,0.166104,-0.057824,3,0.0128614,10,-9.60482e-06,-4.23789,-0.110455,-0.534156,1.21303,0.166104,
2,0,0,1,0,4721.38,0.158907,0.158599,-0.0692474,3,0.0122675,10,-1.09826e-05,-4.1596,-0.0815069,-0.723865,1.96568,0.158599,
2,0,0,1,0,4728.87,0.151417,0.151103,-0.0885959,3,0.0115567,10,-1.33871e-05,-4.05259,-0.0598743,-0.985397,3.43447,0.151103,
2,0,0,1,0,4736.37,0.143926,0.143623,-0.116695,3,0.0106639,10,-1.676e-05,-3.93295,-0.0592823,-0.995237,4.53731,0.143623,
2,0,0,1,0,4743.86,0.136435,0.1361,-0.14647,3,0.00954709,10,-1.99346e-05,-3.83425,-0.104452,-0.564851,3.21274,0.1361,
2,0,0,1,0,4751.35,0.128944,0.128605,-0.160853,3,0.00825465,10,-2.06865e-05,-3.79357,-0.648638,-0.0909598,0.570027,0.128605,
2,0,0,1,0,4758.84,0.121453,0.121197,-0.161728,3,0.0069082,10,-1.96009e-05,-3.79122,0.679023,0.0868896,-0.547102,0.121197,
2,0,0,1,0,4766.33,0.113962,0.11363,-0.156548,3,0.00558098,10,-1.77886e-05,-3.80535,0.50898,0.115918,-0.711663,0.11363,
2,0,0,1,0,4773.82,0.106471,0.106119,-0.151094,3,0.00429618,10,-1.6034e-05,-3.82075,0.382569,0.15422,-0.911631,0.106119,
2,0,0,1,0,4781.31,0.0989798,0.0986583,-0.143029,3,0.00306552,10,-1.4111e-05,-3.84458,0.300946,0.196048,-1.09383,0.0986583,
2,0,0,1,0,4788.8,0.0914889,0.0912026,-0.13522,3,0.00189893,10,-1.23324e-05,-3.86896,0.42095,0.140159,-0.741275,0.0912026,
2,0,0,1,0,4796.29,0.083998,0.0837035,-0.128853,3,0.000787598,10,-1.07854e-05,-3.88991,0.328178,0.179781,-0.903783,0.0837035,
2,0,0,1,0,4803.78,0.076507,0.076182,-0.124104,3,-0.000282553,10,-9.45447e-06,-3.90622,0.58579,0.100719,-0.487522,0.076182,
2,0,0,1,0,4811.28,0.069016,0.0687092,-0.119913,3,-0.00132192,10,-8.23911e-06,-3.92113,0.639842,0.0922102,-0.434181,0.0687092,
2,0,0,1,0,4818.77,0.0615251,0.0612143,-0.11684,3,-0.002334,10,-7.1523e-06,-3.93241,0.505192,0.116787,-0.531491,0.06121432,
2,0,0,1,0,4826.26,0.0540342,0.0537035,-0.112922,3,-0.00331605,10,-6.06431e-06,-3.94722,0.353037,0.167121,-0.731305,0.0537035,
2,0,0,1,0,4833.75,0.0465432,0.0462011,-0.10898,3,-0.00426693,10,-5.03501e-06,-3.96265,0.6003,0.0982842,-0.418937,0.0462011,
2,0,0,1,0,4841.24,0.0390522,0.0387262,-0.10502,3,-0.00519051,10,-4.06704e-06,-3.97873,0.592076,0.0996493,-0.40778,0.0387262,
2,0,0,1,0,4848.73,0.0315613,0.0312599,-0.102326,3,-0.00608696,10,-3.19872e-06,-3.99001,0.741287,0.0795913,-0.318033,0.0312599,
2,0,0,1,0,4856.22,0.0240703,0.0237459,-0.100695,3,-0.00696409,10,-2.39109e-06,-3.99699,1.73166,0.0340713,-0.133366,0.0237459,
2,0,0,1,0,4863.71,0.0165794,0.016269,-0.100418,3,-0.00783364,10,-1.63371e-06,-3.99819,-2.94461,-0.0200366,0.0784896,0.016269,
2,0,0,1,0,4871.2,0.00908843,0.00874643,-0.102031,3,-0.00871076,10,-8.9241e-07,-3.99127,-0.714667,-0.0825559,0.329396,0.00874643,
2,0,0,1,0,4878.69,0.00159744,0.00119099,-0.106352,3,-0.00960794,10,-1.26664e-07,-3.97326, , , ,0.00119099,
2,0,0,1,0,4880.09,0.000199235,-0.000206971,-0.106879,3,-0.00977846,10,2.21209e-08,-3.97111, , , ,-0.000206971,

File: 20221101_1-115_003_TrumpetPlot_ParaChange_from10_every3_02_CV_C01_3.csv
mode,ox/red,error,control changes,counter inc.,time/s,control/V,Ewe/V,<I>/mA,cycle number,(Q-Qo)/C,I Range,P/W,log(|I|),Tafel slope mV/dec,alpha_eff,dI/d(E-IR),E-IR/V,
2,0,0,1,0,6250.42,2.44065e-05,-0.000191712,-0.342994,4,0.0000000E+000,10,6.57562e-08,-3.46471, , , ,-0.000191712,
2,0,0,1,0,6257.69,0.00729061,0.00696601,-0.0938589,4,-0.00088304,10,-6.53821e-07,-4.02752,-0.0320821,-1.83903,6.87171,0.00696601,
2,0,0,1,0,6265.18,0.0147815,0.0144492,-0.0603828,4,-0.00132754,10,-8.72486e-07,-4.21909,-0.0425543,-1.38646,3.24529,0.0144492,
2,0,0,1,0,6272.67,0.0222725,0.0219739,-0.0396929,4,-0.00158215,10,-8.72209e-07,-4.40129,-0.0459394,-1.2843,2.02479,0.02197394,
2,0,0,1,0,6280.16,0.0297635,0.0294541,-0.0251425,4,-0.00170855,10,-7.40552e-07,-4.59959,-0.0365074,-1.61611,1.58702,0.0294541,
2,0,0,1,0,6287.65,0.0372544,0.0369585,-0.0121735,4,-0.00173003,10,-4.49915e-07,-4.91458,-0.0163572,-3.60697,1.65704,0.0369585,
2,0,0,1,0,6295.14,0.0447454,0.0444408,-0.000820541,4,-0.0016559,10,-3.64656e-08,-6.0859,-0.0171604,-3.43815,1.46497,0.0444408,
2,0,0,1,0,6302.63,0.0522363,0.0518552,0.0099652,4,-0.00149703,10,5.16747e-07,-5.00151,0.0147751,3.99321,1.57956,0.0518552,
2,1,0,1,0,6310.12,0.0597273,0.0594276,0.0207662,4,-0.00125812,10,1.23409e-06,-4.68264,0.0437017,1.35006,1.05412,0.0594276,
2,1,0,1,0,6317.62,0.0672183,0.0669247,0.0295244,4,-0.000948734,10,1.97591e-06,-4.52982,0.0598316,0.986101,1.11614,0.0669247,
2,1,0,1,0,6325.11,0.0747092,0.0744058,0.0370633,4,-0.000573672,10,2.75773e-06,-4.43106,0.0705726,0.836019,1.23481,0.0744058,
2,1,0,1,0,6332.6,0.0822001,0.0818647,0.0456866,4,-0.000138681,10,3.74012e-06,-4.34021,0.0774349,0.76193,1.34835,0.0818647,
2,1,0,1,0,6340.09,0.0896911,0.0893628,0.0538676,4,0.000358363,10,4.81376e-06,-4.26867,0.107382,0.549443,1.1702,0.0893628,
2,1,0,1,0,6347.58,0.0971821,0.0968812,0.0645242,4,0.000928743,10,6.25118e-06,-4.19028,0.073661,0.800967,2.03038,0.0968812,
2,1,0,1,0,6355.07,0.104673,0.104358,0.0786938,4,0.00159187,10,8.21233e-06,-4.10406,0.107326,0.549725,1.66452,0.104358,
2,1,0,1,0,6362.56,0.112164,0.111865,0.0894782,4,0.00235207,10,1.00094e-05,-4.04828,0.156504,0.376987,1.32665,0.111865,
2,1,0,1,0,6370.05,0.119655,0.119339,0.101364,4,0.00319959,10,1.20968e-05,-3.99411,0.197258,0.2991,1.17796,0.119339,
2,1,0,1,0,6377.54,0.127146,0.126815,0.110546,4,0.00412897,10,1.40189e-05,-3.95646,0.182884,0.322609,1.40563,0.126815,
2,1,0,1,0,6385.03,0.134637,0.134308,0.116626,4,0.00512911,10,1.56638e-05,-3.9332,-0.776958,-0.0759372,-0.345567,0.134308,
2,1,0,1,0,6392.52,0.142128,0.141819,0.104377,4,0.00609962,10,1.48027e-05,-3.98139,-0.0932559,-0.632668,-2.55432,0.141819,
2,1,0,1,0,6400.02,0.149619,0.149298,0.0799199,4,0.00691649,10,1.19319e-05,-4.09734,-0.0617214,-0.955908,-3.00521,0.149298,
2,1,0,1,0,6407.51,0.15711,0.156774,0.0633722,4,0.00757012,10,9.9351e-06,-4.1981,-0.0779994,-0.756417,-1.87242,0.156774,
2,1,0,1,0,6415,0.164601,0.164257,0.0549332,4,0.00812922,10,9.02317e-06,-4.26017,-0.141371,-0.417341,-0.89816,0.164257,
2,1,0,1,0,6422.49,0.172091,0.17179,0.0505325,4,0.00863894,10,8.681e-06,-4.29643,-0.279633,-0.21099,-0.41796,0.17179,
2,1,0,1,0,6429.98,0.179582,0.179275,0.0487198,4,0.00912449,10,8.73422e-06,-4.31229,-2.13209,-0.0276724,-0.0526344,0.179275,
2,1,0,1,0,6437.47,0.187073,0.186799,0.0481538,4,0.00959921,10,8.9951e-06,-4.31737,-2.51794,-0.0234319,-0.0442276,0.186799,
2,1,0,1,0,6444.96,0.194564,0.194234,0.0483834,4,0.0100707,10,9.3977e-06,-4.3153,-1.66627,-0.0354085,-0.066977,0.1942338,
2,1,0,1,0,6452.45,0.202055,0.201768,0.0485139,4,0.0105401,10,9.78855e-06,-4.31413,1.75126,0.0336901,0.0638398,0.201768,
2,1,0,1,0,6459.94,0.209546,0.20924,0.0489331,4,0.0110136,10,1.02387e-05,-4.3104,-1.05962,-0.0556802,-0.105761,0.20924,
2,1,0,1,0,6467.43,0.217037,0.216738,0.0490672,4,0.0114879,10,1.06347e-05,-4.30921,0.612683,0.0962977,0.18773,0.216738,
2,1,0,1,0,6474.93,0.224528,0.224274,0.0510118,4,0.0119683,10,1.14406e-05,-4.29233,0.774671,0.0761614,0.150684,0.224274,
2,1,0,1,0,6482.42,0.232019,0.231694,0.0510782,4,0.0124549,10,1.18345e-05,-4.29176,0.653939,0.0902225,0.181685,0.231694,
2,1,0,1,0,6489.91,0.23951,0.239267,0.0522226,4,0.0129497,10,1.24951e-05,-4.28214,1.30943,0.0450578,0.0927474,0.239267,
2,1,0,1,0,6497.4,0.247001,0.246663,0.0534483,4,0.0134504,10,1.31837e-05,-4.27207,0.53537,0.110204,0.229632,0.246663,
2,1,0,1,0,6504.89,0.254492,0.254163,0.0544929,4,0.0139605,10,1.38501e-05,-4.26366,1.13838,0.051828,0.110116,0.254163,
2,1,0,1,0,6512.38,0.261983,0.26166,0.0550055,4,0.0144755,10,1.43927e-05,-4.25959,4.84089,0.0121878,0.0261738,0.26166,
2,1,0,1,0,6519.87,0.269474,0.269185,0.0554564,4,0.0149959,10,1.49281e-05,-4.25605,0.663909,0.0888676,0.194341,0.269185,
2,1,0,1,0,6527.36,0.276965,0.276689,0.0569958,4,0.0155206,10,1.57701e-05,-4.24416,0.499914,0.11802,0.262634,0.276689,
2,1,0,1,0,6534.85,0.284456,0.284129,0.0578346,4,0.0160546,10,1.64325e-05,-4.23781,-2.04054,-0.028914,-0.0655688,0.284129,
2,1,0,1,0,6542.34,0.291947,0.291649,0.0592182,4,0.0165933,10,1.72709e-05,-4.22754,0.483006,0.122152,0.28208,0.291649,
2,1,0,1,0,6549.83,0.299438,0.299137,0.0600968,4,0.0171395,10,1.79772e-05,-4.22115,-0.00566716,-10.4109,-17.1447,0.299137,
2,1,0,1,0,6556.68,0.293745,0.293454,0.0130949,4,0.0172291,10,3.84275e-06,-4.8829,0.022146,2.66413,1.41257,0.293454,
2,1,0,1,0,6564.17,0.286254,0.285933,0.00502473,4,0.0171984,10,1.43674e-06,-5.29889,0.0123525,4.77635,0.922978,0.285933,
2,1,0,1,0,6571.66,0.278763,0.278471,-0.000421251,4,0.0171159,10,-1.17306e-07,-6.37546,-0.0278256,-2.12035,0.595967,0.278471,
2,0,0,1,0,6579.15,0.271272,0.270967,-0.00527926,4,0.0169966,10,-1.43051e-06,-5.27743,-0.0161251,-3.65889,0.662457,0.270967,
2,0,0,1,0,6586.64,0.263781,0.263468,-0.008386,4,0.0168441,10,-2.20944e-06,-5.07645,-0.0525008,-1.12379,0.373064,0.263468,
2,0,0,1,0,6594.13,0.25629,0.255957,-0.0122243,4,0.0166646,10,-3.1289e-06,-4.91278,-0.0652232,-0.904586,0.41725,0.255957,
2,0,0,1,0,6601.62,0.248799,0.248521,-0.0151538,4,0.0164597,10,-3.76605e-06,-4.81948,-0.0720582,-0.818783,0.491281,0.248521,
2,0,0,1,0,6609.11,0.241308,0.241036,-0.0182826,4,0.0162315,10,-4.40676e-06,-4.73796,-0.164461,-0.358747,0.250616,0.241036,
2,0,0,1,0,6616.6,0.233817,0.233502,-0.0211517,4,0.0159828,10,-4.93897e-06,-4.67465,-0.0946454,-0.623379,0.509543,0.233502,
2,0,0,1,0,6624.1,0.226326,0.226046,-0.0239214,4,0.0157084,10,-5.40734e-06,-4.62121,-0.191413,-0.308234,0.290664,0.226046,
2,0,0,1,0,6631.59,0.218835,0.218501,-0.0268131,4,0.0154132,10,-5.8587e-06,-4.57165,-0.14409,-0.409466,0.426898,0.218501,
2,0,0,1,0,6639.08,0.211344,0.211036,-0.0300902,4,0.0150948,10,-6.35012e-06,-4.52157,-0.236973,-0.248973,0.288873,0.211036,
2,0,0,1,0,6646.57,0.203853,0.203542,-0.0333467,4,0.0147525,10,-6.78745e-06,-4.47695,-0.281998,-0.209222,0.268961,0.203542,
2,0,0,1,0,6654.06,0.196362,0.196032,-0.0365603,4,0.0143861,10,-7.16699e-06,-4.43699,-0.169918,-0.347226,0.492024,0.196032,
2,0,0,1,0,6661.55,0.188871,0.188552,-0.0397097,4,0.0139941,10,-7.48734e-06,-4.4011,-0.166537,-0.354276,0.547198,0.188552,
2,0,0,1,0,6669.04,0.18138,0.181073,-0.0448531,4,0.0135704,10,-8.1217e-06,-4.34821,-0.142855,-0.413005,0.71652,0.181073,
2,0,0,1,0,6676.53,0.173889,0.173588,-0.0493412,4,0.013109,10,-8.56503e-06,-4.30679,-0.131145,-0.449883,0.87844,0.173588,
2,0,0,1,0,6684.02,0.166398,0.166097,-0.0573252,4,0.0125967,10,-9.52155e-06,-4.24165,-0.12458,-0.47359,1.06425,0.166097,
2,0,0,1,0,6691.51,0.158907,0.158597,-0.067823,4,0.0120155,10,-1.07565e-05,-4.16862,-0.0935317,-0.630803,1.66635,0.158597,
2,0,0,1,0,6699.01,0.151417,0.151084,-0.0842327,4,0.0113279,10,-1.27262e-05,-4.07452,-0.070394,-0.838139,2.78435,0.151084,
2,0,0,1,0,6706.5,0.143926,0.143638,-0.11051,4,0.010479,10,-1.58734e-05,-3.9566,-0.0623147,-0.946807,4.0684,0.143638,
2,0,0,1,0,6713.99,0.136435,0.136137,-0.140265,4,0.00941272,10,-1.90953e-05,-3.85305,-0.0921157,-0.640499,3.47939,0.136137,
2,0,0,1,0,6721.48,0.128944,0.128654,-0.157953,4,0.00815804,10,-2.03212e-05,-3.80147,-0.3729,-0.158219,0.967238,0.128654,
2,0,0,1,0,6728.97,0.121453,0.121127,-0.159374,4,0.00683166,10,-1.93046e-05,-3.79758,0.73112,0.0806981,-0.502432,0.121127,
2,0,0,1,0,6736.46,0.113962,0.113645,-0.154956,4,0.00552117,10,-1.761e-05,-3.80979,0.456244,0.129317,-0.784855,0.113645,
2,0,0,1,0,6743.95,0.106471,0.106151,-0.14999,4,0.00424737,10,-1.59216e-05,-3.82394,0.525728,0.112225,-0.659399,0.106151,
2,0,0,1,0,6751.44,0.0989798,0.0986625,-0.143482,4,0.00302057,10,-1.41563e-05,-3.8432,0.314186,0.187787,-1.04898,0.0986625,
2,0,0,1,0,6758.93,0.0914889,0.0911357,-0.135785,4,0.00185348,10,-1.23749e-05,-3.86715,0.341311,0.172863,-0.914519,0.0911357,
2,0,0,1,0,6766.42,0.083998,0.0837099,-0.128908,4,0.00074316,10,-1.07909e-05,-3.88972,0.299074,0.197275,-0.987953,0.0837099,
2,0,0,1,0,6773.91,0.076507,0.0761925,-0.124792,4,-0.000326647,10,-9.50819e-06,-3.90381,0.675283,0.0873708,-0.423208,0.0761925,
2,0,0,1,0,6781.41,0.069016,0.0687177,-0.119603,4,-0.00136381,10,-8.21882e-06,-3.92226,0.732831,0.0805097,-0.378151,0.0687177,
2,0,0,1,0,6788.9,0.0615251,0.061209,-0.117419,4,-0.0023747,10,-7.18708e-06,-3.93026,0.684807,0.0861557,-0.393686,0.061209,
2,0,0,1,0,6796.39,0.0540342,0.0537004,-0.113538,4,-0.00335856,10,-6.09706e-06,-3.94486,0.51237,0.115151,-0.507571,0.0537004,
2,0,0,1,0,6803.88,0.0465432,0.0462159,-0.109322,4,-0.00431408,10,-5.0524e-06,-3.96129,0.375003,0.157332,-0.675278,0.0462159,
2,0,0,1,0,6811.37,0.0390522,0.0386817,-0.106786,4,-0.0052424,10,-4.13065e-06,-3.97149,0.359886,0.163941,-0.679434,0.0386817,
2,0,0,1,0,6818.86,0.0315613,0.03126,-0.103649,4,-0.00614704,10,-3.24007e-06,-3.98443,0.95971,0.0614769,-0.24919,0.03126,
2,0,0,1,0,6826.35,0.0240703,0.0237416,-0.101667,4,-0.00703433,10,-2.41374e-06,-3.99282,2.75359,0.0214266,-0.0853973,0.0237416,
2,0,0,1,0,6833.84,0.0165794,0.0162287,-0.100816,4,-0.00791078,10,-1.63611e-06,-3.99647,-2.2904,-0.0257597,0.10157,0.0162287,
2,0,0,1,0,6841.33,0.00908843,0.00880581,-0.101678,4,-0.00878845,10,-8.95354e-07,-3.99277,-0.981348,-0.0601214,0.240132,0.00880581,
2,0,0,1,0,6848.82,0.00159744,0.00122063,-0.105418,4,-0.00968377,10,-1.28677e-07,-3.97709, , , ,0.00122063,
2,0,0,1,0,6850.22,0.000199235,-0.000157358,-0.106105,4,-0.00985372,10,1.66966e-08,-3.97426, , , ,-0.000157358,