Folder: Figs_alphaMnO2_OER_Tafel_sleope/Figure_codes/Fig_3-5/rawdata_trumpetplot_data/after 10th (part 135)

File: 20221101_1-115_003_TrumpetPlot_ParaChange_from10_every3_09_CV_C01_26.csv
mode,ox/red,error,control changes,counter inc.,time/s,control/V,Ewe/V,<I>/mA,cycle number,(Q-Qo)/C,I Range,P/W,log(|I|),Tafel slope mV/dec,alpha_eff,dI/d(E-IR),E-IR/V,
2,0,0,0,0,52405.9,2.44065e-05,-0.000306236,-5.25952,27,0.0000000E+000,10,1.61066e-06,-2.27905, , , ,-0.000306236,
2,1,0,1,0,52406,0.00978761,0.00946517,0.801466,27,-0.000136342,10,7.58601e-06,-3.09612,0.00431818,13.6631,290.445,0.00946517,
2,1,0,1,0,52406.1,0.0197755,0.0194105,2.65854,27,4.99955e-05,10,5.16036e-05,-2.57536,0.0500741,1.17825,121.226,0.0194105,
2,1,0,1,0,52406.2,0.0297635,0.0294474,3.57805,27,0.000365958,10,0.000105364,-2.44635,0.113684,0.518982,72.2854,0.0294474,
2,1,0,1,0,52406.3,0.0397514,0.0394311,4.21003,27,0.000756889,10,0.000166006,-2.37572,0.160725,0.367086,60.3571,0.0394311,
2,1,0,1,0,52406.4,0.0497484,0.0494453,4.7574,27,0.00120552,10,0.000235231,-2.32263,0.215802,0.273399,50.6744,0.04944529,
2,1,0,1,0,52406.5,0.0597273,0.0594167,5.23795,27,0.00170484,10,0.000311222,-2.28084,0.259997,0.226926,46.3735,0.0594167,
2,1,0,1,0,52406.6,0.0697152,0.0694031,5.68724,27,0.00225159,10,0.000394713,-2.2451,0.319396,0.184723,41.0092,0.0694031,
2,1,0,1,0,52406.7,0.0797031,0.0793729,6.08491,27,0.0028408,10,0.000482977,-2.21575,0.374217,0.157662,37.4422,0.0793729,
2,1,0,1,0,52406.8,0.0896911,0.0893842,6.43142,27,0.00346711,10,0.000574867,-2.19169,0.452604,0.130357,32.7275,0.0893842,
2,1,0,1,0,52406.9,0.099679,0.0993561,6.78719,27,0.0041264,10,0.000674348,-2.16831,0.394614,0.149513,39.5561,0.0993561,
2,1,0,1,0,52407,0.109667,0.109379,7.27511,27,0.00482725,10,0.000795745,-2.13816,0.289207,0.204006,57.9405,0.109379,
2,1,0,1,0,52407.1,0.119655,0.119276,7.9299,27,0.00558646,10,0.000945845,-2.10073,0.272797,0.216278,66.902,0.1192758,
2,1,0,1,0,52407.2,0.129643,0.129322,8.53765,27,0.00641125,10,0.0011041,-2.06866,0.371429,0.158846,52.9009,0.129322,
2,1,0,1,0,52407.3,0.139631,0.139285,8.94523,27,0.0072875,10,0.00124594,-2.04841,0.689612,0.0855554,29.876,0.139285,
2,1,0,1,0,52407.4,0.149619,0.149265,9.06714,27,0.00819096,10,0.00135341,-2.04253,-1.226,-0.0481239,-16.9915,0.149265,
2,1,0,1,0,52407.5,0.159607,0.159289,8.43378,27,0.00907379,10,0.00134341,-2.07398,-0.17019,-0.346672,-113.871,0.159289,
2,1,0,1,0,52407.6,0.169595,0.169293,7.04891,27,0.00985049,10,0.00119333,-2.15188,-0.111097,-0.531066,-146.03,0.169293,
2,1,0,1,0,52407.7,0.179582,0.179257,5.7915,27,0.0104885,10,0.00103817,-2.23721,-0.131204,-0.449683,-101.793,0.179257,
2,1,0,1,0,52407.8,0.18957,0.189195,5.00399,27,0.0110252,10,0.000946728,-2.30068,-0.189385,-0.311535,-60.9091,0.189195,
2,1,0,1,0,52407.9,0.199558,0.199222,4.53661,27,0.0115002,10,0.000903794,-2.34327,-0.306884,-0.192255,-34.0447,0.199222,
2,1,0,1,0,52408,0.209546,0.209257,4.25529,27,0.0119387,10,0.000890449,-2.37107,-0.389167,-0.151606,-25.1724,0.2092569,
2,1,0,1,0,52408.1,0.219534,0.219239,4.06425,27,0.0123541,10,0.000891044,-2.39102,-0.665109,-0.0887073,-14.0724,0.2192394,
2,1,0,1,0,52408.2,0.229522,0.229225,3.93337,27,0.0127541,10,0.000901627,-2.40523,-0.799434,-0.0738022,-11.3333,0.229225,
2,1,0,1,0,52408.3,0.23951,0.239209,3.84584,27,0.0131434,10,0.000919958,-2.41501,-1.28356,-0.0459661,-6.90623,0.239209,
2,1,0,1,0,52408.4,0.249498,0.24919,3.78088,27,0.0135246,10,0.000942158,-2.42241,-1.66805,-0.0353706,-5.21475,0.24919,
2,1,0,1,0,52408.5,0.259486,0.259202,3.72885,27,0.0139001,10,0.000966526,-2.42843,-1.29236,-0.0456528,-6.63365,0.259202,
2,1,0,1,0,52408.6,0.269474,0.269137,3.67566,27,0.0142706,10,0.000989255,-2.43466,-2.4882,-0.0237119,-3.40349,0.269137,
2,1,0,1,0,52408.7,0.279462,0.279154,3.63137,27,0.0146365,10,0.00101371,-2.43993,-1.84854,-0.031917,-4.5256,0.279154,
2,1,0,1,0,52408.8,0.28945,0.289139,3.58622,27,0.014998,10,0.00103692,-2.44536,-2.27371,-0.0259488,-3.6362,0.289139,
2,1,0,1,0,52408.9,0.299438,0.299138,3.54641,27,0.015355,10,0.00106087,-2.45021,-0.0384718,-1.53359,-199.149,0.299138,
2,0,0,1,0,52409,0.291747,0.291424,-0.443798,27,0.0154467,10,-0.000129333,-3.35281,-0.00286999,-20.5575,182.137,0.291424,
2,0,0,1,0,52409.1,0.281759,0.281376,-1.44545,27,0.0153425,10,-0.000406716,-2.84,-0.0571612,-1.03217,57.5885,0.281376,
2,0,0,1,0,52409.2,0.271771,0.271416,-1.86461,27,0.015175,10,-0.000506085,-2.72941,-0.129874,-0.454287,32.9606,0.271416,
2,0,0,1,0,52409.3,0.261783,0.26144,-2.12123,27,0.0149745,10,-0.000554574,-2.67341,-0.235724,-0.250293,20.7369,0.2614398,
2,0,0,1,0,52409.4,0.251795,0.251434,-2.31908,27,0.0147515,10,-0.000583095,-2.63468,-0.309032,-0.190919,17.2934,0.251434,
2,0,0,1,0,52409.5,0.241807,0.241465,-2.48073,27,0.0145108,10,-0.00059901,-2.60542,-0.360262,-0.16377,15.8898,0.241465,
2,0,0,1,0,52409.6,0.231815,0.231451,-2.6277,27,0.0142554,10,-0.000608184,-2.58042,-0.412399,-0.143065,14.6599,0.231451,
2,0,0,1,0,52409.7,0.221831,0.22149,-2.74774,27,0.0139867,10,-0.000608596,-2.56102,-0.48153,-0.122526,13.1538,0.2214897,
2,0,0,1,0,52409.8,0.211843,0.211512,-2.87554,27,0.0137052,10,-0.00060821,-2.54128,-0.684307,-0.0862186,9.67295,0.211512,
2,0,0,1,0,52409.9,0.201856,0.201505,-2.99841,27,0.0134114,10,-0.000604193,-2.52311,-0.540284,-0.109202,12.7707,0.201505,
2,0,0,1,0,52410,0.191868,0.191506,-3.12466,27,0.0131053,10,-0.000598389,-2.5052,-0.524095,-0.112575,13.7365,0.191506,
2,0,0,1,0,52410.1,0.18188,0.181545,-3.27456,27,0.0127864,10,-0.00059448,-2.48485,-0.438846,-0.134443,17.1224,0.181545,
2,0,0,1,0,52410.2,0.171892,0.171546,-3.43647,27,0.0124517,10,-0.000589515,-2.46389,-0.475252,-0.124145,16.6301,0.171546,
2,0,0,1,0,52410.3,0.161904,0.16155,-3.65631,27,0.0120979,10,-0.000590677,-2.43696,-0.330373,-0.178586,25.4963,0.16155,
2,0,0,1,0,52410.4,0.151916,0.151548,-3.98951,27,0.0117168,10,-0.000604601,-2.39908,-0.211806,-0.278556,43.4996,0.151548,
2,0,0,1,0,52410.5,0.141928,0.141611,-4.59368,27,0.0112904,10,-0.000650515,-2.33784,-0.12862,-0.458715,82.3268,0.141611,
2,0,0,1,0,52410.6,0.13194,0.131603,-5.59857,27,0.0107844,10,-0.000736789,-2.25192,-0.107999,-0.546302,119.55,0.131603,
2,0,0,1,0,52410.7,0.121952,0.121601,-6.83345,27,0.0101629,10,-0.000830958,-2.16536,-0.13357,-0.441715,117.693,0.121601,
2,0,0,1,0,52410.8,0.111964,0.111635,-7.91186,27,0.0094237,10,-0.000883238,-2.10172,-0.187934,-0.313939,96.911,0.111635,
2,0,0,1,0,52410.9,0.101976,0.101635,-8.70272,27,0.00859048,10,-0.000884503,-2.06034,-0.348574,-0.169261,57.3825,0.101635,
2,0,0,1,0,52411,0.0919883,0.0916631,-9.04936,27,0.00769966,10,-0.000829493,-2.04338,-1.51637,-0.0389087,13.7311,0.0916631,
2,0,0,1,0,52411.1,0.0820004,0.0816655,-8.96011,27,0.00679777,10,-0.000731732,-2.04769,0.881448,0.0669353,-23.3862,0.0816655,
2,0,0,1,0,52411.2,0.0720124,0.0716837,-8.6852,27,0.00591632,10,-0.000622587,-2.06122,0.712201,0.0828418,-28.0884,0.0716837,
2,0,0,1,0,52411.3,0.0620245,0.0617085,-8.44353,27,0.00506121,10,-0.000521037,-2.07348,0.937085,0.0629612,-20.7478,0.0617085,
2,0,0,1,0,52411.4,0.0520366,0.0516577,-8.23383,27,0.00422795,10,-0.000425341,-2.0844,0.84394,0.0699102,-22.4583,0.05165768,
2,0,0,1,0,52411.5,0.0420486,0.0416971,-7.99655,27,0.00341646,10,-0.000333432,-2.0971,0.760691,0.077561,-24.2297,0.0416971,
2,0,0,1,0,52411.6,0.0320607,0.0317306,-7.72914,27,0.00263106,10,-0.00024525,-2.11187,0.581736,0.101421,-30.5632,0.0317306,
2,0,0,1,0,52411.7,0.0220728,0.02174,-7.38836,27,0.00187576,10,-0.000160623,-2.13145,0.469708,0.12561,-36.216,0.02174,
2,0,0,1,0,52411.8,0.0120848,0.0117208,-7.03014,27,0.00115553,10,-8.23992e-05,-2.15304,0.458006,0.128819,-35.3745,0.0117208,
2,0,0,1,0,52411.9,0.0020969,0.00171528,-6.77848,27,0.000468502,10,-1.1627e-05,-2.16887,0.771694,0.0764551,-20.1313,0.00171528,
2,0,0,1,0,52412,-0.00789103,-0.00830382,-6.54484,27,-0.000195221,10,5.43472e-05,-2.1841,1.17616,0.0501632,-12.8373,-0.00830382,
2,0,0,1,0,52412.1,-0.017879,-0.0182749,-6.48412,27,-0.000844312,10,0.000118497,-2.18815,23.071,0.00255732,-0.646694,-0.0182749,
2,0,0,1,0,52412.2,-0.0278669,-0.0282245,-6.51318,27,-0.00149234,10,0.000183831,-2.18621,-2.30791,-0.0255642,6.50102,-0.0282245,
2,0,0,1,0,52412.3,-0.0378548,-0.0382141,-6.64102,27,-0.00214855,10,0.00025378,-2.17777,-0.969522,-0.0608548,15.7688,-0.03821408,
2,0,0,1,0,52412.4,-0.0478428,-0.0482388,-6.82838,27,-0.00282085,10,0.000329393,-2.16568,-0.62522,-0.0943668,25.173,-0.0482388,
2,0,0,1,0,52412.5,-0.0578217,-0.0582111,-7.09199,27,-0.00351491,10,0.000412833,-2.14923,-0.564492,-0.104519,28.9248,-0.0582111,
2,0,0,1,0,52412.6,-0.0678187,-0.0682198,-7.40858,27,-0.00423831,10,0.000505412,-2.13026,-0.467561,-0.126187,36.491,-0.0682198,
2,0,0,1,0,52412.7,-0.0778066,-0.0781882,-7.79735,27,-0.00499711,10,0.000609661,-2.10805,-0.435673,-0.135423,41.2119,-0.0781882,
2,0,0,1,0,52412.8,-0.0877945,-0.0881507,-8.26514,27,-0.00579862,10,0.000728577,-2.08275,-0.378272,-0.155972,50.3202,-0.0881507,
2,0,0,1,0,52412.9,-0.0977825,-0.0981318,-8.76614,27,-0.00664921,10,0.000860237,-2.05719,-0.39087,-0.150945,51.6484,-0.0981318,
2,0,0,1,1,52413,-0.0927386,-0.0931123,-3.10768,27,-0.00723485,10,0.000289363,-2.50756,-0.0145468,-4.05587,488.015,-0.09311229,
2,1,0,1,1,52413.1,-0.0827529,-0.0831604,0.336606,27,-0.00735335,10,-2.79923e-05,-3.47288,0.0064183,9.19246,249.785,-0.0831604,
2,1,0,1,1,52413.2,-0.0727627,-0.0731331,2.27658,27,-0.00721413,10,-0.000166493,-2.64272,0.0345878,1.7058,149.374,-0.0731331,
2,1,0,1,1,52413.3,-0.0627748,-0.0631673,3.47136,27,-0.00692161,10,-0.000219277,-2.4595,0.0839802,0.702546,94.9583,-0.0631673,
2,1,0,1,1,52413.4,-0.0527868,-0.0531495,4.23312,27,-0.00653271,10,-0.000224988,-2.37334,0.163937,0.359894,59.3306,-0.0531495,
2,1,0,1,1,52413.5,-0.0427989,-0.0431868,4.69935,27,-0.00608377,10,-0.00020295,-2.32796,0.284009,0.20774,38.0754,-0.0431868,
2,1,0,1,1,52413.6,-0.0328109,-0.0331729,4.9768,27,-0.00559885,10,-0.000165095,-2.30305,0.599893,0.0983508,19.0733,-0.0331729,
2,1,0,1,1,52413.7,-0.022823,-0.0231666,5.10794,27,-0.00509373,10,-0.000118334,-2.29175,1.43311,0.0411691,8.20971,-0.0231666,
2,1,0,1,1,52413.8,-0.0128351,-0.0132166,5.155,27,-0.00457967,10,-6.81318e-05,-2.28777,26.5837,0.0022194,0.446628,-0.0132166,
2,1,0,1,1,52413.9,-0.00284713,-0.00318759,5.16607,27,-0.00406314,10,-1.64673e-05,-2.28684,-12.154,-0.00485435,-0.977673,-0.00318759,
2,1,0,1,1,52413.9,-2.55332e-05,-0.000401673,5.1784,27,-0.00391792,10,-2.08002e-06,-2.2858, , , ,-0.000401673,

File: 20221101_1-115_003_TrumpetPlot_ParaChange_from10_every3_09_CV_C01_27.csv
mode,ox/red,error,control changes,counter inc.,time/s,control/V,Ewe/V,<I>/mA,cycle number,(Q-Qo)/C,I Range,P/W,log(|I|),Tafel slope mV/dec,alpha_eff,dI/d(E-IR),E-IR/V,
2,0,0,0,0,54376,2.44065e-05,-0.000344411,-5.24044,28,0.0000000E+000,10,1.80486e-06,-2.28063, , , ,-0.000344411,
2,1,0,1,0,54376.1,0.00978761,0.00939099,0.956231,28,-0.000121592,10,8.97995e-06,-3.01944,0.00606085,9.73462,285.968,0.00939099,
2,1,0,1,0,54376.2,0.0197755,0.0193919,2.75756,28,7.75716e-05,10,5.34742e-05,-2.55948,0.0543635,1.08529,116.182,0.0193919,
2,1,0,1,0,54376.3,0.0297635,0.0293776,3.65123,28,0.000401836,10,0.000107264,-2.43756,0.119875,0.492181,69.9543,0.0293776,
2,1,0,1,0,54376.4,0.0397514,0.0393784,4.26281,28,0.000798613,10,0.000167862,-2.3703,0.169458,0.348169,57.968,0.0393784,
2,1,0,1,0,54376.5,0.0497484,0.0493702,4.80086,28,0.00125212,10,0.000237019,-2.31868,0.213362,0.276525,51.7252,0.0493702,
2,1,0,1,0,54376.6,0.0597273,0.0593993,5.28664,28,0.00175558,10,0.000314023,-2.27682,0.253145,0.233068,48.008,0.0593993,
2,1,0,1,0,54376.7,0.0697152,0.0693791,5.72447,28,0.00230588,10,0.000397158,-2.24227,0.324281,0.181941,40.636,0.0693791,
2,1,0,1,0,54376.8,0.0797031,0.0793868,6.11647,28,0.00289787,10,0.000485567,-2.2135,0.396753,0.148707,35.4708,0.0793868,
2,1,0,1,0,54376.9,0.0896911,0.0893411,6.44494,28,0.00352604,10,0.000575798,-2.19078,0.450801,0.130878,32.9661,0.0893411,
2,1,0,1,0,54377,0.099679,0.0993308,6.81142,28,0.00418699,10,0.000676583,-2.16676,0.37517,0.157262,41.7785,0.0993308,
2,1,0,1,0,54377.1,0.109667,0.109345,7.32646,28,0.0048912,10,0.00080111,-2.13511,0.275251,0.21435,61.3153,0.109345,
2,1,0,1,0,54377.2,0.119655,0.119272,7.99195,28,0.0056565,10,0.000953219,-2.09735,0.284413,0.207445,64.7281,0.119272,
2,1,0,1,0,54377.3,0.129643,0.129311,8.59075,28,0.00648683,10,0.00111088,-2.06597,0.383779,0.153734,51.4875,0.1293114,
2,1,0,1,0,54377.4,0.139631,0.139264,8.9563,28,0.00736531,10,0.00124729,-2.04787,0.837111,0.0704805,24.6102,0.139264,
2,1,0,1,0,54377.5,0.149619,0.149276,8.97397,28,0.00826459,10,0.0013396,-2.04702,-0.709535,-0.0831531,-29.0601,0.149276,
2,1,0,1,0,54377.6,0.159607,0.159255,8.19021,28,0.00913009,10,0.00130433,-2.0867,-0.149885,-0.393636,-125.682,0.159255,
2,1,0,1,0,54377.7,0.169595,0.169269,6.79259,28,0.00987961,10,0.00114978,-2.16796,-0.115087,-0.512656,-135.861,0.169269,
2,1,0,1,0,54377.8,0.179582,0.179219,5.63803,28,0.0104965,10,0.00101044,-2.24887,-0.142225,-0.414834,-91.4239,0.1792191,
2,1,0,1,0,54377.9,0.18957,0.189224,4.92635,28,0.0110213,10,0.000932182,-2.30747,-0.214659,-0.274855,-52.9309,0.189224,
2,1,0,1,0,54378,0.199558,0.199198,4.49456,28,0.0114899,10,0.000895306,-2.34731,-0.328256,-0.179738,-31.5271,0.199198,
2,1,0,1,0,54378.1,0.209546,0.209188,4.22601,28,0.0119246,10,0.000884029,-2.37407,-0.377869,-0.156139,-25.7502,0.209188,
2,1,0,1,0,54378.2,0.219534,0.219178,4.03816,28,0.0123369,10,0.000885074,-2.39382,-0.688191,-0.085732,-13.5156,0.219178,
2,1,0,1,0,54378.3,0.229522,0.229148,3.91069,28,0.0127344,10,0.000896126,-2.40775,-0.835938,-0.0705794,-10.7879,0.229148,
2,1,0,1,0,54378.4,0.23951,0.239195,3.82906,28,0.0131213,10,0.000915892,-2.41691,-1.37176,-0.0430106,-6.43016,0.239195,
2,1,0,1,0,54378.5,0.249498,0.24916,3.76018,28,0.0135002,10,0.000936884,-2.42479,-1.28695,-0.0458449,-6.72687,0.24916,
2,1,0,1,0,54378.6,0.259486,0.25915,3.70913,28,0.0138735,10,0.000961222,-2.43073,-1.50117,-0.0393026,-5.6873,0.25915,
2,1,0,1,0,54378.7,0.269474,0.26912,3.65798,28,0.0142417,10,0.000984437,-2.43676,-1.85475,-0.0318103,-4.54356,0.26912,
2,1,0,1,0,54378.8,0.279462,0.279146,3.61773,28,0.0146056,10,0.00100987,-2.44156,-1.80102,-0.0327592,-4.6247,0.279146,
2,1,0,1,0,54378.9,0.28945,0.289072,3.57509,28,0.0149649,10,0.00103346,-2.44671,-2.52461,-0.0233699,-3.25675,0.289072,
2,1,0,1,0,54379,0.299438,0.299148,3.53613,28,0.0153198,10,0.00105783,-2.45147,-0.0366485,-1.60989,-206.724,0.299148,
2,0,0,1,0,54379.1,0.291747,0.291407,-0.513347,28,0.0154048,10,-0.000149593,-3.28959,-0.00463327,-12.734,175.771,0.291407,
2,0,0,1,0,54379.2,0.281759,0.281386,-1.47405,28,0.0152961,10,-0.000414776,-2.83149,-0.0615281,-0.958912,54.7966,0.281386,
2,0,0,1,0,54379.3,0.271771,0.271418,-1.88281,28,0.0151263,10,-0.00051103,-2.72519,-0.128108,-0.460549,33.7648,0.271418,
2,0,0,1,0,54379.4,0.261783,0.261432,-2.14349,28,0.0149243,10,-0.000560378,-2.66888,-0.247757,-0.238137,19.8998,0.261432,
2,0,0,1,0,54379.5,0.251795,0.251461,-2.33375,28,0.0147003,10,-0.000586846,-2.63195,-0.337219,-0.174961,15.9278,0.251461,
2,0,0,1,0,54379.6,0.241807,0.241473,-2.48812,28,0.0144587,10,-0.000600814,-2.60413,-0.347888,-0.169595,16.5186,0.241473,
2,0,0,1,0,54379.7,0.231815,0.231413,-2.63841,28,0.0142025,10,-0.000610564,-2.57866,-0.422476,-0.139653,14.3535,0.231413,
2,0,0,1,0,54379.8,0.221831,0.221445,-2.76083,28,0.0139332,10,-0.000611372,-2.55896,-0.492932,-0.119692,12.8836,0.221445,
2,0,0,1,0,54379.9,0.211843,0.211539,-2.8843,28,0.0136513,10,-0.000610141,-2.53996,-0.642304,-0.0918568,10.3257,0.211539,
2,0,0,1,0,54380,0.201856,0.201522,-3.00102,28,0.0133572,10,-0.000604771,-2.52273,-0.587216,-0.100474,11.7716,0.201522,
2,0,0,1,0,54380.1,0.191868,0.1915,-3.12805,28,0.0130508,10,-0.000599021,-2.50473,-0.544093,-0.108437,13.2586,0.1915,
2,0,0,1,0,54380.2,0.18188,0.181515,-3.27697,28,0.0127317,10,-0.00059482,-2.48453,-0.415422,-0.142024,18.1222,0.181515,
2,0,0,1,0,54380.3,0.171892,0.171513,-3.43769,28,0.012397,10,-0.000589608,-2.46373,-0.464938,-0.126899,17.0172,0.171513,
2,0,0,1,0,54380.4,0.161904,0.161533,-3.66077,28,0.0120433,10,-0.000591334,-2.43643,-0.321191,-0.183691,26.227,0.161533,
2,0,0,1,0,54380.5,0.151916,0.151595,-3.99126,28,0.0116622,10,-0.000605055,-2.39889,-0.21777,-0.270928,42.3047,0.151595,
2,0,0,1,0,54380.6,0.141928,0.14154,-4.59691,28,0.0112361,10,-0.000650648,-2.33753,-0.129675,-0.454983,81.7073,0.14154,
2,0,0,1,0,54380.7,0.13194,0.131607,-5.61905,28,0.0107301,10,-0.000739507,-2.25034,-0.107429,-0.549198,120.419,0.131607,
2,0,0,1,0,54380.8,0.121952,0.121597,-6.85566,28,0.0101069,10,-0.000833625,-2.16395,-0.132256,-0.446106,119.201,0.121597,
2,0,0,1,0,54380.9,0.111964,0.111581,-7.93927,28,0.00936554,10,-0.00088587,-2.10022,-0.190774,-0.309266,95.7198,0.1115807,
2,0,0,1,0,54381,0.101976,0.10164,-8.70996,28,0.0085301,10,-0.000885284,-2.05998,-0.371674,-0.158741,53.9184,0.10164,
2,0,0,1,0,54381.1,0.0919883,0.0916494,-9.03468,28,0.00763908,10,-0.000828023,-2.04409,-1.93422,-0.0305033,10.7515,0.0916494,
2,0,0,1,0,54381.2,0.0820004,0.0816203,-8.91787,28,0.0067401,10,-0.000727879,-2.04974,0.748143,0.078862,-27.4174,0.0816203,
2,0,0,1,0,54381.3,0.0720124,0.0715957,-8.61942,28,0.00586409,10,-0.000617113,-2.06452,0.690441,0.0854526,-28.7718,0.0715957,
2,0,0,1,0,54381.4,0.0620245,0.0616578,-8.38069,28,0.00501522,10,-0.000516735,-2.07672,0.859149,0.0686726,-22.4739,0.0616578,
2,0,0,1,0,54381.5,0.0520366,0.0516382,-8.18031,28,0.00418786,10,-0.000422416,-2.08723,0.841403,0.070121,-22.3693,0.0516382,
2,0,0,1,0,54381.6,0.0420486,0.0417278,-7.94344,28,0.00338193,10,-0.000331462,-2.09999,0.754078,0.0782412,-24.27,0.04172777,
2,0,0,1,0,54381.7,0.0320607,0.0316717,-7.67997,28,0.00260171,10,-0.000243238,-2.11464,0.574772,0.102649,-30.73,0.0316717,
2,0,0,1,0,54381.8,0.0220728,0.0216889,-7.33638,28,0.00185128,10,-0.000159118,-2.13452,0.480162,0.122875,-35.188,0.02168886,
2,0,0,1,0,54381.9,0.0120848,0.0117142,-6.99267,28,0.00113567,10,-8.19136e-05,-2.15536,0.461902,0.127733,-34.857,0.0117142,
2,0,0,1,0,54382,0.0020969,0.00167668,-6.74252,28,0.000452423,10,-1.1305e-05,-2.17118,0.881539,0.0669284,-17.5339,0.00167668,
2,0,0,1,0,54382.1,-0.00789103,-0.00831088,-6.52269,28,-0.000208625,10,5.42093e-05,-2.18557,1.33585,0.0441668,-11.2587,-0.00831088,
2,0,0,1,0,54382.2,-0.017879,-0.0182379,-6.46647,28,-0.000856258,10,0.000117935,-2.18933,-9.77331,-0.00603685,1.52337,-0.0182379,
2,0,0,1,0,54382.3,-0.0278669,-0.0282505,-6.50902,28,-0.00150378,10,0.000183883,-2.18648,-2.15648,-0.0273594,6.95598,-0.0282505,
2,0,0,1,0,54382.4,-0.0378548,-0.0382643,-6.6366,28,-0.00216016,10,0.000253945,-2.17805,-0.976239,-0.060436,15.6566,-0.0382643,
2,0,0,1,0,54382.5,-0.0478428,-0.0482254,-6.82813,28,-0.00283273,10,0.000329289,-2.1657,-0.568819,-0.103724,27.6708,-0.0482254,
2,0,0,1,0,54382.6,-0.0578217,-0.0582319,-7.08555,28,-0.00352695,10,0.000412606,-2.14963,-0.559484,-0.105454,29.1613,-0.0582319,
2,0,0,1,0,54382.7,-0.0678187,-0.0682451,-7.39662,28,-0.00424998,10,0.000504783,-2.13097,-0.476574,-0.1238,35.7346,-0.0682451,
2,0,0,1,0,54382.8,-0.0778066,-0.0781708,-7.77244,28,-0.00500745,10,0.000607578,-2.10944,-0.459086,-0.128516,39.0061,-0.0781708,
2,0,0,1,0,54382.9,-0.0877945,-0.0882104,-8.22546,28,-0.00580627,10,0.000725571,-2.08484,-0.393218,-0.150044,48.1582,-0.0882104,
2,0,0,1,0,54383,-0.0977825,-0.0981292,-8.70208,28,-0.00665195,10,0.000853928,-2.06038,-0.410381,-0.143769,48.8414,-0.09812922,
2,0,0,1,1,54383.1,-0.0927386,-0.0931531,-2.82587,28,-0.0072198,10,0.000263238,-2.54885,-0.0129524,-4.55515,497.235,-0.0931531,
2,1,0,1,1,54383.2,-0.0827529,-0.0831556,0.595145,28,-0.00731149,10,-4.94897e-05,-3.22538,0.0035576,16.5842,244.252,-0.0831556,
2,1,0,1,1,54383.3,-0.0727627,-0.0731406,2.48451,28,-0.00714952,10,-0.000181719,-2.60476,0.0388801,1.51748,145.206,-0.0731406,
2,1,0,1,1,54383.4,-0.0627748,-0.0631669,3.63056,28,-0.0068395,10,-0.000229331,-2.44003,0.0929355,0.634849,89.6756,-0.0631669,
2,1,0,1,1,54383.5,-0.0527868,-0.0531657,4.34439,28,-0.00643814,10,-0.000230972,-2.36207,0.183818,0.320969,54.2557,-0.0531657,
2,1,0,1,1,54383.6,-0.0427989,-0.0431851,4.77328,28,-0.00598084,10,-0.000206134,-2.32118,0.329226,0.179208,33.3777,-0.0431851,
2,1,0,1,1,54383.7,-0.0328109,-0.0331659,5.01852,28,-0.00549079,10,-0.000166444,-2.29942,0.701024,0.0841626,16.4724,-0.0331659,
2,1,0,1,1,54383.8,-0.022823,-0.0232339,5.13682,28,-0.00498285,10,-0.000119348,-2.28931,1.81778,0.0324572,6.50238,-0.02323385,
2,1,0,1,1,54383.9,-0.0128351,-0.0132175,5.16715,28,-0.00446758,10,-6.82969e-05,-2.28675,-42.87,-0.00137625,-0.277639,-0.0132175,
2,1,0,1,1,54384,-0.00284713,-0.00324693,5.17073,28,-0.00395078,10,-1.6789e-05,-2.28645,-4.43257,-0.0133106,-2.68435,-0.00324693,
2,1,0,1,1,54384,-2.55332e-05,-0.000344411,5.17522,28,-0.00380552,10,-1.7824e-06,-2.28607, , , ,-0.000344411,