Folder: Figs_alphaMnO2_OER_Tafel_sleope/Figure_codes/Fig_3-5/rawdata_trumpetplot_data/after 10th (part 87)

File: 20221101_1-115_003_TrumpetPlot_ParaChange_from10_every3_07_CV_C01_0.csv
mode,ox/red,error,control changes,counter inc.,time/s,control/V,Ewe/V,<I>/mA,cycle number,(Q-Qo)/C,I Range,P/W,log(|I|),Tafel slope mV/dec,alpha_eff,dI/d(E-IR),E-IR/V,
2,0,0,1,0,1165.02,2.44065e-05,-0.000248974,-2.63525,1,0.0000000E+000,10,6.5611e-07,-2.57918, , , ,-0.000248974,
2,1,0,1,0,1165.14,0.007288,0.00699617,1.98948,1,9.45706e-05,10,1.39187e-05,-2.70126,0.0353603,1.66854,124.52,0.00699617,
2,1,0,1,0,1165.26,0.0147816,0.0144632,2.41149,1,0.000377968,10,3.48779e-05,-2.61771,0.148645,0.396918,37.4953,0.0144632,
2,1,0,1,0,1165.39,0.0222712,0.0220004,2.64081,1,0.00069659,10,5.80988e-05,-2.57826,0.245949,0.239887,24.6845,0.0220004,
2,1,0,1,0,1165.51,0.0297648,0.0294479,2.84668,1,0.0010406,10,8.38286e-05,-2.54566,0.236945,0.249003,27.516,0.0294479,
2,1,0,1,0,1165.64,0.0372518,0.0369612,3.06017,1,0.00141039,10,0.000113108,-2.51425,0.20861,0.282824,33.7981,0.0369612,
2,1,0,1,0,1165.76,0.0447467,0.0444571,3.31293,1,0.00181059,10,0.000147284,-2.47979,0.20787,0.283832,36.8405,0.04445713,
2,1,0,1,0,1165.89,0.052235,0.0519051,3.61156,1,0.00224498,10,0.000187458,-2.4423,0.210531,0.280243,39.5669,0.0519051,
2,1,0,1,0,1166.01,0.0597299,0.0594019,3.93399,1,0.00271795,10,0.000233686,-2.40517,0.206075,0.286303,43.8221,0.0594019,
2,1,0,1,0,1166.14,0.0672156,0.0669793,4.24872,1,0.00322994,10,0.000284576,-2.37174,0.225678,0.261435,43.2691,0.0669793,
2,1,0,1,0,1166.26,0.0747105,0.074434,4.531,1,0.00378041,10,0.00033726,-2.34381,0.28734,0.205332,36.3175,0.07443402,
2,1,0,1,0,1166.39,0.0821988,0.0819188,4.7957,1,0.00436528,10,0.000392858,-2.31915,0.366083,0.161166,30.2107,0.0819188,
2,1,0,1,0,1166.51,0.0896937,0.0893637,5.06273,1,0.00498246,10,0.000452425,-2.29562,0.337638,0.174743,34.4726,0.0893637,
2,1,0,1,0,1166.64,0.0971794,0.0968819,5.32394,1,0.00563198,10,0.000515793,-2.27377,0.274275,0.215112,44.7189,0.0968819,
2,1,0,1,0,1166.76,0.104674,0.104401,5.7008,1,0.00632122,10,0.000595167,-2.24406,0.218499,0.270024,60.141,0.104401,
2,1,0,1,0,1166.89,0.112163,0.111875,6.20064,1,0.00706467,10,0.000693699,-2.20756,0.195964,0.301076,72.8685,0.111875,
2,1,0,1,0,1167.01,0.119657,0.119322,6.78893,1,0.00787739,10,0.000810067,-2.1682,0.207703,0.284059,75.1561,0.119322,
2,1,0,1,0,1167.14,0.127143,0.126804,7.3147,1,0.00876037,10,0.000927533,-2.1358,0.250016,0.235985,67.3945,0.126804,
2,1,0,1,0,1167.26,0.134638,0.134299,7.76514,1,0.00970621,10,0.00104285,-2.10985,0.337112,0.175016,53.1104,0.134299,
2,1,0,1,0,1167.39,0.142126,0.14185,8.09339,1,0.0107003,10,0.00114805,-2.09187,0.670892,0.0879426,27.7463,0.14185,
2,1,0,1,0,1167.51,0.149621,0.149336,8.07789,1,0.0117175,10,0.00120632,-2.0927,-0.4015,-0.146949,-46.0969,0.1493358,
2,1,0,1,0,1167.64,0.157107,0.156784,7.27616,1,0.0126865,10,0.00114079,-2.1381,-0.101522,-0.581153,-164.083,0.156784,
2,1,0,1,0,1167.76,0.164602,0.164301,5.76871,1,0.013506,10,0.000947806,-2.23892,-0.065981,-0.894197,-201.667,0.164301,
2,1,0,1,0,1167.89,0.17209,0.171824,4.51973,1,0.0141446,10,0.000776598,-2.34489,-0.0816353,-0.722727,-128.365,0.1718242,
2,1,0,1,0,1168.01,0.179585,0.179288,3.82683,1,0.0146641,10,0.000686102,-2.41716,-0.12308,-0.479362,-71.6557,0.179288,
2,1,0,1,0,1168.14,0.187072,0.186785,3.40104,1,0.0151145,10,0.000635265,-2.46839,-0.184817,-0.319234,-42.2544,0.186785,
2,1,0,1,0,1168.26,0.194566,0.19428,3.11377,1,0.0155218,10,0.000604945,-2.50671,-0.262785,-0.224518,-27.328,0.19428,
2,1,0,1,0,1168.39,0.202055,0.201794,2.9283,1,0.0159003,10,0.000590914,-2.53338,-0.29672,-0.198841,-22.7407,0.201794,
2,1,0,1,0,1168.51,0.209549,0.209228,2.81364,1,0.0162603,10,0.000588693,-2.55073,-0.364604,-0.161819,-17.7431,0.2092278,
2,1,0,1,0,1168.64,0.217036,0.216743,2.71237,1,0.0166067,10,0.000587888,-2.56665,-0.800747,-0.0736812,-7.80415,0.216743,
2,1,0,1,0,1168.76,0.224529,0.224269,2.64639,1,0.0169438,10,0.000593505,-2.57735,-0.955184,-0.0617682,-6.39989,0.224269,
2,1,0,1,0,1168.88,0.232019,0.231714,2.5991,1,0.0172734,10,0.000602247,-2.58518,-0.798268,-0.07391,-7.5093,0.231714,
2,1,0,1,0,1169.01,0.239513,0.23921,2.564,1,0.0175977,10,0.000613335,-2.59108,-1.03304,-0.0571131,-5.69922,0.23921,
2,1,0,1,0,1169.13,0.247001,0.246716,2.52989,1,0.0179169,10,0.000624163,-2.5969,-1.69982,-0.0347095,-3.41109,0.2467158,
2,1,0,1,0,1169.26,0.254493,0.254186,2.4844,1,0.0182322,10,0.0006315,-2.60478,-1.23857,-0.0476356,-4.64479,0.254186,
2,1,0,1,0,1169.38,0.261983,0.261747,2.45553,1,0.0185436,10,0.000642728,-2.60986,-1.10288,-0.0534965,-5.14708,0.261747,
2,1,0,1,0,1169.51,0.269477,0.269216,2.43935,1,0.0188516,10,0.000656713,-2.61273,-1.3597,-0.0433919,-4.12113,0.269216,
2,1,0,1,0,1169.63,0.276965,0.276677,2.41706,1,0.0191562,10,0.000668744,-2.61671,-1.49862,-0.0393696,-3.70057,0.276677,
2,1,0,1,0,1169.76,0.284457,0.284172,2.38106,1,0.0194578,10,0.00067663,-2.62323,-2.66386,-0.0221483,-2.06443,0.284172,
2,1,0,1,0,1169.88,0.291947,0.291628,2.3533,1,0.0197558,10,0.000686288,-2.62832,-1.09243,-0.0540082,-4.97147,0.291628,
2,1,0,1,0,1170.01,0.29944,0.299191,2.33766,1,0.020051,10,0.000699408,-2.63122,-0.00390905,-15.0932,-851.163,0.299191,
2,0,0,1,0,1170.12,0.293742,0.29345,-0.824889,1,0.0200502,10,-0.000242063,-3.0836,-0.0319423,-1.84708,56.1929,0.29345,
2,0,0,1,0,1170.25,0.286254,0.285976,-1.06549,1,0.0199285,10,-0.000304705,-2.97245,-0.084553,-0.697788,29.001,0.285976,
2,0,0,1,0,1170.37,0.278761,0.278458,-1.21464,1,0.0197826,10,-0.000338227,-2.91555,-0.16655,-0.354248,16.943,0.278458,
2,0,0,1,0,1170.5,0.271272,0.270931,-1.34319,1,0.01962,10,-0.000363913,-2.87186,-0.228575,-0.258121,13.5018,0.270931,
2,0,0,1,0,1170.62,0.263778,0.263459,-1.44617,1,0.0194438,10,-0.000381007,-2.83978,-0.252897,-0.233297,13.0978,0.263459,
2,0,0,1,0,1170.75,0.25629,0.255994,-1.5318,1,0.0192564,10,-0.000392132,-2.8148,-0.315211,-0.187176,11.1092,0.255994,
2,0,0,1,0,1170.87,0.248797,0.248467,-1.60046,1,0.0190588,10,-0.000397663,-2.79575,-0.333539,-0.176891,11.0781,0.248467,
2,0,0,1,0,1171,0.241308,0.24099,-1.67835,1,0.0188518,10,-0.000404465,-2.77512,-0.451163,-0.130773,8.55966,0.2409897,
2,0,0,1,0,1171.12,0.233814,0.233492,-1.75249,1,0.0186358,10,-0.000409192,-2.75635,-0.378015,-0.156078,10.6384,0.233492,
2,0,0,1,0,1171.25,0.226326,0.226065,-1.81896,1,0.0184111,10,-0.000411203,-2.74018,-0.369412,-0.159713,11.3209,0.226065,
2,0,0,1,0,1171.37,0.218834,0.218582,-1.8892,1,0.0181772,10,-0.000412945,-2.72372,-0.384949,-0.153267,11.311,0.218582,
2,0,0,1,0,1171.5,0.211344,0.211062,-1.96909,1,0.0179342,10,-0.000415599,-2.70574,-0.631634,-0.0934085,7.18414,0.211062,
2,0,0,1,0,1171.62,0.203856,0.203526,-2.06457,1,0.0176806,10,-0.000420193,-2.68517,-0.487451,-0.121038,9.71857,0.203526,
2,0,0,1,0,1171.75,0.196362,0.196054,-2.15749,1,0.0174155,10,-0.000422985,-2.66605,-0.290413,-0.203159,17.1041,0.196054,
2,0,0,1,0,1171.87,0.18887,0.188569,-2.2687,1,0.0171362,10,-0.000427808,-2.64422,-0.223922,-0.263485,23.5279,0.188569,
2,0,0,1,0,1171.99,0.18138,0.181101,-2.44485,1,0.0168394,10,-0.000442765,-2.61175,-0.223675,-0.263775,25.2183,0.181101,
2,0,0,1,0,1172.12,0.173892,0.173575,-2.67895,1,0.0165186,10,-0.000465,-2.57203,-0.172858,-0.34132,35.5505,0.173575,
2,0,0,1,0,1172.24,0.166398,0.166116,-2.99867,1,0.0161635,10,-0.000498127,-2.52307,-0.130074,-0.453588,53.1767,0.166116,
2,0,0,1,0,1172.37,0.158905,0.15858,-3.49114,1,0.0157576,10,-0.000553623,-2.45703,-0.097134,-0.607409,83.2059,0.15858,
2,0,0,1,0,1172.49,0.151417,0.151136,-4.26164,1,0.0152736,10,-0.000644088,-2.37042,-0.0834763,-0.706788,118.037,0.151136,
2,0,0,1,0,1172.62,0.143927,0.14361,-5.32575,1,0.0146752,10,-0.000764832,-2.27362,-0.0772197,-0.764053,158.605,0.14361,
2,0,0,1,0,1172.74,0.136435,0.136158,-6.49907,1,0.0139345,10,-0.000884897,-2.18715,-0.097141,-0.607365,153.6,0.136158,
2,0,0,1,0,1172.87,0.128941,0.128653,-7.47835,1,0.0130558,10,-0.000962114,-2.12619,-0.159631,-0.369603,107.669,0.128653,
2,0,0,1,0,1172.99,0.121453,0.121144,-8.07894,1,0.012078,10,-0.000978718,-2.09265,-0.396541,-0.148787,46.8229,0.121144,
2,0,0,1,0,1173.12,0.113963,0.113651,-8.24915,1,0.0110521,10,-0.000937521,-2.08359,2.95636,0.019957,-6.41429,0.113651,
2,0,0,1,0,1173.24,0.106471,0.106172,-8.03634,1,0.0100294,10,-0.000853235,-2.09494,0.36848,0.160117,-50.1334,0.106172,
2,0,0,1,0,1173.37,0.0989825,0.0986833,-7.52587,1,0.00905359,10,-0.000742677,-2.12344,0.231448,0.254916,-74.8837,0.0986833,
2,0,0,1,0,1173.49,0.0914889,0.0912213,-6.93298,1,0.00814856,10,-0.000632436,-2.15908,0.205218,0.287499,-77.7733,0.0912213,
2,0,0,1,0,1173.62,0.0839993,0.0837179,-6.42809,1,0.00731474,10,-0.000538147,-2.19192,0.256178,0.230308,-57.7457,0.0837179,
2,0,0,1,0,1173.74,0.076507,0.0761802,-6.09298,1,0.00653257,10,-0.000464164,-2.21517,0.38341,0.153882,-36.5624,0.0761802,
2,0,0,1,0,1173.87,0.0690187,0.0687376,-5.82339,1,0.00578711,10,-0.000400286,-2.23482,0.43996,0.134103,-30.5669,0.0687376,
2,0,0,1,0,1173.99,0.0615251,0.0611874,-5.59973,1,0.00507023,10,-0.000342633,-2.25183,0.412044,0.143189,-31.3726,0.0611874,
2,0,0,1,0,1174.12,0.0540355,0.0537328,-5.35947,1,0.00438357,10,-0.000287979,-2.27088,0.333949,0.176674,-36.9128,0.0537328,
2,0,0,1,0,1174.24,0.0465432,0.0462831,-5.06838,1,0.00373002,10,-0.000234581,-2.29513,0.283989,0.207755,-41.0194,0.0462831,
2,0,0,1,0,1174.37,0.0390549,0.0386974,-4.73681,1,0.00311643,10,-0.000183302,-2.32451,0.255728,0.230713,-42.5982,0.03869744,
2,0,0,1,0,1174.49,0.0315613,0.0312407,-4.41669,1,0.00254297,10,-0.00013798,-2.3549,0.264352,0.223187,-38.532,0.0312407,
2,0,0,1,0,1174.62,0.0240717,0.023766,-4.1903,1,0.00200411,10,-9.95865e-05,-2.37775,0.325008,0.181534,-29.7062,0.023766,
2,0,0,1,0,1174.74,0.0165781,0.0163148,-4.04496,1,0.00148873,10,-6.59928e-05,-2.39309,0.851095,0.0693225,-10.955,0.0163148,
2,0,0,1,0,1174.87,0.00909108,0.00878887,-3.97005,1,0.000986828,10,-3.48923e-05,-2.4012,7.53027,0.00783504,-1.21561,0.00878887,
2,0,0,1,0,1174.99,0.00159616,0.00124138,-4.00312,1,0.000488969,10,-4.9694e-06,-2.3976, , , ,0.001241384,
2,0,0,0,0,1175.01,0.000199195,-0.000172625,-3.98889,1,0.000395393,10,6.88582e-07,-2.39915, , , ,-0.000172625,

File: 20221101_1-115_003_TrumpetPlot_ParaChange_from10_every3_07_CV_C01_1.csv
mode,ox/red,error,control changes,counter inc.,time/s,control/V,Ewe/V,<I>/mA,cycle number,(Q-Qo)/C,I Range,P/W,log(|I|),Tafel slope mV/dec,alpha_eff,dI/d(E-IR),E-IR/V,
2,0,0,0,0,3135.15,2.44065e-05,-0.000325324,-2.64289,2,0.0000000E+000,10,8.59793e-07,-2.57792, , , ,-0.000325324,
2,1,0,1,0,3135.27,0.007288,0.00699617,1.86695,2,7.83173e-05,10,1.30615e-05,-2.72887,0.0302985,1.94729,135.911,0.00699617,
2,1,0,1,0,3135.39,0.0147816,0.0144898,2.36506,2,0.000351257,10,3.42692e-05,-2.62616,0.13132,0.449285,41.5021,0.0144898,
2,1,0,1,0,3135.52,0.0222712,0.0219622,2.62943,2,0.000665735,10,5.7748e-05,-2.58014,0.189743,0.310947,31.8013,0.0219622,
2,1,0,1,0,3135.64,0.0297648,0.0294918,2.86569,2,0.00101027,10,8.45143e-05,-2.54277,0.21606,0.273072,30.403,0.0294918,
2,1,0,1,0,3135.77,0.0372518,0.0368975,3.10823,2,0.00138458,10,0.000114686,-2.50749,0.203942,0.289297,35.1184,0.0368975,
2,1,0,1,0,3135.89,0.0447467,0.0444184,3.38002,2,0.00179206,10,0.000150135,-2.47108,0.203064,0.290549,38.4534,0.0444184,
2,1,0,1,0,3136.02,0.052235,0.0519151,3.67935,2,0.00223469,10,0.000191014,-2.43423,0.216639,0.272343,39.0608,0.0519151,
2,1,0,1,0,3136.14,0.0597299,0.0594336,3.97807,2,0.00271479,10,0.000236431,-2.40033,0.225659,0.261457,40.4797,0.05943355,
2,1,0,1,0,3136.27,0.0672156,0.0669311,4.26175,2,0.00323038,10,0.000285243,-2.37041,0.248215,0.237698,39.4481,0.0669311,
2,1,0,1,0,3136.39,0.0747105,0.0743744,4.5096,2,0.00378048,10,0.000335399,-2.34586,0.300957,0.196041,34.5498,0.07437443,
2,1,0,1,0,3136.52,0.0821988,0.0818853,4.75358,2,0.0043612,10,0.000389248,-2.32298,0.389696,0.1514,28.1198,0.0818853,
2,1,0,1,0,3136.64,0.0896937,0.0893707,4.99438,2,0.00497195,10,0.000446352,-2.30152,0.392672,0.150252,29.2391,0.08937075,
2,1,0,1,0,3136.77,0.0971794,0.0969032,5.25909,2,0.00561291,10,0.000509623,-2.27909,0.258737,0.228031,46.8737,0.0969032,
2,1,0,1,0,3136.89,0.104674,0.104354,5.62846,2,0.00629445,10,0.000587354,-2.24961,0.214864,0.274592,60.4765,0.104354,
2,1,0,1,0,3137.02,0.112163,0.111869,6.13594,2,0.0070302,10,0.000686422,-2.21212,0.201526,0.292767,70.0762,0.111869,
2,1,0,1,0,3137.14,0.119657,0.119393,6.67017,2,0.0078318,10,0.00079637,-2.17586,0.23816,0.247732,64.3141,0.119393,
2,1,0,1,0,3137.27,0.127143,0.126847,7.10132,2,0.008694,10,0.000900785,-2.14866,0.300283,0.196482,54.4628,0.126847,
2,1,0,1,0,3137.39,0.134638,0.134353,7.46957,2,0.00960741,10,0.00100356,-2.1267,0.394526,0.149547,43.6384,0.134353,
2,1,0,1,0,3137.52,0.142126,0.141854,7.7261,2,0.0105603,10,0.00109597,-2.11204,0.949243,0.0621548,18.7146,0.141854,
2,1,0,1,0,3137.64,0.149621,0.149317,7.60733,2,0.0115262,10,0.0011359,-2.11877,-0.253684,-0.232573,-68.618,0.149317,
2,1,0,1,0,3137.77,0.157107,0.156844,6.64535,2,0.0124259,10,0.00104228,-2.17748,-0.0845687,-0.697658,-179.954,0.1568439,
2,1,0,1,0,3137.89,0.164602,0.164301,5.18328,2,0.0131656,10,0.000851619,-2.2854,-0.0700887,-0.84179,-170.773,0.164301,
2,1,0,1,0,3138.02,0.17209,0.171807,4.16516,2,0.0137452,10,0.000715603,-2.38037,-0.0957955,-0.615896,-100.696,0.171807,
2,1,0,1,0,3138.14,0.179585,0.17926,3.6085,2,0.0142297,10,0.000646859,-2.44267,-0.143287,-0.41176,-58.0482,0.17926,
2,1,0,1,0,3138.27,0.187072,0.186746,3.25746,2,0.0146581,10,0.000608316,-2.48712,-0.218441,-0.270096,-34.2565,0.186746,
2,1,0,1,0,3138.39,0.194566,0.194241,3.02357,2,0.015051,10,0.000587302,-2.51948,-0.314154,-0.187806,-22.2025,0.194241,
2,1,0,1,0,3138.52,0.202055,0.20179,2.86771,2,0.0154203,10,0.000578674,-2.54247,-0.339339,-0.173867,-19.5052,0.20179,
2,1,0,1,0,3138.64,0.209549,0.209253,2.7709,2,0.0157742,10,0.000579819,-2.55738,-0.338781,-0.174154,-18.8134,0.209253,
2,1,0,1,0,3138.77,0.217036,0.216776,2.68705,2,0.0161162,10,0.000582487,-2.57072,-0.832164,-0.0708995,-7.42946,0.216776,
2,1,0,1,0,3138.89,0.224529,0.224187,2.624,2,0.0164501,10,0.000588268,-2.58104,-0.99259,-0.0594405,-6.11035,0.224187,
2,1,0,1,0,3139.02,0.232019,0.231722,2.57928,2,0.0167772,10,0.000597675,-2.5885,-1.0929,-0.0539848,-5.44862,0.231722,
2,1,0,1,0,3139.14,0.239513,0.23921,2.5478,2,0.0170992,10,0.000609461,-2.59383,-0.87329,-0.0675606,-6.70193,0.23921,
2,1,0,1,0,3139.26,0.247001,0.246701,2.5199,2,0.0174165,10,0.000621663,-2.59862,-1.28672,-0.0458532,-4.48002,0.246701,
2,1,0,1,0,3139.39,0.254493,0.254216,2.47649,2,0.0177301,10,0.000629563,-2.60616,-2.88648,-0.0204401,-1.98067,0.254216,
2,1,0,1,0,3139.51,0.261983,0.261654,2.44239,2,0.0180398,10,0.000639062,-2.61218,-1.21522,-0.0485507,-4.6523,0.261654,
2,1,0,1,0,3139.64,0.269477,0.269179,2.42471,2,0.0183462,10,0.000652681,-2.61534,-1.15596,-0.05104,-4.83098,0.269179,
2,1,0,1,0,3139.76,0.276965,0.276682,2.40197,2,0.0186493,10,0.000664582,-2.61943,-1.89558,-0.0311251,-2.91184,0.276682,
2,1,0,1,0,3139.89,0.284457,0.284185,2.37344,2,0.0189494,10,0.000674496,-2.62462,-7.15479,-0.00824622,-0.763897,0.284185,
2,1,0,1,0,3140.01,0.291947,0.29167,2.34407,2,0.0192462,10,0.000683694,-2.63003,-0.97748,-0.0603593,-5.52899,0.29167,
2,1,0,1,0,3140.14,0.29944,0.299177,2.32434,2,0.0195399,10,0.00069539,-2.6337,-0.00413268,-14.2764,-832.643,0.299177,
2,0,0,1,0,3140.25,0.293742,0.293426,-0.76514,2,0.0195468,10,-0.000224512,-3.11626,-0.0263788,-2.23665,62.6584,0.293426,
2,0,0,1,0,3140.38,0.286254,0.285951,-1.0274,2,0.0194309,10,-0.000293786,-2.98826,-0.0909353,-0.648813,25.9408,0.285951,
2,0,0,1,0,3140.5,0.278761,0.278466,-1.18237,2,0.0192897,10,-0.00032925,-2.92725,-0.155138,-0.380307,17.6982,0.278466,
2,0,0,1,0,3140.63,0.271272,0.270961,-1.30462,2,0.0191314,10,-0.000353501,-2.88452,-0.203031,-0.290596,14.8055,0.2709609,
2,0,0,1,0,3140.75,0.263778,0.263503,-1.41545,2,0.0189592,10,-0.000372975,-2.84911,-0.272634,-0.216407,11.8523,0.2635031,
2,0,0,1,0,3140.88,0.25629,0.255952,-1.49848,2,0.0187758,10,-0.00038354,-2.82435,-0.342339,-0.172344,10.0144,0.2559523,
2,0,0,1,0,3141,0.248797,0.248476,-1.56712,2,0.0185822,10,-0.000389392,-2.8049,-0.343587,-0.171718,10.5543,0.248476,
2,0,0,1,0,3141.13,0.241308,0.240984,-1.63987,2,0.0183793,10,-0.000395183,-2.78519,-0.486042,-0.121389,7.80318,0.240984,
2,0,0,1,0,3141.25,0.233814,0.233492,-1.71701,2,0.0181674,10,-0.000400908,-2.76523,-0.443382,-0.133068,8.89101,0.233492,
2,0,0,1,0,3141.38,0.226326,0.226025,-1.78718,2,0.017947,10,-0.000403948,-2.74783,-0.360345,-0.163732,11.3815,0.226025,
2,0,0,1,0,3141.5,0.218834,0.21856,-1.84912,2,0.0177177,10,-0.000404144,-2.73303,-0.363369,-0.162369,11.7685,0.21856,
2,0,0,1,0,3141.63,0.211344,0.211029,-1.92493,2,0.0174799,10,-0.000406216,-2.71559,-0.647644,-0.0910994,6.84614,0.211029,
2,0,0,1,0,3141.75,0.203856,0.203507,-2.00579,2,0.0172322,10,-0.000408192,-2.69772,-0.704351,-0.0837651,6.55565,0.203507,
2,0,0,1,0,3141.88,0.196362,0.19606,-2.09898,2,0.0169742,10,-0.000411525,-2.67799,-0.361269,-0.163313,13.3411,0.19606,
2,0,0,1,0,3142,0.18887,0.188561,-2.19998,2,0.0167035,10,-0.00041483,-2.65758,-0.280363,-0.210441,18.1277,0.188561,
2,0,0,1,0,3142.13,0.18138,0.1811,-2.34083,2,0.0164179,10,-0.000423926,-2.63063,-0.269122,-0.219231,20.0875,0.1811,
2,0,0,1,0,3142.25,0.173892,0.173594,-2.53141,2,0.0161123,10,-0.000439437,-2.59664,-0.205912,-0.28653,28.2874,0.173594,
2,0,0,1,0,3142.37,0.166398,0.166116,-2.80204,2,0.0157786,10,-0.000465465,-2.55253,-0.161084,-0.366268,40.0115,0.166116,
2,0,0,1,0,3142.5,0.158905,0.158624,-3.19325,2,0.0154038,10,-0.000506526,-2.49577,-0.108381,-0.544378,68.1314,0.158624,
2,0,0,1,0,3142.62,0.151417,0.151121,-3.82298,2,0.0149658,10,-0.000577731,-2.4176,-0.0868884,-0.679032,101.742,0.151121,
2,0,0,1,0,3142.75,0.143927,0.14363,-4.7547,2,0.0144308,10,-0.000682917,-2.32288,-0.0771002,-0.765238,142.015,0.14363,
2,0,0,1,0,3142.87,0.136435,0.136126,-5.87417,2,0.0137654,10,-0.000799628,-2.23105,-0.0912854,-0.646325,147.492,0.136126,
2,0,0,1,0,3143,0.128941,0.128629,-6.88738,2,0.0129645,10,-0.000885916,-2.16195,-0.132676,-0.444694,119.263,0.128629,
2,0,0,1,0,3143.12,0.121453,0.121167,-7.5582,2,0.0120564,10,-0.000915808,-2.12158,-0.275566,-0.214105,63.1181,0.1211675,
2,0,0,1,0,3143.25,0.113963,0.113642,-7.85412,2,0.0110879,10,-0.000892555,-2.1049,-2.09866,-0.0281132,8.60712,0.113642,
2,0,0,1,0,3143.37,0.106471,0.106157,-7.78253,2,0.0101058,10,-0.000826173,-2.10888,0.602947,0.0978528,-29.6951,0.106157,
2,0,0,1,0,3143.5,0.0989825,0.0986989,-7.41892,2,0.00915205,10,-0.00073224,-2.12966,0.278421,0.211909,-61.3013,0.0986989,
2,0,0,1,0,3143.62,0.0914889,0.0911697,-6.90073,2,0.0082546,10,-0.000629138,-2.1611,0.233478,0.2527,-68.1084,0.0911697,
2,0,0,1,0,3143.75,0.0839993,0.0836989,-6.42235,2,0.0074222,10,-0.000537544,-2.19231,0.248362,0.237556,-59.5336,0.0836989,
2,0,0,1,0,3143.87,0.076507,0.0761746,-6.08018,2,0.00664103,10,-0.000463155,-2.21608,0.351598,0.167805,-39.7986,0.0761746,
2,0,0,1,0,3144,0.0690187,0.0686901,-5.8272,2,0.0058967,10,-0.000400272,-2.23454,0.469793,0.125587,-28.5836,0.0686901,
2,0,0,1,0,3144.12,0.0615251,0.0611854,-5.61432,2,0.00517923,10,-0.000343514,-2.2507,0.479002,0.123173,-27.0585,0.0611854,
2,0,0,1,0,3144.25,0.0540355,0.0537238,-5.40723,2,0.00448853,10,-0.000290497,-2.26702,0.440939,0.133806,-28.2382,0.05372376,
2,0,0,1,0,3144.37,0.0465432,0.0462126,-5.17182,2,0.0038251,10,-0.000239003,-2.28636,0.337593,0.174767,-35.2356,0.0462126,
2,0,0,1,0,3144.5,0.0390549,0.03871,-4.89454,2,0.00319503,10,-0.000189468,-2.31029,0.289864,0.203543,-38.7864,0.03871,
2,0,0,1,0,3144.62,0.0315613,0.0312451,-4.58389,2,0.00260119,10,-0.000143224,-2.33877,0.272828,0.216254,-38.7368,0.0312451,
2,0,0,1,0,3144.75,0.0240717,0.0237394,-4.31967,2,0.00204347,10,-0.000102546,-2.36455,0.311154,0.189617,-32.0668,0.0237394,
2,0,0,1,0,3144.87,0.0165781,0.0162548,-4.14039,2,0.00151348,10,-6.73011e-05,-2.38296,0.44872,0.131485,-21.258,0.0162548,
2,0,0,1,0,3145,0.00909108,0.00872935,-4.03086,2,0.00100249,10,-3.51868e-05,-2.3946,1.41027,0.0418361,-6.57644,0.008729348,
2,0,0,1,0,3145.12,0.00159616,0.00125273,-4.02598,2,0.000500098,10,-5.04348e-06,-2.39513, , , ,0.00125273,
2,0,0,1,0,3145.14,0.000199195,-0.000143994,-3.99426,2,0.000406196,10,5.7515e-07,-2.39856, , , ,-0.000143994,