Folder: Figs_alphaMnO2_OER_Tafel_sleope/Figure_codes/Fig_3-5/rawdata_trumpetplot_data/after 10th (part 137)

File: 20221101_1-115_003_TrumpetPlot_ParaChange_from10_every3_09_CV_C01_30.csv
mode,ox/red,error,control changes,counter inc.,time/s,control/V,Ewe/V,<I>/mA,cycle number,(Q-Qo)/C,I Range,P/W,log(|I|),Tafel slope mV/dec,alpha_eff,dI/d(E-IR),E-IR/V,
2,0,0,0,0,60286.4,2.44065e-05,-0.000516197,-5.29514,31,0.0000000E+000,10,2.73333e-06,-2.27612, , , ,-0.000516197,
2,1,0,1,0,60286.5,0.00978761,0.00943003,0.476974,31,-0.000161723,10,4.49788e-06,-3.32151,0.00516597,11.4209,289.416,0.00943003,
2,1,0,1,0,60286.6,0.0197755,0.019413,2.39371,31,-4.67618e-06,10,4.64692e-05,-2.62093,0.0431026,1.36883,126.873,0.019413,
2,1,0,1,0,60286.7,0.0297635,0.0294474,3.38967,31,0.000289091,10,9.98172e-05,-2.46984,0.101976,0.578565,76.2045,0.0294474,
2,1,0,1,0,60286.8,0.0397514,0.0393929,4.05034,31,0.000662878,10,0.000159555,-2.39251,0.149519,0.394599,62.3972,0.0393929,
2,1,0,1,0,60286.9,0.0497484,0.0493902,4.60955,31,0.00109663,10,0.000227667,-2.33634,0.207358,0.284532,51.0656,0.0493902,
2,1,0,1,0,60287,0.0597273,0.0593794,5.08977,31,0.00158132,10,0.000302227,-2.2933,0.244442,0.241366,47.9153,0.0593794,
2,1,0,1,0,60287.1,0.0697152,0.0693998,5.52737,31,0.00211297,10,0.000383599,-2.25748,0.326298,0.180816,39.0344,0.0693998,
2,1,0,1,0,60287.2,0.0797031,0.0793638,5.9227,31,0.00268624,10,0.000470048,-2.22748,0.378656,0.155814,36.0166,0.0793638,
2,1,0,1,0,60287.3,0.0896911,0.0893444,6.25548,31,0.00329574,10,0.000558892,-2.20374,0.437622,0.134819,32.9412,0.08934439,
2,1,0,1,0,60287.4,0.099679,0.0993486,6.60477,31,0.00393764,10,0.000656175,-2.18014,0.385701,0.152968,39.418,0.0993486,
2,1,0,1,0,60287.5,0.109667,0.109314,7.0705,31,0.00461976,10,0.000772901,-2.15055,0.29136,0.202499,55.911,0.109314,
2,1,0,1,0,60287.6,0.119655,0.119275,7.68811,31,0.00535712,10,0.000916996,-2.11418,0.297002,0.198652,59.613,0.119275,
2,1,0,1,0,60287.7,0.129643,0.129263,8.25659,31,0.00615511,10,0.00106727,-2.0832,0.375651,0.157061,50.5771,0.129263,
2,1,0,1,0,60287.8,0.139631,0.139242,8.64322,31,0.00700175,10,0.0012035,-2.06332,0.688099,0.0857435,28.9349,0.139242,
2,1,0,1,0,60287.9,0.149619,0.149267,8.76305,31,0.00787442,10,0.00130803,-2.05734,-1.43419,-0.0411383,-14.0373,0.149267,
2,1,0,1,0,60288,0.159607,0.159262,8.20571,31,0.00872906,10,0.00130685,-2.08588,-0.195306,-0.30209,-96.5712,0.159262,
2,1,0,1,0,60288.1,0.169595,0.169252,6.99855,31,0.00949124,10,0.00118452,-2.15499,-0.125365,-0.470625,-128.508,0.1692522,
2,1,0,1,0,60288.2,0.179582,0.17926,5.85909,31,0.0101308,10,0.0010503,-2.23217,-0.14358,-0.410921,-94.1038,0.1792603,
2,1,0,1,0,60288.3,0.18957,0.189208,5.10022,31,0.0106758,10,0.000965003,-2.29241,-0.198177,-0.297713,-59.3456,0.189208,
2,1,0,1,0,60288.4,0.199558,0.19922,4.62509,31,0.0111596,10,0.00092141,-2.33488,-0.289649,-0.203695,-36.7675,0.19922,
2,1,0,1,0,60288.5,0.209546,0.209182,4.31452,31,0.0116052,10,0.000902518,-2.36507,-0.357243,-0.165154,-27.8323,0.209182,
2,1,0,1,0,60288.6,0.219534,0.219171,4.10415,31,0.0120253,10,0.000899508,-2.38678,-0.588498,-0.100255,-16.0554,0.219171,
2,1,0,1,0,60288.7,0.229522,0.229164,3.95532,31,0.012428,10,0.000906416,-2.40282,-0.708268,-0.0833018,-12.8751,0.229164,
2,1,0,1,0,60288.8,0.23951,0.239194,3.85616,31,0.0128186,10,0.000922373,-2.41384,-1.21632,-0.048507,-7.30352,0.239194,
2,1,0,1,0,60288.9,0.249498,0.249118,3.77999,31,0.0131998,10,0.000941663,-2.42251,-1.33405,-0.0442261,-6.52482,0.249118,
2,1,0,1,0,60289,0.259486,0.259189,3.72093,31,0.0135746,10,0.000964426,-2.42935,-1.26184,-0.0467572,-6.78687,0.259189,
2,1,0,1,0,60289.1,0.269474,0.269169,3.6665,31,0.0139436,10,0.000986908,-2.43575,-1.55636,-0.0379089,-5.42359,0.2691693,
2,1,0,1,0,60289.2,0.279462,0.279116,3.61604,31,0.0143078,10,0.00100929,-2.44177,-1.85919,-0.0317343,-4.48449,0.279116,
2,1,0,1,0,60289.3,0.28945,0.289104,3.57377,31,0.0146673,10,0.00103319,-2.44687,-2.60071,-0.0226861,-3.16389,0.289104,
2,1,0,1,0,60289.4,0.299438,0.299146,3.53116,31,0.0150222,10,0.00105633,-2.45208,-0.0426809,-1.38235,-179.601,0.299146,
2,0,0,1,0,60289.5,0.291747,0.291372,-0.2815,31,0.0151261,10,-8.20212e-05,-3.55052,-0.00638636,-9.23843,186.279,0.291372,
2,0,0,1,0,60289.6,0.281759,0.281364,-1.34839,31,0.0150353,10,-0.000379388,-2.87019,-0.0484883,-1.21679,63.4382,0.281364,
2,0,0,1,0,60289.7,0.271771,0.2714,-1.80873,31,0.0148756,10,-0.00049089,-2.74263,-0.115459,-0.511004,35.9557,0.2714,
2,0,0,1,0,60289.8,0.261783,0.261395,-2.09253,31,0.0146801,10,-0.000546978,-2.67933,-0.214744,-0.274745,22.3847,0.261395,
2,0,0,1,0,60289.9,0.251795,0.25144,-2.2948,31,0.0144608,10,-0.000577006,-2.63925,-0.286483,-0.205946,18.4457,0.25144,
2,0,0,1,0,60290,0.241807,0.241452,-2.45796,31,0.0142231,10,-0.00059348,-2.60943,-0.369636,-0.159616,15.34,0.241452,
2,0,0,1,0,60290.1,0.231815,0.231491,-2.60709,31,0.0139701,10,-0.000603517,-2.58384,-0.423303,-0.13938,14.1728,0.231491,
2,0,0,1,0,60290.2,0.221831,0.22148,-2.73278,31,0.0137037,10,-0.000605257,-2.56339,-0.497405,-0.118616,12.6463,0.22148,
2,0,0,1,0,60290.3,0.211843,0.211487,-2.85271,31,0.0134246,10,-0.000603311,-2.54474,-0.605429,-0.0974515,10.8549,0.211487,
2,0,0,1,0,60290.4,0.201856,0.201477,-2.97335,31,0.0131335,10,-0.000599063,-2.52675,-0.59237,-0.0995999,11.5647,0.201477,
2,0,0,1,0,60290.5,0.191868,0.1915,-3.09592,31,0.0128304,10,-0.000592869,-2.50921,-0.544991,-0.108259,13.0991,0.1915,
2,0,0,1,0,60290.6,0.18188,0.181549,-3.2351,31,0.0125148,10,-0.000587329,-2.49011,-0.468883,-0.125831,15.8721,0.181549,
2,0,0,1,0,60290.7,0.171892,0.171532,-3.39223,31,0.0121845,10,-0.000581875,-2.46951,-0.468793,-0.125855,16.6408,0.171532,
2,0,0,1,0,60290.8,0.161904,0.161528,-3.5901,31,0.0118367,10,-0.000579901,-2.44489,-0.360886,-0.163487,22.9049,0.161528,
2,0,0,1,0,60290.9,0.151916,0.151594,-3.88036,31,0.0114647,10,-0.000588238,-2.41113,-0.245295,-0.240527,36.4985,0.151594,
2,0,0,1,0,60291,0.141928,0.141547,-4.38644,31,0.011054,10,-0.000620888,-2.35789,-0.145969,-0.404195,69.3561,0.141547,
2,0,0,1,0,60291.1,0.13194,0.131606,-5.26661,31,0.0105755,10,-0.000693118,-2.27847,-0.116641,-0.505826,104.072,0.131606,
2,0,0,1,0,60291.2,0.121952,0.121581,-6.39975,31,0.00999356,10,-0.000778086,-2.19384,-0.131262,-0.449484,112.156,0.121581,
2,0,0,1,0,60291.3,0.111964,0.111579,-7.45122,31,0.00930043,10,-0.0008314,-2.12777,-0.177976,-0.331506,96.3152,0.111579,
2,0,0,1,0,60291.4,0.101976,0.101591,-8.27113,31,0.00851277,10,-0.000840269,-2.08244,-0.296682,-0.198866,64.1101,0.101591,
2,0,0,1,0,60291.5,0.0919883,0.0916399,-8.71906,31,0.00766074,10,-0.000799013,-2.05953,-0.791309,-0.07456,25.3608,0.0916399,
2,0,0,1,0,60291.6,0.0820004,0.0816651,-8.75958,31,0.00678549,10,-0.000715352,-2.05752,1.69527,0.0348027,-11.8874,0.0816651,
2,0,0,1,0,60291.7,0.0720124,0.0716677,-8.56169,31,0.00591985,10,-0.000613597,-2.06744,0.864945,0.0682124,-22.7949,0.0716677,
2,0,0,1,0,60291.8,0.0620245,0.0616811,-8.35231,31,0.0050756,10,-0.000515179,-2.07819,0.953205,0.0618965,-20.1782,0.0616811,
2,0,0,1,0,60291.9,0.0520366,0.0516586,-8.17219,31,0.0042503,10,-0.000422164,-2.08766,0.946025,0.0623662,-19.8827,0.0516586,
2,0,0,1,0,60292,0.0420486,0.0417195,-7.96353,31,0.00344406,10,-0.000332234,-2.09889,0.880506,0.0670069,-20.8343,0.04171947,
2,0,0,1,0,60292.1,0.0320607,0.0317293,-7.72436,31,0.0026608,10,-0.000245089,-2.11214,0.64752,0.0911169,-27.4574,0.0317293,
2,0,0,1,0,60292.2,0.0220728,0.0217483,-7.41971,31,0.00190416,10,-0.000161366,-2.12961,0.519913,0.11348,-32.8462,0.0217483,
2,0,0,1,0,60292.3,0.0120848,0.0117138,-7.0784,31,0.0011801,10,-8.29149e-05,-2.15006,0.451758,0.130601,-36.0944,0.0117138,
2,0,0,1,0,60292.4,0.0020969,0.00167668,-6.81042,31,0.000488632,10,-1.14189e-05,-2.16683,0.764602,0.0771643,-20.4424,0.00167668,
2,0,0,1,0,60292.5,-0.00789103,-0.00830424,-6.57205,31,-0.00017831,10,5.45759e-05,-2.1823,0.995889,0.0592436,-15.2163,-0.00830424,
2,0,0,1,0,60292.6,-0.017879,-0.0182803,-6.47932,31,-0.000828634,10,0.000118444,-2.18847,3.74275,0.0157638,-3.9846,-0.0182803,
2,0,0,1,0,60292.7,-0.0278669,-0.0282553,-6.48139,31,-0.00147522,10,0.000183134,-2.18833,-2.76251,-0.0213574,5.41001,-0.0282553,
2,0,0,1,0,60292.8,-0.0378549,-0.0382655,-6.5855,31,-0.00212724,10,0.000251998,-2.18141,-1.17921,-0.0500333,12.8535,-0.0382655,
2,0,0,1,0,60292.9,-0.0478428,-0.0482354,-6.74468,31,-0.00279244,10,0.000325332,-2.17104,-0.70298,-0.0839285,22.1029,-0.0482354,
2,0,0,1,0,60293,-0.0578216,-0.0582302,-6.96776,31,-0.00347625,10,0.000405734,-2.15691,-0.670218,-0.0880311,23.9336,-0.0582302,
2,0,0,1,0,60293.1,-0.0678187,-0.0681795,-7.24606,31,-0.00418572,10,0.000494033,-2.1399,-0.53085,-0.111142,31.4211,-0.0681795,
2,0,0,1,0,60293.2,-0.0778066,-0.0782185,-7.58041,31,-0.00492592,10,0.000592928,-2.12031,-0.493594,-0.119531,35.3804,-0.0782185,
2,0,0,1,0,60293.3,-0.0877945,-0.088193,-7.98087,31,-0.00570288,10,0.000703857,-2.09795,-0.423929,-0.139174,43.3701,-0.088193,
2,0,0,1,0,60293.4,-0.0977825,-0.0981674,-8.4181,31,-0.00652223,10,0.000826383,-2.07479,-0.431785,-0.136642,44.9057,-0.09816739,
2,0,0,1,1,60293.5,-0.0927386,-0.0931392,-3.15194,31,-0.00709339,10,0.000293569,-2.50142,-0.0156521,-3.76947,461.701,-0.0931392,
2,1,0,1,1,60293.6,-0.0827529,-0.083114,0.152872,31,-0.00722563,10,-1.27058e-05,-3.81567,0.0177651,3.32112,242.68,-0.083114,
2,1,0,1,1,60293.7,-0.0727627,-0.0731858,2.06291,31,-0.00710708,10,-0.000150975,-2.68552,0.0315487,1.87013,148.322,-0.0731858,
2,1,0,1,1,60293.8,-0.0627748,-0.0631938,3.27282,31,-0.00683575,10,-0.000206822,-2.48508,0.077229,0.763962,97.2891,-0.0631938,
2,1,0,1,1,60293.9,-0.0527868,-0.0531308,4.05447,31,-0.00646624,10,-0.000215417,-2.39207,0.149581,0.394434,62.3085,-0.0531308,
2,1,0,1,1,60294,-0.0427989,-0.0431477,4.55127,31,-0.00603391,10,-0.000196377,-2.34187,0.262388,0.224858,39.9526,-0.0431477,
2,1,0,1,1,60294.1,-0.0328109,-0.0331811,4.85717,31,-0.0055627,10,-0.000161166,-2.31362,0.477747,0.123496,23.3986,-0.03318112,
2,1,0,1,1,60294.2,-0.022823,-0.0232264,5.01848,31,-0.00506838,10,-0.000116561,-2.29943,1.07073,0.0551027,10.7896,-0.0232264,
2,1,0,1,1,60294.3,-0.0128351,-0.0131659,5.09097,31,-0.00456262,10,-6.70271e-05,-2.2932,4.77812,0.012348,2.45345,-0.0131659,
2,1,0,1,1,60294.4,-0.00284713,-0.00322743,5.11583,31,-0.00405224,10,-1.6511e-05,-2.29108,-17.2603,-0.00341824,-0.682174,-0.00322743,
2,1,0,1,1,60294.4,-2.55332e-05,-0.000287149,5.1237,31,-0.00390843,10,-1.47126e-06,-2.29042, , , ,-0.0002871489,

File: 20221101_1-115_003_TrumpetPlot_ParaChange_from10_every3_09_CV_C01_31.csv
mode,ox/red,error,control changes,counter inc.,time/s,control/V,Ewe/V,<I>/mA,cycle number,(Q-Qo)/C,I Range,P/W,log(|I|),Tafel slope mV/dec,alpha_eff,dI/d(E-IR),E-IR/V,
2,0,0,0,0,62256.6,2.44065e-05,-0.000458935,-5.2627,32,0.0000000E+000,10,2.41524e-06,-2.27879, , , ,-0.000458935,
2,1,0,1,0,62256.7,0.00978761,0.00941008,0.410891,32,-0.00016532,10,3.86652e-06,-3.38627,0.00636485,9.26966,289.555,0.00941008,
2,1,0,1,0,62256.8,0.0197755,0.0193674,2.31638,32,-1.59427e-05,10,4.48622e-05,-2.63519,0.0414472,1.4235,127.334,0.0193674,
2,1,0,1,0,62256.9,0.0297635,0.0294648,3.29832,32,0.000269287,10,9.71844e-05,-2.48171,0.0975858,0.604596,77.6319,0.0294648,
2,1,0,1,0,62257,0.0397514,0.039412,3.96144,32,0.000634092,10,0.000156128,-2.40215,0.148069,0.398464,61.668,0.039412,
2,1,0,1,0,62257.1,0.0497484,0.0494193,4.51398,32,0.00105845,10,0.000223077,-2.34544,0.202754,0.290993,51.1486,0.0494193,
2,1,0,1,0,62257.2,0.0597273,0.0594015,4.99318,32,0.00153327,10,0.000296602,-2.30162,0.240771,0.245046,47.7022,0.0594015,
2,1,0,1,0,62257.3,0.0697152,0.0693899,5.42801,32,0.00205464,10,0.000376649,-2.26536,0.306342,0.192595,40.8164,0.06938985,
2,1,0,1,0,62257.4,0.0797031,0.0793855,5.82187,32,0.00261739,10,0.000462172,-2.23494,0.372375,0.158442,35.9989,0.0793855,
2,1,0,1,0,62257.5,0.0896911,0.0893697,6.15361,32,0.00321638,10,0.000549946,-2.21087,0.446975,0.131999,31.721,0.0893697,
2,1,0,1,0,62257.6,0.099679,0.0993304,6.50069,32,0.00384772,10,0.000645716,-2.18704,0.398677,0.147989,37.5209,0.0993304,
2,1,0,1,0,62257.7,0.109667,0.109327,6.95802,32,0.00451867,10,0.000760696,-2.15751,0.294566,0.200294,54.4265,0.109327,
2,1,0,1,0,62257.8,0.119655,0.119312,7.56681,32,0.00524365,10,0.00090281,-2.12109,0.289334,0.203917,60.193,0.119312,
2,1,0,1,0,62257.9,0.129643,0.129306,8.13088,32,0.00602882,10,0.00105137,-2.08986,0.369642,0.159614,50.6142,0.129306,
2,1,0,1,0,62258,0.139631,0.139267,8.51738,32,0.0068626,10,0.00118619,-2.06969,0.656426,0.0898807,29.8858,0.139267,
2,1,0,1,0,62258.1,0.149619,0.149238,8.64686,32,0.00772276,10,0.00129044,-2.06314,-1.75955,-0.0335314,-11.2905,0.149238,
2,1,0,1,0,62258.2,0.159607,0.159237,8.12429,32,0.00856717,10,0.00129369,-2.09021,-0.196349,-0.300486,-95.1437,0.159237,
2,1,0,1,0,62258.3,0.169595,0.16926,6.948,32,0.00932272,10,0.00117602,-2.15814,-0.126999,-0.46457,-125.846,0.16926,
2,1,0,1,0,62258.4,0.179582,0.179245,5.81473,32,0.00995723,10,0.00104226,-2.23547,-0.142658,-0.413575,-93.954,0.179245,
2,1,0,1,0,62258.5,0.18957,0.189219,5.05433,32,0.0104973,10,0.000956374,-2.29634,-0.196684,-0.299974,-59.2274,0.189219,
2,1,0,1,0,62258.6,0.199558,0.19918,4.5837,32,0.0109766,10,0.000912983,-2.33878,-0.291466,-0.202425,-36.2115,0.19918,
2,1,0,1,0,62258.7,0.209546,0.209192,4.28532,32,0.0114184,10,0.000896453,-2.36802,-0.3756,-0.157082,-26.2817,0.209192,
2,1,0,1,0,62258.8,0.219534,0.219232,4.08028,32,0.0118355,10,0.000894526,-2.38931,-0.564922,-0.104439,-16.6437,0.219232,
2,1,0,1,0,62258.9,0.229522,0.229219,3.93715,32,0.012236,10,0.000902471,-2.40482,-0.7066,-0.0834984,-12.8458,0.2292192,
2,1,0,1,0,62259,0.23951,0.23913,3.84131,32,0.0126246,10,0.000918572,-2.41552,-1.23096,-0.0479299,-7.18885,0.23913,
2,1,0,1,0,62259.1,0.249498,0.249153,3.76811,32,0.0130043,10,0.000938838,-2.42388,-1.51696,-0.0388935,-5.71958,0.249153,
2,1,0,1,0,62259.2,0.259486,0.259115,3.71023,32,0.0133776,10,0.000961378,-2.4306,-1.10392,-0.0534457,-7.73085,0.259115,
2,1,0,1,0,62259.3,0.269474,0.269098,3.65077,32,0.0137454,10,0.000982416,-2.43762,-1.96931,-0.0299597,-4.27198,0.269098,
2,1,0,1,0,62259.4,0.279462,0.279118,3.60967,32,0.0141085,10,0.00100752,-2.44253,-1.653,-0.0356928,-5.03102,0.279118,
2,1,0,1,0,62259.5,0.28945,0.289138,3.5638,32,0.014467,10,0.00103043,-2.44809,-2.43322,-0.0242477,-3.37293,0.289138,
2,1,0,1,0,62259.6,0.299438,0.299102,3.52317,32,0.0148209,10,0.00105379,-2.45307,-0.0435906,-1.3535,-175.523,0.2991024,
2,0,0,1,0,62259.6,0.291747,0.291412,-0.228578,32,0.0149276,10,-6.66103e-05,-3.64097,-0.00869144,-6.78829,186.203,0.291412,
2,0,0,1,0,62259.7,0.281759,0.281386,-1.29761,32,0.0148418,10,-0.00036513,-2.88685,-0.0467773,-1.26129,63.1033,0.281386,
2,0,0,1,0,62259.8,0.271771,0.2714,-1.75823,32,0.0146869,10,-0.000477184,-2.75492,-0.11117,-0.530717,36.3168,0.2714,
2,0,0,1,0,62259.9,0.261783,0.261421,-2.04408,32,0.014496,10,-0.000534364,-2.6895,-0.194771,-0.30292,24.1353,0.261421,
2,0,0,1,0,62260,0.251795,0.251472,-2.25368,32,0.014281,10,-0.000566739,-2.64711,-0.305387,-0.193197,16.9969,0.251472,
2,0,0,1,0,62260.1,0.241807,0.241455,-2.41659,32,0.0140473,10,-0.000583497,-2.6168,-0.339563,-0.173753,16.4186,0.241455,
2,0,0,1,0,62260.2,0.231815,0.231447,-2.56921,32,0.0137981,10,-0.000594636,-2.5902,-0.391119,-0.150849,15.1115,0.2314472,
2,0,0,1,0,62260.3,0.221831,0.221497,-2.6987,32,0.0135355,10,-0.000597756,-2.56884,-0.520814,-0.113284,11.9121,0.221497,
2,0,0,1,0,62260.4,0.211843,0.211549,-2.81795,32,0.0132601,10,-0.000596135,-2.55007,-0.597487,-0.0987469,10.8619,0.211549,
2,0,0,1,0,62260.5,0.201856,0.201475,-2.94005,32,0.0129725,10,-0.000592348,-2.53165,-0.553856,-0.106526,12.2151,0.201475,
2,0,0,1,0,62260.6,0.191868,0.191493,-3.06288,32,0.0126728,10,-0.00058652,-2.51387,-0.583692,-0.101081,12.0897,0.191493,
2,0,0,1,0,62260.7,0.18188,0.181525,-3.20248,32,0.0123608,10,-0.000581329,-2.49451,-0.440407,-0.133967,16.71,0.181525,
2,0,0,1,0,62260.8,0.171892,0.171546,-3.3534,32,0.012034,10,-0.000575261,-2.47451,-0.464301,-0.127073,16.6141,0.171546,
2,0,0,1,0,62260.9,0.161904,0.161558,-3.54977,32,0.0116899,10,-0.000573494,-2.4498,-0.362223,-0.162883,22.564,0.161558,
2,0,0,1,0,62261,0.151916,0.151568,-3.8379,32,0.011322,10,-0.000581704,-2.41591,-0.234025,-0.25211,37.8199,0.151568,
2,0,0,1,0,62261.1,0.141928,0.141566,-4.33621,32,0.0109162,10,-0.000613858,-2.36289,-0.142602,-0.41374,70.0663,0.141566,
2,0,0,1,0,62261.2,0.13194,0.13159,-5.19583,32,0.010444,10,-0.000683721,-2.28435,-0.115545,-0.510625,103.541,0.13159,
2,0,0,1,0,62261.3,0.121952,0.121621,-6.29791,32,0.00987058,10,-0.000765958,-2.2008,-0.130673,-0.45151,110.903,0.121621,
2,0,0,1,0,62261.4,0.111964,0.111645,-7.32607,32,0.00918842,10,-0.000817922,-2.13513,-0.177767,-0.331894,94.8595,0.111645,
2,0,0,1,0,62261.5,0.101976,0.10161,-8.13684,32,0.00841334,10,-0.000826784,-2.08954,-0.298071,-0.197939,62.7707,0.10161,
2,0,0,1,0,62261.6,0.0919883,0.0916282,-8.58676,32,0.00757467,10,-0.00078679,-2.06617,-0.770022,-0.0766212,25.6552,0.0916282,
2,0,0,1,0,62261.7,0.0820004,0.0816447,-8.63353,32,0.0067123,10,-0.000704882,-2.06381,1.76584,0.0334118,-11.2464,0.0816447,
2,0,0,1,0,62261.8,0.0720124,0.0716798,-8.44252,32,0.00585864,10,-0.000605159,-2.07353,0.88107,0.066964,-22.0767,0.0716798,
2,0,0,1,0,62261.9,0.0620245,0.0616354,-8.24746,32,0.00502535,10,-0.000508336,-2.08368,1.04135,0.056657,-18.239,0.0616354,
2,0,0,1,0,62262,0.0520366,0.0516659,-8.07397,32,0.00421017,10,-0.000417149,-2.09291,0.998633,0.0590808,-18.6008,0.0516659,
2,0,0,1,0,62262.1,0.0420486,0.0416987,-7.87051,32,0.00341343,10,-0.00032819,-2.104,0.926808,0.0636593,-19.5668,0.04169872,
2,0,0,1,0,62262.2,0.0320607,0.0316679,-7.63972,32,0.00263878,10,-0.000241934,-2.11692,0.635386,0.092857,-27.6715,0.0316679,
2,0,0,1,0,62262.3,0.0220728,0.021711,-7.34326,32,0.00189008,10,-0.000159429,-2.13411,0.543267,0.108602,-31.1133,0.021711,
2,0,0,1,0,62262.4,0.0120848,0.0117188,-7.01495,32,0.00117286,10,-8.22066e-05,-2.15398,0.472864,0.124772,-34.1761,0.0117188,
2,0,0,1,0,62262.5,0.0020969,0.00169446,-6.75553,32,0.000487236,10,-1.1447e-05,-2.17034,0.793145,0.0743874,-19.5481,0.00169446,
2,0,0,1,0,62262.6,-0.00789103,-0.00828723,-6.52031,32,-0.000174829,10,5.40353e-05,-2.18573,1.05505,0.0559213,-14.255,-0.00828723,
2,0,0,1,0,62262.7,-0.017879,-0.0182994,-6.43835,32,-0.000820984,10,0.000117818,-2.19123,5.66036,0.0104234,-2.61834,-0.0182994,
2,0,0,1,0,62262.8,-0.0278669,-0.0282527,-6.4491,32,-0.00146391,10,0.000182204,-2.1905,-2.74937,-0.0214595,5.4025,-0.0282527,
2,0,0,1,0,62262.9,-0.0378548,-0.0382846,-6.54578,32,-0.00211256,10,0.000250603,-2.18404,-1.21635,-0.0485058,12.3903,-0.0382846,
2,0,0,1,0,62263,-0.0478428,-0.0482579,-6.70482,32,-0.00277452,10,0.000323561,-2.17361,-0.685821,-0.0860283,22.5418,-0.0482579,
2,0,0,1,0,62263.1,-0.0578216,-0.0582467,-6.93127,32,-0.00345515,10,0.000403724,-2.15919,-0.630344,-0.0935996,25.3268,-0.0582467,
2,0,0,1,0,62263.2,-0.0678187,-0.0682148,-7.21237,32,-0.00416149,10,0.000491991,-2.14192,-0.538682,-0.109527,30.8251,-0.0682148,
2,0,0,1,0,62263.3,-0.0778066,-0.0782099,-7.54729,32,-0.00489876,10,0.000590273,-2.12221,-0.475298,-0.124133,36.5958,-0.0782099,
2,0,0,1,0,62263.4,-0.0877945,-0.0881768,-7.95896,32,-0.00567342,10,0.000701795,-2.09914,-0.411696,-0.143309,44.5257,-0.0881768,
2,0,0,1,0,62263.5,-0.0977825,-0.0982051,-8.40625,32,-0.00649123,10,0.000825536,-2.0754,-0.428867,-0.137572,45.1456,-0.0982051,
2,0,0,1,1,62263.6,-0.0927386,-0.0931266,-3.24265,32,-0.00706623,10,0.000301977,-2.4891,-0.0164793,-3.58024,451.541,-0.09312661,
2,0,0,1,1,62263.7,-0.0827529,-0.08317,0.0265692,32,-0.00720941,10,-2.20976e-06,-4.57562,0.364132,0.162029,244.028,-0.08317,
2,1,0,1,1,62263.8,-0.0727627,-0.0731667,1.94064,32,-0.00710338,10,-0.00014199,-2.71205,0.0290632,2.03006,150.736,-0.0731667,
2,1,0,1,1,62263.9,-0.0627748,-0.0631643,3.15067,32,-0.00684435,10,-0.00019901,-2.5016,0.073521,0.802492,98.4663,-0.0631643,
2,1,0,1,1,62264,-0.0527868,-0.0531648,3.94941,32,-0.00648607,10,-0.00020997,-2.40347,0.146426,0.402934,61.9735,-0.0531648,
2,1,0,1,1,62264.1,-0.0427989,-0.0431846,4.45673,32,-0.00606385,10,-0.000192462,-2.35098,0.256801,0.22975,39.9439,-0.0431846,
2,1,0,1,1,62264.2,-0.0328109,-0.0331629,4.76908,32,-0.00560176,10,-0.000158156,-2.32157,0.465191,0.12683,23.6007,-0.0331629,
2,1,0,1,1,62264.3,-0.022823,-0.0231936,4.94258,32,-0.00511553,10,-0.000114636,-2.30605,1.00592,0.058653,11.3108,-0.0231936,
2,1,0,1,1,62264.4,-0.0128351,-0.0132145,5.01532,32,-0.00461727,10,-6.62748e-05,-2.2997,3.26225,0.0180857,3.54003,-0.0132145,
2,1,0,1,1,62264.5,-0.00284713,-0.00322203,5.0449,32,-0.004114,10,-1.62548e-05,-2.29715,22.0282,0.00267839,0.527326,-0.00322203,
2,1,0,1,1,62264.6,-2.55332e-05,-0.000382585,5.06328,32,-0.00397209,10,-1.93714e-06,-2.29557, , , ,-0.000382585,