Folder: Figs_alphaMnO2_OER_Tafel_sleope/Figure_codes/Fig_3-5/rawdata_trumpetplot_data/after 10th (part 104)

File: 20221101_1-115_003_TrumpetPlot_ParaChange_from10_every3_07_CV_C01_34.csv
mode,ox/red,error,control changes,counter inc.,time/s,control/V,Ewe/V,<I>/mA,cycle number,(Q-Qo)/C,I Range,P/W,log(|I|),Tafel slope mV/dec,alpha_eff,dI/d(E-IR),E-IR/V,
2,0,0,0,0,68149.5,2.44065e-05,-0.000363498,-2.66705,35,0.0000000E+000,10,9.6947e-07,-2.57397, , , ,-0.000363498,
2,1,0,1,0,68149.6,0.007288,0.00698085,0.889326,35,-3.93483e-05,10,6.20825e-06,-3.05094,0.00853738,6.91079,201.579,0.00698085,
2,1,0,1,0,68149.7,0.0147816,0.0144387,1.80904,35,0.000140122,10,2.61202e-05,-2.74255,0.052277,1.1286,78.9124,0.0144387,
2,1,0,1,0,68149.8,0.0222712,0.0219037,2.2311,35,0.000396807,10,4.88692e-05,-2.65148,0.113397,0.520296,45.1804,0.0219037,
2,1,0,1,0,68149.9,0.0297648,0.0294883,2.51725,35,0.000696134,10,7.42295e-05,-2.59907,0.187249,0.315088,30.9403,0.02948831,
2,1,0,1,0,68150.1,0.0372518,0.0368872,2.76184,35,0.00102754,10,0.000101876,-2.5588,0.201464,0.292856,31.5079,0.03688715,
2,1,0,1,0,68150.2,0.0447467,0.0444282,2.99508,35,0.00138888,10,0.000133066,-2.52359,0.218479,0.270048,31.504,0.0444282,
2,1,0,1,0,68150.3,0.052235,0.0518963,3.20862,35,0.00177816,10,0.000166515,-2.49368,0.236208,0.24978,31.3388,0.0518963,
2,1,0,1,0,68150.4,0.0597299,0.0594006,3.42942,35,0.00219514,10,0.000203709,-2.46478,0.284424,0.207437,27.7571,0.0594006,
2,1,0,1,0,68150.6,0.0672156,0.0668779,3.62856,35,0.0026375,10,0.000242671,-2.44027,0.360941,0.163462,23.1214,0.0668779,
2,1,0,1,0,68150.7,0.0747105,0.0744108,3.80761,35,0.003104,10,0.000283327,-2.41935,0.418778,0.140886,20.9079,0.0744108,
2,1,0,1,0,68150.8,0.0821988,0.0818714,3.95482,35,0.00359048,10,0.000323786,-2.40287,0.455704,0.12947,19.9831,0.0818714,
2,1,0,1,0,68150.9,0.0896937,0.0894137,4.08816,35,0.00409488,10,0.000365537,-2.38847,0.500897,0.117789,18.8244,0.0894137,
2,1,0,1,0,68151.1,0.0971794,0.0968713,4.25068,35,0.00461701,10,0.000411769,-2.37154,0.397912,0.148274,24.6049,0.0968713,
2,1,0,1,0,68151.2,0.104674,0.104343,4.50026,35,0.00516413,10,0.000469571,-2.34676,0.258511,0.22823,40.0424,0.104343,
2,1,0,1,0,68151.3,0.112163,0.111808,4.82995,35,0.00574728,10,0.000540027,-2.31606,0.236027,0.249972,47.076,0.111808,
2,1,0,1,0,68151.4,0.119657,0.119316,5.17442,35,0.00637404,10,0.000617393,-2.28614,0.286439,0.205977,41.5515,0.119316,
2,1,0,1,0,68151.6,0.127143,0.126828,5.42469,35,0.00703878,10,0.000688002,-2.26563,0.50625,0.116543,24.6765,0.126828,
2,1,0,1,0,68151.7,0.134638,0.13431,5.58227,35,0.00772921,10,0.000749754,-2.25319,1.09688,0.053789,11.7011,0.1343099,
2,1,0,1,0,68151.8,0.142126,0.141785,5.61712,35,0.0084314,10,0.000796426,-2.25049,-2.24915,-0.0262322,-5.7366,0.141785,
2,1,0,1,0,68151.9,0.149621,0.149269,5.37781,35,0.00912401,10,0.000802742,-2.26939,-0.217009,-0.271878,-56.8997,0.149269,
2,1,0,1,0,68152.1,0.157107,0.156791,4.75387,35,0.0097619,10,0.000745364,-2.32295,-0.107599,-0.548334,-101.629,0.156791,
2,1,0,1,0,68152.2,0.164602,0.164328,4.01438,35,0.0103105,10,0.000659676,-2.39638,-0.101765,-0.579765,-90.7694,0.164328,
2,1,0,1,0,68152.3,0.17209,0.171766,3.44779,35,0.0107756,10,0.000592214,-2.46246,-0.134716,-0.437959,-59.0321,0.171766,
2,1,0,1,0,68152.4,0.179585,0.179279,3.07919,35,0.0111836,10,0.000552034,-2.51156,-0.18407,-0.32053,-38.6274,0.179279,
2,1,0,1,0,68152.6,0.187072,0.186752,2.84556,35,0.0115544,10,0.000531415,-2.54583,-0.25581,-0.23064,-25.6288,0.1867525,
2,1,0,1,0,68152.7,0.194566,0.19424,2.69152,35,0.0119016,10,0.0005228,-2.57,-0.368671,-0.160034,-16.8209,0.19424,
2,1,0,1,0,68152.8,0.202055,0.201731,2.59325,35,0.0122328,10,0.000523139,-2.58616,-0.561709,-0.105037,-10.615,0.201731,
2,1,0,1,0,68152.9,0.209549,0.209246,2.52278,35,0.0125539,10,0.000527882,-2.59812,-0.695335,-0.0848511,-8.36343,0.2092464,
2,1,0,1,0,68153.1,0.217036,0.216731,2.4626,35,0.0128672,10,0.000533721,-2.60861,-0.864007,-0.0682865,-6.59191,0.216731,
2,1,0,1,0,68153.2,0.22453,0.224234,2.43265,35,0.0131755,10,0.000545483,-2.61392,-0.700118,-0.0842716,-8.00745,0.2242344,
2,1,0,1,0,68153.3,0.232019,0.231678,2.40831,35,0.0134792,10,0.000557953,-2.61829,-3.13982,-0.0187909,-1.76267,0.231678,
2,1,0,1,0,68153.4,0.239513,0.239217,2.38618,35,0.01378,10,0.000570813,-2.6223,-4.70641,-0.0125361,-1.16582,0.239217,
2,1,0,1,0,68153.6,0.247001,0.246704,2.36279,35,0.0140778,10,0.00058291,-2.62657,-1.94606,-0.0303177,-2.79609,0.246704,
2,1,0,1,0,68153.7,0.254493,0.254198,2.34232,35,0.0143736,10,0.000595413,-2.63035,-1.73664,-0.0339737,-3.11035,0.2541976,
2,1,0,1,0,68153.8,0.261983,0.261634,2.32888,35,0.0146669,10,0.000609315,-2.63285,-1.71956,-0.034311,-3.11809,0.261634,
2,1,0,1,0,68153.9,0.269477,0.269175,2.31086,35,0.0149584,10,0.000622026,-2.63623,-1.86916,-0.031565,-2.84422,0.269175,
2,1,0,1,0,68154.1,0.276965,0.276687,2.28837,35,0.0152477,10,0.000633161,-2.64047,-29.5298,-0.00199798,-0.179101,0.276687,
2,1,0,1,0,68154.2,0.284457,0.284162,2.27714,35,0.0155351,10,0.000647077,-2.64261,-3.80979,-0.0154864,-1.37665,0.284162,
2,1,0,1,0,68154.3,0.291947,0.291634,2.26021,35,0.0158201,10,0.000659153,-2.64585,-1.19683,-0.0492968,-4.34418,0.291634,
2,1,0,1,0,68154.4,0.29944,0.299098,2.24114,35,0.0161031,10,0.000670319,-2.64953,-0.00943881,-6.25079,-441.316,0.299098,
2,0,0,1,0,68154.6,0.293742,0.293422,-0.275378,35,0.0161755,10,-8.08019e-05,-3.56007,-0.00414795,-14.2239,134.574,0.293422,
2,0,0,1,0,68154.7,0.286254,0.285945,-0.807239,35,0.0160991,10,-0.000230826,-3.093,-0.0441598,-1.33606,41.8245,0.285945,
2,0,0,1,0,68154.8,0.278761,0.278417,-1.04216,35,0.0159797,10,-0.000290155,-2.98207,-0.108617,-0.543192,21.9989,0.278417,
2,0,0,1,0,68154.9,0.271272,0.270968,-1.19161,35,0.015838,10,-0.000322887,-2.92387,-0.148999,-0.395975,18.3144,0.270968,
2,0,0,1,0,68155.1,0.263778,0.263452,-1.29706,35,0.0156802,10,-0.000341713,-2.88704,-0.196523,-0.30022,15.2082,0.263452,
2,0,0,1,0,68155.2,0.25629,0.25598,-1.38572,35,0.0155102,10,-0.000354718,-2.85832,-0.28904,-0.204124,11.0543,0.2559804,
2,0,0,1,0,68155.3,0.248798,0.248484,-1.46673,35,0.0153295,10,-0.000364459,-2.83365,-0.456079,-0.129364,7.40207,0.248484,
2,0,0,1,0,68155.4,0.241308,0.241034,-1.53907,35,0.0151397,10,-0.000370967,-2.81274,-0.426093,-0.138467,8.31676,0.241034,
2,0,0,1,0,68155.6,0.233814,0.233435,-1.60459,35,0.0149413,10,-0.000374566,-2.79464,-0.362839,-0.162607,10.1695,0.233435,
2,0,0,1,0,68155.7,0.226326,0.226024,-1.66424,35,0.0147351,10,-0.000376158,-2.77878,-0.501938,-0.117544,7.64937,0.226024,
2,0,0,1,0,68155.8,0.218834,0.218511,-1.72596,35,0.0145211,10,-0.000377141,-2.76297,-0.53662,-0.109947,7.41214,0.218511,
2,0,0,1,0,68155.9,0.211344,0.210986,-1.782,35,0.0143,10,-0.000375978,-2.74909,-0.784569,-0.0752005,5.22782,0.210986,
2,0,0,1,0,68156.1,0.203856,0.203491,-1.84598,35,0.0140713,10,-0.000375641,-2.73377,-0.548294,-0.107607,7.74415,0.203491,
2,0,0,1,0,68156.2,0.196362,0.196083,-1.89823,35,0.0138353,10,-0.000372211,-2.72165,-0.461095,-0.127956,9.50335,0.196083,
2,0,0,1,0,68156.3,0.18887,0.188569,-1.9644,35,0.0135915,10,-0.000370426,-2.70677,-0.532174,-0.110866,8.51546,0.188569,
2,0,0,1,0,68156.4,0.18138,0.18104,-2.04011,35,0.0133394,10,-0.000369341,-2.69035,-0.51373,-0.114846,9.14191,0.18104,
2,0,0,1,0,68156.6,0.173892,0.173583,-2.12369,35,0.0130778,10,-0.000368636,-2.67291,-0.386794,-0.152536,12.6076,0.173583,
2,0,0,1,0,68156.7,0.166398,0.166105,-2.2163,35,0.0128048,10,-0.000368138,-2.65437,-0.350131,-0.168509,14.6189,0.166105,
2,0,0,1,0,68156.8,0.158905,0.158632,-2.33998,35,0.0125177,10,-0.000371196,-2.63079,-0.283343,-0.208228,19.1003,0.158632,
2,0,0,1,0,68156.9,0.151417,0.151081,-2.53381,35,0.0122114,10,-0.000382812,-2.59623,-0.196622,-0.300068,29.743,0.151081,
2,0,0,1,0,68157.1,0.143927,0.143609,-2.84283,35,0.0118755,10,-0.000408256,-2.54625,-0.121096,-0.487216,53.9571,0.143609,
2,0,0,1,0,68157.2,0.136435,0.136116,-3.31351,35,0.011491,10,-0.00045102,-2.47971,-0.0991253,-0.595206,76.9387,0.1361156,
2,0,0,1,0,68157.3,0.128941,0.128585,-3.9192,35,0.0110376,10,-0.00050395,-2.4068,-0.10785,-0.547058,83.6619,0.128585,
2,0,0,1,0,68157.4,0.121453,0.1211,-4.53315,35,0.0105072,10,-0.000548963,-2.3436,-0.140132,-0.421031,74.4041,0.1211,
2,0,0,1,0,68157.6,0.113963,0.113677,-5.05765,35,0.00990542,10,-0.00057494,-2.29605,-0.191931,-0.307401,60.5617,0.113677,
2,0,0,1,0,68157.7,0.106471,0.106159,-5.43541,35,0.00924621,10,-0.000577018,-2.26477,-0.312904,-0.188556,39.9753,0.106159,
2,0,0,1,0,68157.8,0.0989825,0.0986698,-5.61594,35,0.00855186,10,-0.000554124,-2.25058,-1.31425,-0.0448927,9.82947,0.0986698,
2,0,0,1,0,68157.9,0.0914889,0.0911594,-5.59665,35,0.00784749,10,-0.000510188,-2.25207,0.947423,0.0622742,-13.5939,0.0911594,
2,0,0,1,0,68158.1,0.0839993,0.0837234,-5.46901,35,0.00715442,10,-0.000457884,-2.26209,0.546848,0.107891,-22.997,0.0837234,
2,0,0,1,0,68158.2,0.076507,0.0762108,-5.32609,35,0.00647887,10,-0.000405905,-2.27359,0.785341,0.0751266,-15.6076,0.0762108,
2,0,0,1,0,68158.3,0.0690187,0.068705,-5.21294,35,0.00581923,10,-0.000358155,-2.28292,0.909797,0.0648496,-13.2064,0.068705,
2,0,0,1,0,68158.4,0.0615251,0.0612297,-5.11493,35,0.00517148,10,-0.000313186,-2.29116,0.807396,0.0730744,-14.6056,0.0612297,
2,0,0,1,0,68158.5,0.0540355,0.053674,-5.01022,35,0.00453716,10,-0.000268918,-2.30014,0.707697,0.083369,-16.2848,0.053674,
2,0,0,1,0,68158.7,0.0465432,0.0461925,-4.88719,35,0.00391714,10,-0.000225751,-2.31094,0.723897,0.0815033,-15.5281,0.0461925,
2,0,0,1,0,68158.8,0.0390549,0.0387617,-4.73827,35,0.00331413,10,-0.000183663,-2.32438,0.570959,0.103335,-19.1257,0.0387617,
2,0,0,1,0,68158.9,0.0315613,0.0312283,-4.57812,35,0.00272961,10,-0.000142967,-2.33931,0.45631,0.129298,-23.1136,0.0312283,
2,0,0,1,0,68159,0.0240717,0.0237703,-4.40839,35,0.00216673,10,-0.000104789,-2.35572,0.41509,0.142138,-24.4471,0.0237703,
2,0,0,1,0,68159.2,0.0165781,0.016245,-4.25146,35,0.00162433,10,-6.90649e-05,-2.37146,0.533052,0.110683,-18.3484,0.01624498,
2,0,0,1,0,68159.3,0.00909108,0.0087728,-4.11313,35,0.00110063,10,-3.60836e-05,-2.38583,0.73387,0.0803957,-12.9136,0.008772797,
2,0,0,1,0,68159.4,0.00159616,0.00122875,-4.04053,35,0.000590421,10,-4.96478e-06,-2.39356, , , ,0.00122875,
2,0,0,1,0,68159.4,0.000199195,-0.000193621,-4.02654,35,0.000495978,10,7.79623e-07,-2.39507, , , ,-0.000193621,

File: 20221101_1-115_003_TrumpetPlot_ParaChange_from10_every3_08_CV_C01_0.csv
mode,ox/red,error,control changes,counter inc.,time/s,control/V,Ewe/V,<I>/mA,cycle number,(Q-Qo)/C,I Range,P/W,log(|I|),Tafel slope mV/dec,alpha_eff,dI/d(E-IR),E-IR/V,
2,0,0,1,0,1175.02,2.44065e-05,-0.000382585,-3.86725,1,0.0000000E+000,10,1.47955e-06,-2.4126, , , ,-0.000382585,
2,1,0,1,0,1175.11,0.0072942,0.00699637,2.28651,1,3.94406e-05,10,1.59973e-05,-2.64083,0.0216517,2.72496,227.928,0.00699637,
2,1,0,1,0,1175.2,0.0147816,0.0144612,3.081,1,0.0003008,10,4.4555e-05,-2.51131,0.120512,0.489578,58.7343,0.0144612,
2,1,0,1,0,1175.3,0.0222707,0.0219458,3.39996,1,0.000606791,10,7.46149e-05,-2.46853,0.242204,0.243596,32.3409,0.0219458,
2,1,0,1,0,1175.39,0.0297581,0.0294563,3.67775,1,0.000938506,10,0.000108333,-2.43442,0.244952,0.240863,34.4639,0.0294563,
2,1,0,1,0,1175.48,0.0372544,0.0369074,3.95633,1,0.00129635,10,0.000146018,-2.40271,0.21048,0.280312,43.2552,0.0369074,
2,1,0,1,0,1175.58,0.0447507,0.044415,4.28236,1,0.00168319,10,0.000190201,-2.36832,0.221143,0.266796,44.643,0.044415,
2,1,0,1,0,1175.67,0.0522381,0.0519092,4.65701,1,0.00210246,10,0.000241742,-2.33189,0.200141,0.294793,53.579,0.0519092,
2,1,0,1,0,1175.76,0.0597273,0.0594398,5.06247,1,0.00255836,10,0.000300912,-2.29564,0.201702,0.29251,57.7593,0.05943979,
2,1,0,1,0,1175.86,0.0672147,0.0669316,5.46188,1,0.00305217,10,0.000365572,-2.26266,0.233234,0.252964,53.9378,0.0669316,
2,1,0,1,0,1175.95,0.0747038,0.0744165,5.85304,1,0.00358326,10,0.000435563,-2.23262,0.29676,0.198814,45.3893,0.0744165,
2,1,0,1,0,1176.05,0.0822055,0.0818824,6.20446,1,0.00415021,10,0.000508036,-2.2073,0.303375,0.194479,47.0997,0.0818824,
2,1,0,1,0,1176.14,0.0896946,0.0893309,6.52721,1,0.00474788,10,0.000583081,-2.18527,0.348776,0.169163,43.1853,0.0893309,
2,1,0,1,0,1176.23,0.097182,0.0968809,6.89106,1,0.00537693,10,0.000667612,-2.16171,0.308949,0.19097,51.3366,0.0968809,
2,1,0,1,0,1176.33,0.104671,0.104357,7.33235,1,0.00604239,10,0.000765185,-2.13476,0.228548,0.258151,73.8971,0.104357,
2,1,0,1,0,1176.42,0.112159,0.111855,7.93025,1,0.00675694,10,0.000887035,-2.10071,0.204119,0.289047,89.5609,0.1118546,
2,1,0,1,0,1176.51,0.119655,0.119314,8.66432,1,0.00753523,10,0.00103377,-2.06227,0.213053,0.276926,93.574,0.119314,
2,1,0,1,0,1176.61,0.127149,0.126862,9.36011,1,0.00838134,10,0.00118745,-2.02872,0.242095,0.243706,89.009,0.126862,
2,1,0,1,0,1176.7,0.134639,0.13433,9.96435,1,0.00928822,10,0.00133851,-2.00155,0.304627,0.193679,75.3613,0.13433,
2,1,0,1,0,1176.79,0.142126,0.14178,10.4423,1,0.0102463,10,0.00148051,-1.9812,0.481393,0.122561,49.9156,0.14178,
2,1,0,1,0,1176.89,0.149615,0.14933,10.608,1,0.0112365,10,0.00158409,-1.97437,-1.45119,-0.0406563,-16.783,0.14933,
2,1,0,1,0,1176.98,0.157103,0.156814,9.98023,1,0.0122092,10,0.00156504,-2.00086,-0.145716,-0.404897,-156.968,0.156814,
2,1,0,1,0,1177.08,0.164606,0.164285,8.26827,1,0.0130729,10,0.00135835,-2.08259,-0.0689032,-0.856273,-275.609,0.164285,
2,1,0,1,0,1177.17,0.172095,0.171775,6.37471,1,0.0137548,10,0.00109501,-2.19554,-0.0717454,-0.822352,-205.431,0.171775,
2,1,0,1,0,1177.26,0.179582,0.179255,5.21068,1,0.0142926,10,0.00093404,-2.28311,-0.111955,-0.526998,-107.701,0.179255,
2,1,0,1,0,1177.36,0.18707,0.186791,4.5689,1,0.0147494,10,0.000853429,-2.34019,-0.151732,-0.388844,-69.497,0.186791,
2,1,0,1,0,1177.45,0.194559,0.194273,4.17611,1,0.0151581,10,0.000811306,-2.37923,-0.207711,-0.284049,-46.2283,0.194273,
2,1,0,1,0,1177.54,0.202062,0.201798,3.89285,1,0.0155363,10,0.000785568,-2.40973,-0.310791,-0.189838,-28.8365,0.201798,
2,1,0,1,0,1177.64,0.20955,0.209273,3.70248,1,0.0158924,10,0.000774829,-2.43151,-0.34106,-0.17299,-25.0037,0.209273,
2,1,0,1,0,1177.73,0.217039,0.216744,3.56937,1,0.0162333,10,0.00077364,-2.44741,-0.435247,-0.135555,-18.8698,0.216744,
2,1,0,1,0,1177.82,0.224526,0.224277,3.4671,1,0.0165634,10,0.00077759,-2.46003,-0.834661,-0.0706873,-9.57396,0.224277,
2,1,0,1,0,1177.92,0.232016,0.231735,3.38642,1,0.0168854,10,0.000784753,-2.47026,-0.980101,-0.0601979,-7.97417,0.231735,
2,1,0,1,0,1178.01,0.23951,0.239239,3.33501,1,0.0172016,10,0.000797864,-2.4769,-0.965098,-0.0611337,-7.95535,0.239239,
2,1,0,1,0,1178.11,0.247006,0.246705,3.28975,1,0.0175125,10,0.000811598,-2.48284,-1.88207,-0.0313484,-4.01274,0.246705,
2,1,0,1,0,1178.2,0.254494,0.254204,3.23473,1,0.0178189,10,0.000822281,-2.49016,-1.28333,-0.0459741,-5.80936,0.254204,
2,1,0,1,0,1178.29,0.261983,0.261691,3.19828,1,0.0181214,10,0.000836962,-2.49508,-1.02426,-0.0576027,-7.19872,0.261691,
2,1,0,1,0,1178.39,0.26947,0.269165,3.16871,1,0.0184203,10,0.000852906,-2.49912,-9.10517,-0.00647983,-0.799909,0.269165,
2,1,0,1,0,1178.48,0.276959,0.276648,3.12816,1,0.018716,10,0.000865401,-2.50471,-2.847,-0.0207235,-2.53115,0.276648,
2,1,0,1,0,1178.57,0.284461,0.28421,3.1004,1,0.0190091,10,0.000881165,-2.50858,-1.29898,-0.0454201,-5.4834,0.28421,
2,1,0,1,0,1178.67,0.29195,0.291645,3.06601,1,0.0192984,10,0.000894186,-2.51343,-1.19918,-0.0492001,-5.87071,0.2916452,
2,1,0,1,0,1178.76,0.299438,0.299155,3.02253,1,0.0195845,10,0.000904205,-2.51963,-0.019833,-2.97483,-308.969,0.299155,
2,0,0,1,0,1178.84,0.29424,0.293923,-1.03248,1,0.0196024,10,-0.000303468,-2.98612,-0.0188564,-3.12891,113.769,0.293923,
2,0,0,1,0,1178.93,0.286753,0.286478,-1.42022,1,0.0194836,10,-0.000406861,-2.84765,-0.093084,-0.633836,34.9052,0.286478,
2,0,0,1,0,1179.03,0.279264,0.278979,-1.6204,1,0.0193397,10,-0.000452057,-2.79038,-0.167941,-0.351313,22.2844,0.278979,
2,0,0,1,0,1179.12,0.271776,0.271495,-1.7796,1,0.0191792,10,-0.000483151,-2.74968,-0.196508,-0.300243,20.8209,0.271495,
2,0,0,1,0,1179.22,0.26428,0.263975,-1.91295,1,0.0190054,10,-0.000504969,-2.7183,-0.253924,-0.232353,17.2763,0.263975,
2,0,0,1,0,1179.31,0.256786,0.256477,-2.0139,1,0.0188205,10,-0.000516519,-2.69596,-0.360413,-0.163701,12.8747,0.256477,
2,0,0,1,0,1179.4,0.249296,0.248995,-2.11871,1,0.018626,10,-0.000527549,-2.67393,-0.511285,-0.115396,9.54085,0.248995,
2,0,0,1,0,1179.5,0.241809,0.241552,-2.20576,1,0.0184223,10,-0.000532806,-2.65644,-0.38706,-0.152431,13.1563,0.241552,
2,0,0,1,0,1179.59,0.23432,0.233976,-2.2982,1,0.0182101,10,-0.000537725,-2.63861,-0.433578,-0.136077,12.2573,0.233976,
2,0,0,1,0,1179.68,0.226833,0.226564,-2.39019,1,0.0179894,10,-0.000541531,-2.62157,-0.463908,-0.12718,11.8625,0.226564,
2,0,0,1,0,1179.78,0.219329,0.219035,-2.49651,1,0.0177597,10,-0.000546823,-2.60267,-0.363773,-0.162189,15.7196,0.219035,
2,0,0,1,0,1179.87,0.21184,0.211551,-2.5808,1,0.0175215,10,-0.000545972,-2.58824,-0.451688,-0.130621,13.1638,0.211551,
2,0,0,1,0,1179.96,0.204353,0.204042,-2.69278,1,0.0172734,10,-0.000549439,-2.5698,-0.677331,-0.0871066,9.17181,0.204042,
2,0,0,1,0,1180.06,0.196863,0.196533,-2.82288,1,0.0170146,10,-0.000554789,-2.54931,-0.337536,-0.174796,19.2777,0.196533,
2,0,0,1,0,1180.15,0.189376,0.189059,-2.97544,1,0.0167427,10,-0.000562534,-2.52645,-0.263917,-0.223555,25.9697,0.189059,
2,0,0,1,0,1180.25,0.18188,0.181578,-3.17644,1,0.0164542,10,-0.000576773,-2.49806,-0.238938,-0.246926,30.5928,0.181578,
2,0,0,1,0,1180.34,0.174385,0.174082,-3.45178,1,0.0161435,10,-0.000600892,-2.46196,-0.181259,-0.325502,43.8374,0.174082,
2,0,0,1,0,1180.43,0.166896,0.166565,-3.84589,1,0.0158025,10,-0.000640591,-2.415,-0.136646,-0.431774,64.7392,0.166565,
2,0,0,1,0,1180.53,0.159409,0.159154,-4.42657,1,0.0154163,10,-0.000704507,-2.35393,-0.107544,-0.548612,95.0078,0.159154,
2,0,0,1,0,1180.62,0.151919,0.151643,-5.31509,1,0.0149618,10,-0.000805998,-2.27449,-0.0868043,-0.679689,141.374,0.151643,
2,0,0,1,0,1180.71,0.144425,0.144171,-6.54588,1,0.0144074,10,-0.000943725,-2.18403,-0.0828826,-0.711851,181.9,0.144171,
2,0,0,1,0,1180.81,0.136929,0.136645,-7.98426,1,0.013726,10,-0.00109101,-2.09777,-0.0973053,-0.606339,188.666,0.136645,
2,0,0,1,0,1180.9,0.129441,0.129142,-9.30324,1,0.0129139,10,-0.00120143,-2.03137,-0.137818,-0.428101,155.09,0.129142,
2,0,0,1,0,1180.99,0.121952,0.121646,-10.246,1,0.011995,10,-0.00124639,-1.98944,-0.245301,-0.240521,95.8927,0.1216457,
2,0,0,1,0,1181.09,0.114465,0.114156,-10.6864,1,0.0110103,10,-0.00121992,-1.97117,-1.12288,-0.0525435,21.8974,0.114156,
2,0,0,1,0,1181.18,0.106976,0.10667,-10.6494,1,0.0100073,10,-0.00113597,-1.97268,0.631073,0.0934915,-38.7899,0.10667,
2,0,0,1,0,1181.28,0.0994721,0.0991288,-10.186,1,0.0090264,10,-0.00100972,-1.992,0.292525,0.201692,-80.1033,0.0991288,
2,0,0,1,0,1181.37,0.0919847,0.0916496,-9.43959,1,0.00810572,10,-0.000865135,-2.02505,0.218297,0.270274,-99.6677,0.0916496,
2,0,0,1,0,1181.46,0.0844973,0.0841654,-8.71378,1,0.00725584,10,-0.000733398,-2.05979,0.235068,0.250991,-85.4505,0.0841654,
2,0,0,1,0,1181.56,0.0770082,0.076694,-8.18439,1,0.00646602,10,-0.000627694,-2.08701,0.321094,0.183747,-58.6507,0.076694,
2,0,0,1,0,1181.65,0.0695208,0.0692258,-7.79836,1,0.00571819,10,-0.000539847,-2.108,0.408295,0.144503,-44.025,0.0692258,
2,0,0,1,0,1181.74,0.0620245,0.0616825,-7.49584,1,0.00500074,10,-0.000462362,-2.12518,0.382082,0.154417,-45.1528,0.0616825,
2,0,0,1,0,1181.84,0.0545282,0.054186,-7.17978,1,0.0043122,10,-0.000389043,-2.14389,0.420578,0.140283,-39.3173,0.054186,
2,0,0,1,0,1181.93,0.0470408,0.046714,-6.8194,1,0.00365539,10,-0.000318562,-2.16625,0.312321,0.188908,-50.2602,0.046714,
2,0,0,1,0,1182.02,0.0395517,0.0392682,-6.40269,1,0.00303548,10,-0.000251422,-2.19364,0.240921,0.244894,-61.1207,0.0392682,
2,0,0,1,0,1182.12,0.0320643,0.0317236,-5.97075,1,0.00245635,10,-0.000189414,-2.22397,0.244648,0.241163,-56.1318,0.0317236,
2,0,0,1,0,1182.21,0.0245751,0.0242469,-5.60275,1,0.00191464,10,-0.000135849,-2.2516,0.327728,0.180028,-39.4243,0.02424687,
2,0,0,1,0,1182.31,0.0170735,0.0167224,-5.35787,1,0.0014001,10,-8.95964e-05,-2.27101,0.474856,0.124248,-26.0539,0.0167224,
2,0,0,1,0,1182.4,0.00958429,0.00928037,-5.23786,1,0.000903741,10,-4.86092e-05,-2.28085,1.27824,0.046157,-9.43387,0.00928037,
2,0,0,1,0,1182.49,0.0020969,0.00171838,-5.25432,1,0.00041522,10,-9.02894e-06,-2.27948,-1.29238,-0.0456521,9.275,0.00171838,
2,0,0,1,0,1182.52,0.000199195,-0.000166899,-5.22422,1,0.000290837,10,8.71916e-07,-2.28198, , , ,-0.000166899,