Folder: Figs_alphaMnO2_OER_Tafel_sleope/Figure_codes/Fig_3-5/rawdata_trumpetplot_data/after 10th (part 116)

File: 20221101_1-115_003_TrumpetPlot_ParaChange_from10_every3_08_CV_C01_23.csv
mode,ox/red,error,control changes,counter inc.,time/s,control/V,Ewe/V,<I>/mA,cycle number,(Q-Qo)/C,I Range,P/W,log(|I|),Tafel slope mV/dec,alpha_eff,dI/d(E-IR),E-IR/V,
2,0,0,0,0,46488,2.44065e-05,-0.000401673,-3.94421,24,0.0000000E+000,10,1.58428e-06,-2.40404, , , ,-0.000401673,
2,1,0,1,0,46488.1,0.0072942,0.00698239,0.692051,24,-8.82657e-05,10,4.83217e-06,-3.15986,0.00205489,28.7119,301.453,0.00698239,
2,1,0,1,0,46488.2,0.0147816,0.0144486,2.08796,24,5.31148e-05,10,3.01681e-05,-2.68028,0.0399586,1.47653,118.73,0.0144486,
2,1,0,1,0,46488.3,0.0222707,0.0219782,2.76162,24,0.000284307,10,6.06956e-05,-2.55884,0.0923462,0.6389,68.5828,0.0219782,
2,1,0,1,0,46488.4,0.0297581,0.0294499,3.18787,24,0.00056497,10,9.38823e-05,-2.4965,0.141766,0.41618,51.7661,0.0294499,
2,1,0,1,0,46488.5,0.0372544,0.0369288,3.54876,24,0.000882356,10,0.000131052,-2.44992,0.191492,0.308107,42.6722,0.03692884,
2,1,0,1,0,46488.6,0.0447507,0.0444487,3.88105,24,0.0012318,10,0.000172508,-2.41105,0.205779,0.286715,43.4305,0.0444487,
2,1,0,1,0,46488.7,0.0522381,0.0519269,4.18794,24,0.00161094,10,0.000217467,-2.378,0.21893,0.269493,44.1099,0.0519269,
2,1,0,1,0,46488.8,0.0597273,0.0594067,4.4938,24,0.00201893,10,0.000266962,-2.34739,0.273435,0.215774,37.8258,0.0594067,
2,1,0,1,0,46488.9,0.0672147,0.0669138,4.78105,24,0.00245392,10,0.000319919,-2.32048,0.3003,0.19647,36.5928,0.0669138,
2,1,0,1,0,46489,0.0747038,0.0744451,5.03137,24,0.00291415,10,0.000374561,-2.29831,0.358583,0.164536,32.2798,0.0744451,
2,1,0,1,0,46489,0.0822055,0.0818957,5.24725,24,0.00339773,10,0.000429727,-2.28007,0.449653,0.131212,26.8845,0.0818957,
2,1,0,1,0,46489.1,0.0896946,0.0893837,5.45337,24,0.00389997,10,0.000487442,-2.26334,0.556054,0.106105,22.583,0.0893837,
2,1,0,1,0,46489.2,0.097182,0.0968775,5.6703,24,0.004421,10,0.000549324,-2.24639,0.359657,0.164045,36.2735,0.0968775,
2,1,0,1,0,46489.3,0.104671,0.10432,5.96286,24,0.00496536,10,0.000622042,-2.22455,0.274576,0.214877,50.029,0.10432,
2,1,0,1,0,46489.4,0.112159,0.111834,6.37675,24,0.00554314,10,0.000713136,-2.1954,0.260714,0.226301,56.287,0.1118338,
2,1,0,1,0,46489.5,0.119655,0.119343,6.83005,24,0.00616261,10,0.000815118,-2.16558,0.257098,0.229484,61.1477,0.119343,
2,1,0,1,0,46489.6,0.127149,0.126829,7.20668,24,0.00682271,10,0.000914018,-2.14226,0.379472,0.155479,43.7524,0.126829,
2,1,0,1,0,46489.7,0.134639,0.134321,7.4863,24,0.00751278,10,0.00100556,-2.12573,0.685126,0.0861156,25.1449,0.134321,
2,1,0,1,0,46489.8,0.142126,0.141808,7.64391,24,0.00822272,10,0.00108397,-2.11668,1.62609,0.0362834,10.8004,0.141808,
2,1,0,1,0,46489.9,0.149615,0.149293,7.5239,24,0.00893679,10,0.00112327,-2.12356,-0.403335,-0.14628,-42.8548,0.149293,
2,1,0,1,0,46490,0.157103,0.156805,6.90833,24,0.00961787,10,0.00108326,-2.16063,-0.131045,-0.450228,-121.023,0.156805,
2,1,0,1,0,46490.1,0.164606,0.16431,5.89432,24,0.0102202,10,0.000968493,-2.22957,-0.0965887,-0.610837,-140.335,0.16431,
2,1,0,1,0,46490.2,0.172095,0.171796,4.95602,24,0.0107268,10,0.000851426,-2.30487,-0.110511,-0.533883,-103.58,0.171796,
2,1,0,1,0,46490.3,0.179582,0.179267,4.32537,24,0.0111606,10,0.000775396,-2.36398,-0.145241,-0.406222,-68.8254,0.1792669,
2,1,0,1,0,46490.4,0.18707,0.186749,3.93027,24,0.0115466,10,0.000733975,-2.40558,-0.221453,-0.266422,-40.8668,0.186749,
2,1,0,1,0,46490.4,0.194559,0.194238,3.66163,24,0.0119021,10,0.000711226,-2.43633,-0.323716,-0.182259,-26.0856,0.194238,
2,1,0,1,0,46490.5,0.202062,0.20178,3.48756,24,0.0122379,10,0.000703719,-2.45748,-0.381284,-0.15474,-21.0668,0.20178,
2,1,0,1,0,46490.6,0.20955,0.209267,3.37282,24,0.0125597,10,0.000705822,-2.47201,-0.513766,-0.114838,-15.1039,0.209267,
2,1,0,1,0,46490.7,0.217039,0.216709,3.27482,24,0.0128716,10,0.000709684,-2.48481,-0.93218,-0.0632925,-8.10308,0.216709,
2,1,0,1,0,46490.8,0.224526,0.224199,3.21515,24,0.0131766,10,0.000720833,-2.4928,-0.713152,-0.0827314,-10.3943,0.224199,
2,1,0,1,0,46490.9,0.232016,0.231678,3.16954,24,0.0134762,10,0.000734312,-2.499,-1.50787,-0.0391279,-4.83174,0.231678,
2,1,0,1,0,46491,0.23951,0.23919,3.12437,24,0.013772,10,0.000747319,-2.50524,-2.38379,-0.0247505,-3.02131,0.23919,
2,1,0,1,0,46491.1,0.247006,0.246665,3.09146,24,0.0140645,10,0.000762557,-2.50984,-1.00008,-0.0589952,-7.12023,0.246665,
2,1,0,1,0,46491.2,0.254494,0.254206,3.06701,24,0.0143539,10,0.000779653,-2.51328,-1.43633,-0.0410768,-4.91164,0.254206,
2,1,0,1,0,46491.3,0.261983,0.261681,3.03737,24,0.0146407,10,0.000794821,-2.5175,-3.87957,-0.0152079,-1.8056,0.261681,
2,1,0,1,0,46491.4,0.26947,0.269191,3.01077,24,0.0149252,10,0.000810472,-2.52132,-1.92861,-0.030592,-3.59964,0.269191,
2,1,0,1,0,46491.5,0.276959,0.276701,2.99287,24,0.0152075,10,0.00082813,-2.52391,-1.66221,-0.0354949,-4.14582,0.276701,
2,1,0,1,0,46491.6,0.284461,0.284165,2.9681,24,0.0154881,10,0.000843431,-2.52752,-10.1701,-0.0058013,-0.672092,0.284165,
2,1,0,1,0,46491.7,0.29195,0.291657,2.93612,24,0.0157659,10,0.000856341,-2.53223,-3.49856,-0.0168641,-1.93809,0.291657,
2,1,0,1,0,46491.8,0.299438,0.299145,2.91861,24,0.0160413,10,0.000873087,-2.53482,-0.0326535,-1.80685,-190.517,0.299145,
2,0,0,1,0,46491.8,0.29424,0.293956,-0.203152,24,0.016121,10,-5.97179e-05,-3.69218,-0.0167443,-3.52359,207.31,0.2939561,
2,0,0,1,0,46491.9,0.286753,0.286452,-1.01475,24,0.0160551,10,-0.000290676,-2.99364,-0.0383813,-1.5372,60.1435,0.286452,
2,0,0,1,0,46492,0.279264,0.278959,-1.35221,24,0.0159416,10,-0.000377211,-2.86896,-0.0997328,-0.591581,31.1243,0.278959,
2,0,0,1,0,46492.1,0.271776,0.271491,-1.54694,24,0.0158045,10,-0.00041998,-2.81053,-0.131266,-0.449468,27.1543,0.271491,
2,0,0,1,0,46492.2,0.26428,0.263972,-1.6989,24,0.0156508,10,-0.000448464,-2.76983,-0.246582,-0.239271,15.8543,0.263972,
2,0,0,1,0,46492.3,0.256786,0.25647,-1.82528,24,0.0154846,10,-0.000468131,-2.73867,-0.272102,-0.216831,15.4182,0.25647,
2,0,0,1,0,46492.4,0.249296,0.249001,-1.92651,24,0.015308,10,-0.000479702,-2.71523,-0.325154,-0.181452,13.6294,0.249001,
2,0,0,1,0,46492.5,0.241809,0.241492,-2.0143,24,0.0151222,10,-0.000486436,-2.69588,-0.41602,-0.14182,11.1915,0.241492,
2,0,0,1,0,46492.6,0.23432,0.233999,-2.10799,24,0.0149281,10,-0.000493269,-2.67613,-0.515367,-0.114481,9.42292,0.233999,
2,0,0,1,0,46492.7,0.226833,0.226483,-2.18624,24,0.0147261,10,-0.000495146,-2.6603,-0.334541,-0.176361,15.0215,0.226483,
2,0,0,1,0,46492.8,0.219329,0.219037,-2.26145,24,0.0145163,10,-0.000495342,-2.64561,-0.509746,-0.115744,10.233,0.219037,
2,0,0,1,0,46492.9,0.21184,0.211534,-2.34415,24,0.0142996,10,-0.000495868,-2.63001,-0.652772,-0.0903837,8.2614,0.211534,
2,0,0,1,0,46493,0.204353,0.204015,-2.42331,24,0.0140757,10,-0.000494391,-2.61559,-0.497293,-0.118642,11.2097,0.204015,
2,0,0,1,0,46493.1,0.196863,0.196548,-2.48995,24,0.0138447,10,-0.000489396,-2.60381,-0.544651,-0.108326,10.562,0.196548,
2,0,0,1,0,46493.2,0.189376,0.189021,-2.58617,24,0.0136059,10,-0.000488841,-2.58734,-0.648567,-0.0909698,9.17124,0.189021,
2,0,0,1,0,46493.2,0.18188,0.181577,-2.67696,24,0.0133588,10,-0.000486073,-2.57236,-0.371622,-0.158764,16.5708,0.1815768,
2,0,0,1,0,46493.3,0.174385,0.174088,-2.77979,24,0.0131021,10,-0.000483928,-2.55599,-0.41119,-0.143486,15.5904,0.174088,
2,0,0,1,0,46493.4,0.166896,0.166574,-2.92375,24,0.0128345,10,-0.00048702,-2.53406,-0.383852,-0.153705,17.5019,0.166574,
2,0,0,1,0,46493.5,0.159409,0.159097,-3.09789,24,0.0125525,10,-0.000492866,-2.50893,-0.250204,-0.235807,28.5128,0.159097,
2,0,0,1,0,46493.6,0.151919,0.151553,-3.34612,24,0.0122505,10,-0.000507113,-2.47546,-0.179086,-0.32945,43.1641,0.1515528,
2,0,0,1,0,46493.7,0.144425,0.144118,-3.75546,24,0.011918,10,-0.000541229,-2.42534,-0.127925,-0.461209,67.7841,0.144118,
2,0,0,1,0,46493.8,0.136929,0.136592,-4.39672,24,0.011537,10,-0.000600559,-2.35687,-0.101699,-0.580145,99.5542,0.136592,
2,0,0,1,0,46493.9,0.129441,0.129147,-5.21276,24,0.0110872,10,-0.000673211,-2.28293,-0.101169,-0.583183,118.55,0.129147,
2,0,0,1,0,46494,0.121952,0.121652,-6.04097,24,0.0105589,10,-0.000734895,-2.21889,-0.13877,-0.425164,100.114,0.121652,
2,0,0,1,0,46494.1,0.114465,0.114124,-6.75636,24,0.00995783,10,-0.000771063,-2.17029,-0.185515,-0.318034,83.7174,0.114124,
2,0,0,1,0,46494.2,0.106976,0.106671,-7.28347,24,0.00929805,10,-0.000776937,-2.13766,-0.293943,-0.200719,57.0489,0.106671,
2,0,0,1,0,46494.3,0.0994721,0.0991315,-7.58571,24,0.00859725,10,-0.000751983,-2.12,-0.796625,-0.0740624,21.9016,0.0991315,
2,0,0,1,0,46494.4,0.0919847,0.0916122,-7.63295,24,0.00788206,10,-0.000699271,-2.11731,1.89519,0.0311315,-9.26504,0.0916122,
2,0,0,1,0,46494.5,0.0844973,0.0841712,-7.474,24,0.00717307,10,-0.000629095,-2.12645,0.632486,0.0932827,-27.2058,0.0841712,
2,0,0,1,0,46494.6,0.0770082,0.0766862,-7.25646,24,0.00648276,10,-0.00055647,-2.13928,0.570392,0.103438,-29.3039,0.0766862,
2,0,0,1,0,46494.6,0.0695208,0.0692081,-7.07891,24,0.00581143,10,-0.000489918,-2.15003,0.747133,0.0789686,-21.8107,0.0692081,
2,0,0,1,0,46494.7,0.0620245,0.0617048,-6.92657,24,0.0051546,10,-0.000427403,-2.15948,0.855517,0.0689642,-18.6394,0.0617048,
2,0,0,1,0,46494.8,0.0545282,0.0542252,-6.77009,24,0.00451169,10,-0.00036711,-2.16941,0.801757,0.0735884,-19.4539,0.0542252,
2,0,0,1,0,46494.9,0.0470408,0.0467174,-6.61641,24,0.00388401,10,-0.000309102,-2.17938,0.622118,0.0948373,-24.4602,0.0467174,
2,0,0,1,0,46495,0.0395516,0.0391963,-6.4355,24,0.00327258,10,-0.000252248,-2.19142,0.641344,0.0919943,-23.0734,0.0391963,
2,0,0,1,0,46495.1,0.0320643,0.0317267,-6.21591,24,0.00267931,10,-0.00019721,-2.2065,0.469859,0.12557,-30.4798,0.03172671,
2,0,0,1,0,46495.2,0.0245751,0.0242813,-5.98678,24,0.00210691,10,-0.000145367,-2.22281,0.403257,0.146309,-34.1748,0.0242813,
2,0,0,1,0,46495.3,0.0170735,0.016737,-5.74465,24,0.00155584,10,-9.61485e-05,-2.24074,0.500538,0.117873,-26.4678,0.016737,
2,0,0,1,0,46495.4,0.00958429,0.0092923,-5.5352,24,0.00102685,10,-5.14347e-05,-2.25687,0.517398,0.114032,-24.6604,0.009292298,
2,0,0,1,0,46495.5,0.0020969,0.00168328,-5.42288,24,0.000515232,10,-9.12821e-06,-2.26577,1.08244,0.0545066,-11.4674,0.00168328,
2,0,0,1,0,46495.5,0.000199195,-0.000220343,-5.36771,24,0.000387196,10,1.18274e-06,-2.27021, , , ,-0.000220343,

File: 20221101_1-115_003_TrumpetPlot_ParaChange_from10_every3_08_CV_C01_24.csv
mode,ox/red,error,control changes,counter inc.,time/s,control/V,Ewe/V,<I>/mA,cycle number,(Q-Qo)/C,I Range,P/W,log(|I|),Tafel slope mV/dec,alpha_eff,dI/d(E-IR),E-IR/V,
2,0,0,0,0,48458.1,2.44065e-05,-0.000363498,-3.97156,25,0.0000000E+000,10,1.44365e-06,-2.40104, , , ,-0.000363498,
2,1,0,1,0,48458.2,0.0072942,0.00696262,0.596845,25,-9.67473e-05,10,4.15561e-06,-3.22414,0.00368348,16.0175,303.494,0.00696262,
2,1,0,1,0,48458.3,0.0147816,0.014435,2.02679,25,3.71271e-05,10,2.92567e-05,-2.69319,0.0364105,1.62041,126.48,0.014435,
2,1,0,1,0,48458.4,0.0222707,0.0219499,2.7221,25,0.000264031,10,5.97499e-05,-2.5651,0.0887895,0.664493,70.3751,0.0219499,
2,1,0,1,0,48458.5,0.0297581,0.0294516,3.17174,25,0.000541904,10,9.34127e-05,-2.4987,0.141548,0.41682,51.4402,0.0294516,
2,1,0,1,0,48458.6,0.0372544,0.0369035,3.52394,25,0.00085705,10,0.000130046,-2.45297,0.181917,0.324324,44.599,0.0369035,
2,1,0,1,0,48458.7,0.0447507,0.0444167,3.85349,25,0.00120418,10,0.000171159,-2.41415,0.218972,0.269441,40.5322,0.0444167,
2,1,0,1,0,48458.8,0.0522381,0.0518734,4.16644,25,0.00158079,10,0.000216127,-2.38023,0.241958,0.243844,39.6519,0.0518734,
2,1,0,1,0,48458.9,0.0597273,0.0593853,4.46284,25,0.00198587,10,0.000265027,-2.35039,0.250158,0.235851,41.0537,0.0593853,
2,1,0,1,0,48459,0.0672147,0.0669183,4.74547,25,0.00241788,10,0.000317558,-2.32372,0.296107,0.199253,36.8806,0.0669183,
2,1,0,1,0,48459.1,0.0747038,0.0743473,4.99604,25,0.00287499,10,0.000371443,-2.30137,0.379703,0.155385,30.272,0.0743473,
2,1,0,1,0,48459.2,0.0822055,0.0818517,5.2188,25,0.00335543,10,0.000427168,-2.28243,0.442954,0.133197,27.1265,0.0818517,
2,1,0,1,0,48459.3,0.0896946,0.0893588,5.4103,25,0.00385439,10,0.000483458,-2.26678,0.51735,0.114043,24.1275,0.0893588,
2,1,0,1,0,48459.4,0.097182,0.0968438,5.62499,25,0.0043719,10,0.000544745,-2.24988,0.432337,0.136468,29.9676,0.0968438,
2,1,0,1,0,48459.5,0.104671,0.104355,5.91658,25,0.00491204,10,0.000617425,-2.22793,0.27813,0.212131,48.9785,0.104355,
2,1,0,1,0,48459.5,0.112159,0.111825,6.29921,25,0.00548425,10,0.000704411,-2.20071,0.250426,0.235598,57.983,0.111825,
2,1,0,1,0,48459.6,0.119655,0.119321,6.7627,25,0.00609755,10,0.00080693,-2.16988,0.286174,0.206169,54.3596,0.119321,
2,1,0,1,0,48459.7,0.127149,0.12683,7.14864,25,0.00675099,10,0.000906664,-2.14578,0.359999,0.163889,45.6969,0.12683,
2,1,0,1,0,48459.8,0.134639,0.134311,7.42027,25,0.0074351,10,0.000996623,-2.12958,0.559973,0.105362,30.533,0.134311,
2,1,0,1,0,48459.9,0.142126,0.141814,7.59016,25,0.00814012,10,0.00107639,-2.11975,1.69926,0.0347209,10.2746,0.141814,
2,1,0,1,0,48460,0.149615,0.149254,7.51598,25,0.0088511,10,0.00112179,-2.12401,-0.447538,-0.131832,-38.577,0.149254,
2,1,0,1,0,48460.1,0.157103,0.156787,6.94251,25,0.00953325,10,0.00108849,-2.15848,-0.145661,-0.40505,-109.479,0.1567868,
2,1,0,1,0,48460.2,0.164606,0.164268,5.94367,25,0.0101406,10,0.000976353,-2.22595,-0.0949989,-0.62106,-143.957,0.164268,
2,1,0,1,0,48460.3,0.172095,0.171751,4.98727,25,0.0106512,10,0.000856568,-2.30214,-0.104742,-0.563288,-109.811,0.171751,
2,1,0,1,0,48460.4,0.179582,0.179245,4.32516,25,0.0110857,10,0.000775264,-2.364,-0.148275,-0.39791,-67.2735,0.179245,
2,1,0,1,0,48460.5,0.18707,0.186774,3.90685,25,0.0114705,10,0.000729697,-2.40817,-0.204002,-0.289213,-44.1692,0.186774,
2,1,0,1,0,48460.6,0.194559,0.194267,3.6482,25,0.011824,10,0.000708726,-2.43792,-0.30046,-0.196366,-27.9719,0.194267,
2,1,0,1,0,48460.7,0.202062,0.201755,3.47229,25,0.0121581,10,0.00070055,-2.45938,-0.461597,-0.127817,-17.3214,0.2017545,
2,1,0,1,0,48460.8,0.20955,0.209222,3.35798,25,0.0124784,10,0.000702564,-2.47392,-0.551283,-0.107023,-14.0124,0.209222,
2,1,0,1,0,48460.9,0.217039,0.216695,3.26763,25,0.0127893,10,0.00070808,-2.48577,-0.722132,-0.0817025,-10.4354,0.216695,
2,1,0,1,0,48461,0.224526,0.224208,3.2091,25,0.0130935,10,0.000719506,-2.49362,-1.01608,-0.0580665,-7.27175,0.224208,
2,1,0,1,0,48461,0.232016,0.231708,3.15826,25,0.0133924,10,0.000731795,-2.50055,-1.52297,-0.03874,-4.77913,0.231708,
2,1,0,1,0,48461.1,0.23951,0.239209,3.12118,25,0.0136878,10,0.000746614,-2.50568,-1.64011,-0.0359732,-4.3846,0.239209,
2,1,0,1,0,48461.2,0.247006,0.246663,3.09705,25,0.0139798,10,0.000763928,-2.50905,-1.54133,-0.0382785,-4.61597,0.246663,
2,1,0,1,0,48461.3,0.254494,0.254158,3.06195,25,0.0142688,10,0.000778219,-2.514,-2.66637,-0.0221275,-2.64533,0.254158,
2,1,0,1,0,48461.4,0.261983,0.261695,3.03541,25,0.0145553,10,0.000794352,-2.51778,-1.24046,-0.0475629,-5.63536,0.261695,
2,1,0,1,0,48461.5,0.26947,0.269179,3.01441,25,0.0148394,10,0.000811418,-2.5208,-3.44354,-0.0171335,-2.01496,0.2691794,
2,1,0,1,0,48461.6,0.276959,0.276631,2.99417,25,0.0151215,10,0.000828281,-2.52372,-2.98163,-0.0197879,-2.31027,0.2766313,
2,1,0,1,0,48461.7,0.284461,0.284167,2.96475,25,0.0154019,10,0.000842484,-2.52801,-2.13801,-0.0275957,-3.19403,0.284167,
2,1,0,1,0,48461.8,0.29195,0.291631,2.94376,25,0.0156794,10,0.000858491,-2.5311,-1.47944,-0.0398798,-4.57932,0.291631,
2,1,0,1,0,48461.9,0.299438,0.299114,2.91232,25,0.0159546,10,0.000871116,-2.53576,-0.0342548,-1.72239,-182.573,0.299114,
2,0,0,1,0,48462,0.29424,0.293902,-0.152054,25,0.0160385,10,-4.4689e-05,-3.818,-0.0326768,-1.80556,214.269,0.293902,
2,0,0,1,0,48462.1,0.286753,0.286393,-1.00167,25,0.0159756,10,-0.000286872,-2.99927,-0.0340954,-1.73044,66.5545,0.286393,
2,0,0,1,0,48462.2,0.279264,0.278934,-1.33881,25,0.0158632,10,-0.00037344,-2.87328,-0.0915966,-0.644129,33.602,0.278934,
2,0,0,1,0,48462.3,0.271776,0.271486,-1.54306,25,0.0157265,10,-0.000418918,-2.81162,-0.153195,-0.38513,23.2128,0.271486,
2,0,0,1,0,48462.3,0.26428,0.263927,-1.6993,25,0.0155733,10,-0.000448491,-2.76973,-0.190739,-0.309323,20.4719,0.263927,
2,0,0,1,0,48462.4,0.256786,0.256451,-1.81245,25,0.0154073,10,-0.000464804,-2.74173,-0.263198,-0.224166,15.9105,0.256451,
2,0,0,1,0,48462.5,0.249296,0.24896,-1.9252,25,0.0152309,10,-0.000479298,-2.71552,-0.398466,-0.148068,11.127,0.24896,
2,0,0,1,0,48462.6,0.241809,0.241495,-2.01684,25,0.0150453,10,-0.000487057,-2.69533,-0.362415,-0.162797,12.8323,0.2414953,
2,0,0,1,0,48462.7,0.23432,0.233948,-2.09785,25,0.0148514,10,-0.000490787,-2.67823,-0.39586,-0.149043,12.2519,0.233948,
2,0,0,1,0,48462.8,0.226833,0.226523,-2.18395,25,0.0146496,10,-0.000494715,-2.66076,-0.499191,-0.118191,10.0681,0.226523,
2,0,0,1,0,48462.9,0.219329,0.218987,-2.26593,25,0.01444,10,-0.000496211,-2.64475,-0.457572,-0.128942,11.3872,0.218987,
2,0,0,1,0,48463,0.21184,0.211521,-2.33524,25,0.0142237,10,-0.000493951,-2.63167,-0.531281,-0.111052,10.1308,0.2115207,
2,0,0,1,0,48463.1,0.204353,0.204034,-2.41678,25,0.0140001,10,-0.000493105,-2.61676,-0.715112,-0.0825045,7.78512,0.204034,
2,0,0,1,0,48463.2,0.196863,0.19656,-2.49627,25,0.0137694,10,-0.000490667,-2.60271,-0.55406,-0.106487,10.3696,0.19656,
2,0,0,1,0,48463.3,0.189376,0.18905,-2.57486,25,0.0135311,10,-0.000486776,-2.58925,-0.481399,-0.122559,12.3489,0.1890495,
2,0,0,1,0,48463.4,0.18188,0.181582,-2.66741,25,0.0132844,10,-0.000484353,-2.57391,-0.477185,-0.123642,12.8834,0.181582,
2,0,0,1,0,48463.5,0.174385,0.174039,-2.77655,25,0.0130284,10,-0.000483229,-2.55649,-0.425918,-0.138524,15.0202,0.174039,
2,0,0,1,0,48463.6,0.166896,0.166565,-2.9132,25,0.0127617,10,-0.000485237,-2.53563,-0.318829,-0.185052,20.975,0.166565,
2,0,0,1,0,48463.7,0.159409,0.159081,-3.07602,25,0.012481,10,-0.000489336,-2.51201,-0.273023,-0.216099,25.9741,0.159081,
2,0,0,1,0,48463.7,0.151919,0.151561,-3.327,25,0.012181,10,-0.000504244,-2.47795,-0.195663,-0.301539,39.1732,0.151561,
2,0,0,1,0,48463.8,0.144425,0.144082,-3.71356,25,0.0118517,10,-0.000535059,-2.43021,-0.130351,-0.452626,65.7401,0.144082,
2,0,0,1,0,48463.9,0.136929,0.136592,-4.31083,25,0.0114764,10,-0.000588826,-2.36544,-0.10378,-0.568508,95.7932,0.136592,
2,0,0,1,0,48464,0.129441,0.129103,-5.10353,25,0.0110357,10,-0.000658882,-2.29213,-0.107243,-0.55015,109.596,0.129103,
2,0,0,1,0,48464.1,0.121952,0.121592,-5.92449,25,0.0105182,10,-0.00072037,-2.22735,-0.13242,-0.445553,102.741,0.121592,
2,0,0,1,0,48464.2,0.114465,0.114141,-6.62932,25,0.00992868,10,-0.000756674,-2.17853,-0.179814,-0.328117,84.8257,0.114141,
2,0,0,1,0,48464.3,0.106976,0.10662,-7.17634,25,0.00928004,10,-0.000765143,-2.1441,-0.283966,-0.207771,58.1285,0.10662,
2,0,0,1,0,48464.4,0.0994721,0.099137,-7.51674,25,0.00858801,10,-0.000745186,-2.12397,-0.586855,-0.100536,29.4553,0.099137,
2,0,0,1,0,48464.5,0.0919847,0.0916599,-7.58834,25,0.00787804,10,-0.000695546,-2.11985,6.09688,0.00967708,-2.86573,0.0916599,
2,0,0,1,0,48464.6,0.0844973,0.0841712,-7.47062,25,0.00717082,10,-0.00062881,-2.12664,0.629525,0.0937215,-27.3078,0.0841712,
2,0,0,1,0,48464.7,0.0770082,0.0766549,-7.2682,25,0.00648053,10,-0.000557143,-2.13857,0.600573,0.0982395,-27.8357,0.0766549,
2,0,0,1,0,48464.8,0.0695208,0.0691876,-7.07076,25,0.00580896,10,-0.000489209,-2.15053,0.748708,0.0788024,-21.7647,0.0691876,
2,0,0,1,0,48464.9,0.0620245,0.06169,-6.91784,25,0.00515228,10,-0.000426762,-2.16003,0.729291,0.0809005,-21.8583,0.06169,
2,0,0,1,0,48465,0.0545282,0.0542123,-6.77519,25,0.00450971,10,-0.000367298,-2.16908,0.895637,0.0658749,-17.4085,0.0542123,
2,0,0,1,0,48465.1,0.0470408,0.0467283,-6.61144,25,0.00388224,10,-0.000308941,-2.1797,0.721102,0.0818192,-21.1043,0.0467283,
2,0,0,1,0,48465.2,0.0395516,0.039211,-6.43086,25,0.00327093,10,-0.000252161,-2.19173,0.59401,0.099325,-24.9107,0.039211,
2,0,0,1,0,48465.2,0.0320643,0.0317346,-6.22495,25,0.00267776,10,-0.000197546,-2.20586,0.461338,0.127889,-31.0449,0.0317346,
2,0,0,1,0,48465.3,0.0245751,0.0242186,-5.98545,25,0.00210538,10,-0.000144959,-2.2229,0.42931,0.13743,-32.1015,0.0242186,
2,0,0,1,0,48465.4,0.0170735,0.016722,-5.73969,25,0.00155453,10,-9.59793e-05,-2.24111,0.428575,0.137666,-30.8702,0.016722,
2,0,0,1,0,48465.5,0.00958429,0.00923913,-5.52788,25,0.00102634,10,-5.10727e-05,-2.25744,0.479917,0.122938,-26.5328,0.00923913,
2,0,0,1,0,48465.6,0.0020969,0.00171327,-5.40135,25,0.000516039,10,-9.25397e-06,-2.2675,1.07731,0.0547658,-11.4921,0.00171327,
2,0,0,1,0,48465.6,0.000199195,-0.000205073,-5.35429,25,0.000388438,10,1.09802e-06,-2.2713, , , ,-0.000205073,