Folder: Figs_alphaMnO2_OER_Tafel_sleope/Figure_codes/Fig_3-5/rawdata_trumpetplot_data/after 10th (part 7)

File: 20221101_1-115_003_TrumpetPlot_ParaChange_from10_every3_02_CV_C01_12.csv
mode,ox/red,error,control changes,counter inc.,time/s,control/V,Ewe/V,<I>/mA,cycle number,(Q-Qo)/C,I Range,P/W,log(|I|),Tafel slope mV/dec,alpha_eff,dI/d(E-IR),E-IR/V,
2,0,0,1,0,23981.6,2.44065e-05,-0.0002108,-0.384972,13,0.0000000E+000,10,8.1152e-08,-3.41457, , , ,-0.0002108,
2,0,0,1,0,23988.9,0.00729061,0.00694482,-0.0939595,13,-0.00092537,10,-6.52531e-07,-4.02706,-0.0306356,-1.92586,7.18409,0.006944818,
2,0,0,1,0,23996.4,0.0147815,0.0144439,-0.058552,13,-0.00138836,10,-8.45721e-07,-4.23246,-0.041997,-1.40486,3.21976,0.0144439,
2,0,0,1,0,24003.8,0.0222725,0.0219506,-0.0378877,13,-0.00165255,10,-8.31658e-07,-4.4215,-0.038414,-1.5359,2.26318,0.0219506,
2,0,0,1,0,24011.3,0.0297635,0.029435,-0.0223763,13,-0.00178324,10,-6.58648e-07,-4.65021,-0.0267966,-2.20177,1.87143,0.029435,
2,0,0,1,0,24018.8,0.0372544,0.0369076,-0.00987075,13,-0.00180511,10,-3.64306e-07,-5.00565,-0.0140559,-4.19752,1.46212,0.0369076,
2,0,0,1,0,24026.3,0.0447454,0.0444249,0.00214634,13,-0.00173546,10,9.53511e-08,-5.6683,0.00658051,8.96588,1.56516,0.0444249,
2,1,0,1,0,24033.8,0.0522363,0.0518997,0.0122412,13,-0.00158152,10,6.35313e-07,-4.91218,0.0197056,2.99407,1.4096,0.0518997,
2,1,0,1,0,24041.3,0.0597273,0.0594063,0.022429,13,-0.0013525,10,1.33242e-06,-4.64919,0.0363956,1.62108,1.3863,0.0594063,
2,1,0,1,0,24048.8,0.0672183,0.0669321,0.0304041,13,-0.00105456,10,2.03501e-06,-4.51707,0.0601265,0.981265,1.16027,0.0669321,
2,1,0,1,0,24056.3,0.0747092,0.0743761,0.0378935,13,-0.000697618,10,2.81837e-06,-4.42144,0.0807985,0.730211,1.08943,0.0743761,
2,1,0,1,0,24063.8,0.0822001,0.0818752,0.0445757,13,-0.000283327,10,3.64965e-06,-4.3509,0.132459,0.445421,0.787452,0.0818752,
2,1,0,1,0,24071.3,0.0896911,0.0893427,0.0529997,13,0.000185038,10,4.73514e-06,-4.27573,0.0806632,0.731437,1.53356,0.0893427,
2,1,0,1,0,24078.8,0.0971821,0.0968228,0.0635475,13,0.000726549,10,6.15285e-06,-4.1969,0.0874462,0.674701,1.67702,0.0968228,
2,1,0,1,0,24086.2,0.104673,0.104371,0.0754221,13,0.00135054,10,7.87185e-06,-4.1225,0.112563,0.524149,1.5318,0.104371,
2,1,0,1,0,24093.7,0.112164,0.111846,0.0844459,13,0.00205798,10,9.4449e-06,-4.07342,0.287431,0.205267,0.68134,0.111846,
2,1,0,1,0,24101.2,0.119655,0.119338,0.0937031,13,0.00283052,10,1.11824e-05,-4.02825,0.180939,0.326076,1.19038,0.119338,
2,1,0,1,0,24108.7,0.127146,0.126814,0.100682,13,0.00366875,10,1.27679e-05,-3.99705,0.668727,0.0882273,0.347166,0.126814,
2,1,0,1,0,24116.2,0.134637,0.134349,0.100756,13,0.00454052,10,1.35366e-05,-3.99673,-0.271978,-0.216929,-0.855223,0.134349,
2,1,0,1,0,24123.7,0.142128,0.141785,0.0850614,13,0.0053533,10,1.20604e-05,-4.07027,-0.0734248,-0.803543,-2.66738,0.141785,
2,1,0,1,0,24131.2,0.149619,0.149297,0.065135,13,0.0060154,10,9.72446e-06,-4.18619,-0.0801405,-0.736207,-1.89451,0.149297,
2,1,0,1,0,24138.7,0.15711,0.156754,0.0557959,13,0.00656321,10,8.74622e-06,-4.2534,-0.126465,-0.466532,-1.01402,0.156754,
2,1,0,1,0,24146.2,0.164601,0.164239,0.0519106,13,0.00705778,10,8.52576e-06,-4.28474,-0.362189,-0.162899,-0.330821,0.164239,
2,1,0,1,0,24153.7,0.172091,0.171763,0.0501879,13,0.00753117,10,8.6204e-06,-4.2994,-0.926703,-0.0636666,-0.125197,0.171763,
2,1,0,1,0,24161.2,0.179582,0.179291,0.048956,13,0.00799488,10,8.77735e-06,-4.31019,3.64121,0.0162034,0.0313014,0.179291,
2,1,0,1,0,24168.6,0.187073,0.186775,0.0496672,13,0.00845699,10,9.2766e-06,-4.30393,-1.54902,-0.0380886,-0.0739737,0.186775,
2,1,0,1,0,24176.1,0.194564,0.194198,0.0498776,13,0.00891818,10,9.68611e-06,-4.30209,0.341161,0.172939,0.33774,0.1941977,
2,1,0,1,0,24183.6,0.202055,0.201747,0.0507823,13,0.00938515,10,1.02452e-05,-4.29429,-1.25374,-0.0470592,-0.0931344,0.201747,
2,1,0,1,0,24191.1,0.209546,0.209245,0.0508088,13,0.00985523,10,1.06315e-05,-4.29406,6.65575,0.00886452,0.0177518,0.209245,
2,1,0,1,0,24198.6,0.217037,0.216765,0.0519106,13,0.0103295,10,1.12524e-05,-4.28474,0.821295,0.0718377,0.146837,0.216765,
2,1,0,1,0,24206.1,0.224528,0.224249,0.053038,13,0.0108084,10,1.18937e-05,-4.27541,0.393282,0.15002,0.3083,0.224249,
2,1,0,1,0,24213.6,0.232019,0.231693,0.0542533,13,0.0112953,10,1.25701e-05,-4.26557,-2.08822,-0.0282537,-0.0594896,0.231693,
2,1,0,1,0,24221.1,0.23951,0.239224,0.0544044,13,0.0117859,10,1.30148e-05,-4.26437,0.649253,0.0908737,0.194616,0.239224,
2,1,0,1,0,24228.6,0.247001,0.246689,0.0557404,13,0.0122848,10,1.37505e-05,-4.25383,-1.88737,-0.0312605,-0.0679419,0.246689,
2,1,0,1,0,24236.1,0.254492,0.254204,0.0564571,13,0.0127886,10,1.43516e-05,-4.24828,0.452516,0.130382,0.287782,0.254204,
2,1,0,1,0,24243.6,0.261983,0.26171,0.057226,13,0.0132988,10,1.49766e-05,-4.24241,0.856915,0.0688516,0.153912,0.26171,
2,1,0,1,0,24251,0.269474,0.269166,0.0582522,13,0.0138134,10,1.56795e-05,-4.23469,0.394066,0.149721,0.339257,0.269166,
2,1,0,1,0,24258.5,0.276965,0.276659,0.0594263,13,0.0143354,10,1.64408e-05,-4.22602,2.17767,0.0270932,0.0624378,0.276659,
2,1,0,1,0,24266,0.284456,0.284161,0.0600365,13,0.0148616,10,1.706e-05,-4.22158,1.47117,0.040104,0.0939889,0.284161,
2,1,0,1,0,24273.5,0.291947,0.29169,0.0613342,13,0.0153958,10,1.78906e-05,-4.2123,1.31367,0.0449122,0.106508,0.29169,
2,1,0,1,0,24281,0.299438,0.299133,0.0613626,13,0.0159328,10,1.83556e-05,-4.2121,-0.00467817,-12.6118,-19.9875,0.299133,
2,1,0,1,0,24287.9,0.293745,0.293418,0.0100833,13,0.016019,10,2.95863e-06,-4.9964,0.0144282,4.08922,1.62248,0.293418,
2,0,0,1,0,24295.3,0.286254,0.285935,0.00194918,13,0.0159816,10,5.57339e-07,-5.71015,0.00452707,13.0327,0.716,0.285935,
2,0,0,1,0,24302.8,0.278763,0.278475,-0.00349135,13,0.0158956,10,-9.72252e-07,-5.45701,-0.0123214,-4.78843,0.640226,0.278475,
2,0,0,1,0,24310.3,0.271272,0.270961,-0.00813943,13,0.0157722,10,-2.20546e-06,-5.08941,-0.0244698,-2.41114,0.762995,0.270961,
2,0,0,1,0,24317.8,0.263781,0.263454,-0.0118431,13,0.0156156,10,-3.1201e-06,-4.92654,-0.0698335,-0.844867,0.400641,0.263454,
2,0,0,1,0,24325.3,0.25629,0.255968,-0.0159519,13,0.0154314,10,-4.08318e-06,-4.79719,-0.0591031,-0.998255,0.629334,0.255968,
2,0,0,1,0,24332.8,0.248799,0.24851,-0.0196663,13,0.0152171,10,-4.88727e-06,-4.70628,-0.123683,-0.477026,0.361434,0.24851,
2,0,0,1,0,24340.3,0.241308,0.240998,-0.0220777,13,0.0149807,10,-5.32069e-06,-4.65605,-0.129254,-0.456467,0.38942,0.240998,
2,0,0,1,0,24347.8,0.233817,0.233483,-0.024678,13,0.0147216,10,-5.76189e-06,-4.60769,-0.280632,-0.21024,0.202936,0.233483,
2,0,0,1,0,24355.3,0.226326,0.226028,-0.0274872,13,0.0144422,10,-6.21287e-06,-4.56087,-0.170724,-0.345587,0.370521,0.226028,
2,0,0,1,0,24362.8,0.218835,0.218486,-0.0304114,13,0.0141413,10,-6.64448e-06,-4.51696,-0.250382,-0.23564,0.279168,0.218486,
2,0,0,1,0,24370.3,0.211344,0.211017,-0.0329948,13,0.0138189,10,-6.96246e-06,-4.48155,-0.155865,-0.378533,0.489579,0.211017,
2,0,0,1,0,24377.7,0.203853,0.203513,-0.0357923,13,0.0134731,10,-7.28421e-06,-4.44621,-0.215166,-0.274207,0.384266,0.203513,
2,0,0,1,0,24385.2,0.196362,0.196043,-0.0390197,13,0.0131056,10,-7.64954e-06,-4.40872,-0.177608,-0.332192,0.504808,0.196043,
2,0,0,1,0,24392.7,0.188871,0.188534,-0.0418964,13,0.0127112,10,-7.8989e-06,-4.37782,-0.224639,-0.262644,0.432397,0.188534,
2,0,0,1,0,24400.2,0.18138,0.181079,-0.0461422,13,0.0122919,10,-8.35541e-06,-4.3359,-0.218971,-0.269442,0.483105,0.181079,
2,0,0,1,0,24407.7,0.173889,0.173536,-0.0503491,13,0.0118407,10,-8.73738e-06,-4.29801,-0.189168,-0.311892,0.615022,0.173536,
2,0,0,1,0,24415.2,0.166398,0.166097,-0.0561285,13,0.0113495,10,-9.32278e-06,-4.25082,-0.165484,-0.35653,0.779164,0.166097,
2,0,0,1,0,24422.7,0.158907,0.158593,-0.0626873,13,0.0108107,10,-9.94179e-06,-4.20282,-0.11847,-0.498015,1.22275,0.158593,
2,0,0,1,0,24430.2,0.151417,0.151101,-0.0739039,13,0.0102012,10,-1.11669e-05,-4.13133,-0.0938522,-0.628648,1.82928,0.151101,
2,0,0,1,0,24437.7,0.143926,0.14363,-0.0918554,13,0.00948447,10,-1.31932e-05,-4.0369,-0.0688608,-0.856801,3.0706,0.14363,
2,0,0,1,0,24445.2,0.136435,0.136112,-0.116933,13,0.0086018,10,-1.5916e-05,-3.93206,-0.0777501,-0.758841,3.44937,0.136112,
2,0,0,1,0,24452.7,0.128944,0.128633,-0.138862,13,0.0075308,10,-1.78623e-05,-3.85742,-0.167552,-0.352129,1.89981,0.128633,
2,0,0,1,0,24460.1,0.121453,0.121094,-0.147093,13,0.00634426,10,-1.78121e-05,-3.83241,-1.58716,-0.0371733,0.212932,0.121094,
2,0,0,1,0,24467.6,0.113962,0.113636,-0.14586,13,0.00513633,10,-1.65749e-05,-3.83606,1.54952,0.0380764,-0.218539,0.113636,
2,0,0,1,0,24475.1,0.106471,0.10613,-0.143774,13,0.00394056,10,-1.52588e-05,-3.84232,1.71386,0.0344253,-0.194638,0.10613,
2,0,0,1,0,24482.6,0.0989798,0.0986562,-0.141337,13,0.0027668,10,-1.39438e-05,-3.84974,0.650339,0.0907219,-0.496667,0.0986562,
2,0,0,1,0,24490.1,0.0914889,0.091158,-0.135164,13,0.00162946,10,-1.23213e-05,-3.86914,0.404174,0.145977,-0.769907,0.091158,
2,0,0,1,0,24497.6,0.083998,0.0836812,-0.129544,13,0.000536999,10,-1.08404e-05,-3.88758,0.409966,0.143914,-0.7242,0.0836812,
2,0,0,1,0,24505.1,0.076507,0.0761947,-0.125118,13,-0.00051682,10,-9.53332e-06,-3.90268,0.579878,0.101746,-0.494249,0.0761947,
2,0,0,1,0,24512.6,0.069016,0.0686901,-0.12108,13,-0.00153879,10,-8.31701e-06,-3.91693,0.590098,0.0999834,-0.473813,0.0686901,
2,0,0,1,0,24520.1,0.0615251,0.0612111,-0.117631,13,-0.00253548,10,-7.2003e-06,-3.92948,1.05716,0.0558099,-0.256591,0.06121112,
2,0,0,1,0,24527.6,0.0540342,0.0537141,-0.115343,13,-0.00350912,10,-6.19556e-06,-3.93801,0.784001,0.075255,-0.33789,0.0537141,
2,0,0,1,0,24535.1,0.0465432,0.0461915,-0.112118,13,-0.00446199,10,-5.17889e-06,-3.95033,0.782477,0.0754016,-0.332538,0.04619154,
2,0,0,1,0,24542.5,0.0390522,0.0386902,-0.10954,13,-0.00539384,10,-4.23813e-06,-3.96043,0.723712,0.0815242,-0.34943,0.0386902,
2,0,0,1,0,24550,0.0315613,0.0312409,-0.107173,13,-0.00630458,10,-3.34819e-06,-3.96991,0.762922,0.0773343,-0.324698,0.0312409,
2,0,0,1,0,24557.5,0.0240703,0.0237681,-0.105031,13,-0.00719732,10,-2.49639e-06,-3.97868,1.3779,0.0428189,-0.176064,0.0237681,
2,0,0,1,0,24565,0.0165794,0.0162679,-0.104971,13,-0.00807905,10,-1.70767e-06,-3.97893,27.6929,0.00213051,-0.00869334,0.0162679,
2,0,0,1,0,24572.5,0.00908843,0.00873792,-0.10546,13,-0.00896178,10,-9.21503e-07,-3.97691,-1.06524,-0.0553867,0.228266,0.00873792,
2,0,0,1,0,24580,0.00159744,0.00123339,-0.109167,13,-0.00986052,10,-1.34645e-07,-3.96191, , , ,0.00123339,
2,0,0,1,0,24581.4,0.000199235,-0.00014971,-0.109446,13,-0.0100309,10,1.63851e-08,-3.9608, , , ,-0.00014971,

File: 20221101_1-115_003_TrumpetPlot_ParaChange_from10_every3_02_CV_C01_13.csv
mode,ox/red,error,control changes,counter inc.,time/s,control/V,Ewe/V,<I>/mA,cycle number,(Q-Qo)/C,I Range,P/W,log(|I|),Tafel slope mV/dec,alpha_eff,dI/d(E-IR),E-IR/V,
2,0,0,1,0,25951.7,2.44065e-05,-0.000268062,-0.378612,14,0.0000000E+000,10,1.01491e-07,-3.42181, , , ,-0.000268062,
2,0,0,1,0,25959,0.00729061,0.00699569,-0.0939187,14,-0.000917331,10,-6.57026e-07,-4.02725,-0.0313397,-1.8826,7.01223,0.00699569,
2,0,0,1,0,25966.5,0.0147815,0.0144503,-0.0589414,14,-0.00137962,10,-8.5172e-07,-4.22958,-0.0407846,-1.44663,3.32096,0.0144503,
2,0,0,1,0,25974,0.0222725,0.0220047,-0.0381573,14,-0.00164577,10,-8.3964e-07,-4.41842,-0.0369729,-1.59577,2.38585,0.0220047,
2,0,0,1,0,25981.5,0.0297635,0.0294191,-0.0228533,14,-0.00177916,10,-6.72323e-07,-4.64105,-0.029321,-2.01221,1.77291,0.0294191,
2,0,0,1,0,25989,0.0372544,0.0369395,-0.00989875,14,-0.00180661,10,-3.65655e-07,-5.00442,-0.0134107,-4.39947,1.68049,0.0369395,
2,0,0,1,0,25996.4,0.0447454,0.0444302,0.00170072,14,-0.00174029,10,7.55635e-08,-5.76937,0.00922606,6.39493,1.27879,0.0444302,
2,1,0,1,0,26003.9,0.0522363,0.0518859,0.0117726,14,-0.00159164,10,6.10829e-07,-4.92913,0.0180049,3.27688,1.44391,0.0518859,
2,1,0,1,0,26011.4,0.0597273,0.0593915,0.0205106,14,-0.0013695,10,1.21816e-06,-4.68802,0.0420976,1.4015,1.11414,0.0593915,
2,1,0,1,0,26018.9,0.0672183,0.0669002,0.0299003,14,-0.00108162,10,2.00034e-06,-4.52432,0.0617679,0.955188,1.06685,0.0669002,
2,1,0,1,0,26026.4,0.0747092,0.0743602,0.0368387,14,-0.000734672,10,2.73934e-06,-4.4337,0.0874341,0.674794,0.961433,0.0743602,
2,1,0,1,0,26033.9,0.0822001,0.0819144,0.0434952,14,-0.000331719,10,3.56288e-06,-4.36156,0.101021,0.584035,1.00409,0.0819144,
2,1,0,1,0,26041.4,0.0896911,0.089349,0.0528302,14,0.000131639,10,4.72032e-06,-4.27712,0.0791481,0.745438,1.55187,0.089349,
2,1,0,1,0,26048.9,0.0971821,0.0968197,0.0635054,14,0.0006707,10,6.14857e-06,-4.19719,0.0756169,0.780249,1.93582,0.0968197,
2,1,0,1,0,26056.4,0.104673,0.104328,0.0758331,14,0.00129308,10,7.91154e-06,-4.12014,0.128229,0.460114,1.33432,0.104328,
2,1,0,1,0,26063.9,0.112164,0.111809,0.0843904,14,0.00199607,10,9.43564e-06,-4.07371,0.234668,0.251419,0.829746,0.111809,
2,1,0,1,0,26071.4,0.119655,0.119356,0.0928489,14,0.0027667,10,1.10821e-05,-4.03222,0.251449,0.23464,0.854683,0.119356,
2,1,0,1,0,26078.8,0.127146,0.126849,0.100443,14,0.00360132,10,1.27411e-05,-3.99808,0.307462,0.191894,0.749619,0.126849,
2,1,0,1,0,26086.3,0.134637,0.134275,0.100165,14,0.00446902,10,1.34497e-05,-3.99928,-0.204275,-0.288827,-1.1264,0.134275,
2,1,0,1,0,26093.8,0.142128,0.14184,0.0848734,14,0.00527342,10,1.20384e-05,-4.07123,-0.071938,-0.82015,-2.68171,0.14184,
2,1,0,1,0,26101.3,0.149619,0.149286,0.0646507,14,0.00592806,10,9.65146e-06,-4.18943,-0.0779025,-0.757357,-1.9358,0.149286,
2,1,0,1,0,26108.8,0.15711,0.156803,0.0546125,14,0.00646771,10,8.56337e-06,-4.26271,-0.124505,-0.473877,-1.02024,0.156803,
2,1,0,1,0,26116.3,0.164601,0.164269,0.0509044,14,0.00695385,10,8.36201e-06,-4.29324,-0.881656,-0.0669195,-0.132478,0.164269,
2,1,0,1,0,26123.8,0.172091,0.171745,0.0497093,14,0.00742318,10,8.5373e-06,-4.30356,-0.458618,-0.128647,-0.249925,0.171745,
2,1,0,1,0,26131.3,0.179582,0.17926,0.0490924,14,0.00788378,10,8.8003e-06,-4.30899,-6.34746,-0.00929505,-0.017773,0.17926,
2,1,0,1,0,26138.8,0.187073,0.18678,0.0492802,14,0.00834115,10,9.20456e-06,-4.30733,0.867485,0.0680127,0.130174,0.18678,
2,1,0,1,0,26146.3,0.194564,0.194245,0.0495849,14,0.00879958,10,9.63165e-06,-4.30465,1.00147,0.0589135,0.113443,0.194245,
2,1,0,1,0,26153.8,0.202055,0.201749,0.0500495,14,0.0092607,10,1.00974e-05,-4.3006,1.29364,0.0456077,0.089283,0.201749,
2,1,0,1,0,26161.2,0.209546,0.209227,0.0509602,14,0.00972721,10,1.06622e-05,-4.29277,0.501999,0.11753,0.233926,0.209227,
2,1,0,1,0,26168.7,0.217037,0.216774,0.0523189,14,0.0101995,10,1.13414e-05,-4.28134,5.7341,0.0102893,0.0208836,0.216774,
2,1,0,1,0,26176.2,0.224528,0.224255,0.0529885,14,0.0106775,10,1.18829e-05,-4.27582,0.721767,0.0817438,0.168543,0.224255,
2,1,0,1,0,26183.7,0.232019,0.231694,0.0540965,14,0.0111631,10,1.25338e-05,-4.26683,1.66743,0.0353839,0.0752918,0.231694,
2,1,0,1,0,26191.2,0.23951,0.239198,0.0551741,14,0.0116559,10,1.31975e-05,-4.25827,0.500705,0.117834,0.253606,0.239198,
2,1,0,1,0,26198.7,0.247001,0.246649,0.0565548,14,0.0121549,10,1.39492e-05,-4.24753,0.640564,0.0921063,0.203675,0.246649,
2,1,0,1,0,26206.2,0.254492,0.254206,0.0569193,14,0.0126611,10,1.44692e-05,-4.24474,0.862526,0.0684037,0.152127,0.254206,
2,1,0,1,0,26213.7,0.261983,0.261671,0.0580941,14,0.0131728,10,1.52016e-05,-4.23587,0.7119,0.0828768,0.188317,0.261671,
2,1,0,1,0,26221.2,0.269474,0.2692,0.0587909,14,0.0136903,10,1.58265e-05,-4.23069,1.25458,0.0470276,0.10774,0.2692,
2,1,0,1,0,26228.7,0.276965,0.276679,0.0597658,14,0.0142142,10,1.6536e-05,-4.22355,6.17007,0.00956229,0.0224837,0.276679,
2,1,0,1,0,26236.2,0.284456,0.284154,0.0606779,14,0.0147434,10,1.72419e-05,-4.21697,1.92709,0.0306161,0.0724821,0.284154,
2,1,0,1,0,26243.6,0.291947,0.291652,0.0613356,14,0.0152778,10,1.78887e-05,-4.21229,0.909691,0.0648572,0.156623,0.291652,
2,1,0,1,0,26251.1,0.299438,0.299149,0.0623152,14,0.0158191,10,1.86416e-05,-4.20541,-0.00467881,-12.61,-20.3321,0.299149,
2,1,0,1,0,26258,0.293745,0.293432,0.00965479,14,0.0159081,10,2.83302e-06,-5.01526,0.0146844,4.01788,1.56772,0.293432,
2,1,0,1,0,26265.5,0.286254,0.285939,0.00210878,14,0.0158734,10,6.02983e-07,-5.67597,0.00281129,20.9868,0.832271,0.2859388,
2,0,0,1,0,26273,0.278763,0.278432,-0.00389556,14,0.0157885,10,-1.08465e-06,-5.40943,-0.0125227,-4.71145,0.604565,0.278432,
2,0,0,1,0,26280.5,0.271272,0.270995,-0.00881711,14,0.0156646,10,-2.38939e-06,-5.05467,-0.0304972,-1.9346,0.648184,0.270995,
2,1,0,1,0,26287.9,0.263781,0.263475,-0.0126844,14,0.0155056,10,-3.34204e-06,-4.89673,-0.0712015,-0.828634,0.40728,0.263475,
2,0,0,1,0,26295.4,0.25629,0.255959,-0.0158421,14,0.0153191,10,-4.05492e-06,-4.80019,-0.0881735,-0.669136,0.403143,0.255959,
2,0,0,1,0,26302.9,0.248799,0.248456,-0.019284,14,0.0151094,10,-4.79121e-06,-4.7148,-0.118983,-0.495871,0.372485,0.248456,
2,0,0,1,0,26310.4,0.241308,0.241011,-0.0216065,14,0.0148767,10,-5.2074e-06,-4.66541,-0.120379,-0.490117,0.413833,0.241011,
2,0,0,1,0,26317.9,0.233817,0.233489,-0.0245085,14,0.0146238,10,-5.72247e-06,-4.61068,-0.123136,-0.479144,0.455161,0.233489,
2,0,0,1,0,26325.4,0.226326,0.226023,-0.0276243,14,0.0143466,10,-6.24372e-06,-4.55871,-0.150172,-0.392883,0.42247,0.226023,
2,0,0,1,0,26332.9,0.218835,0.21854,-0.0303106,14,0.014047,10,-6.62408e-06,-4.51841,-0.190499,-0.309713,0.366234,0.21854,
2,0,0,1,0,26340.4,0.211344,0.211058,-0.0331822,14,0.0137253,10,-7.00337e-06,-4.4791,-0.219615,-0.268652,0.347908,0.211058,
2,0,0,1,0,26347.9,0.203853,0.203528,-0.0351279,14,0.0133841,10,-7.14953e-06,-4.45435,-0.216763,-0.272187,0.379706,0.203528,
2,0,0,1,0,26355.4,0.196362,0.196078,-0.0383656,14,0.0130212,10,-7.52265e-06,-4.41606,-0.29207,-0.202006,0.302525,0.196078,
2,0,0,1,0,26362.9,0.188871,0.188591,-0.0420576,14,0.0126353,10,-7.93171e-06,-4.37616,-0.150484,-0.392069,0.63591,0.188591,
2,0,0,1,0,26370.3,0.18138,0.181097,-0.0458643,14,0.0122212,10,-8.3059e-06,-4.33853,-0.216512,-0.272502,0.484062,0.181097,
2,0,0,1,0,26377.8,0.173889,0.173586,-0.0495062,14,0.0117779,10,-8.59357e-06,-4.30534,-0.157424,-0.374784,0.723651,0.173586,
2,0,0,1,0,26385.3,0.166398,0.16607,-0.0546851,14,0.0112965,10,-9.08158e-06,-4.26213,-0.142977,-0.412653,0.891722,0.16607,
2,0,0,1,0,26392.8,0.158907,0.158624,-0.0624042,14,0.0107646,10,-9.89882e-06,-4.20479,-0.125781,-0.469071,1.14568,0.158624,
2,0,0,1,0,26400.3,0.151417,0.151086,-0.0732943,14,0.0101645,10,-1.10737e-05,-4.13493,-0.0895264,-0.659024,1.88561,0.151086,
2,0,0,1,0,26407.8,0.143926,0.143577,-0.0904707,14,0.00945718,10,-1.29895e-05,-4.04349,-0.0672531,-0.877283,3.0978,0.143577,
2,0,0,1,0,26415.3,0.136435,0.13608,-0.115566,14,0.00858619,10,-1.57262e-05,-3.93717,-0.0783858,-0.752688,3.38184,0.13608,
2,0,0,1,0,26422.8,0.128944,0.1286,-0.137298,14,0.00752865,10,-1.76565e-05,-3.86234,-0.169602,-0.347873,1.85679,0.1285999,
2,0,0,1,0,26430.3,0.121453,0.121108,-0.146612,14,0.00635298,10,-1.7756e-05,-3.83383,-1.17085,-0.0503909,0.287493,0.121108,
2,0,0,1,0,26437.8,0.113962,0.113617,-0.145583,14,0.00515013,10,-1.65408e-05,-3.83689,1.63585,0.0360669,-0.205891,0.113617,
2,0,0,1,0,26445.3,0.106471,0.106202,-0.143911,14,0.003959,10,-1.52836e-05,-3.84191,1.44611,0.0407992,-0.230339,0.106202,
2,0,0,1,0,26452.7,0.0989798,0.098654,-0.140618,14,0.00279026,10,-1.38725e-05,-3.85196,0.67817,0.0869989,-0.475649,0.098654,
2,0,0,1,0,26460.2,0.0914889,0.0911962,-0.135634,14,0.00165627,10,-1.23693e-05,-3.86763,0.432786,0.136326,-0.719146,0.0911962,
2,0,0,1,0,26467.7,0.083998,0.0837067,-0.130026,14,0.000561268,10,-1.0884e-05,-3.88597,0.351565,0.167821,-0.849235,0.0837067,
2,0,0,1,0,26475.2,0.076507,0.076183,-0.125805,14,-0.000494024,10,-9.58419e-06,-3.9003,0.48747,0.121033,-0.590037,0.076183,
2,0,0,1,0,26482.7,0.069016,0.0686795,-0.121429,14,-0.00151811,10,-8.33968e-06,-3.91568,0.617727,0.0955114,-0.456836,0.0686795,
2,0,0,1,0,26490.2,0.0615251,0.0611878,-0.118415,14,-0.00251885,10,-7.24558e-06,-3.92659,0.660327,0.0893496,-0.414203,0.0611878,
2,0,0,1,0,26497.7,0.0540342,0.0536812,-0.116155,14,-0.00349479,10,-6.23533e-06,-3.93496,0.882523,0.0668538,-0.301996,0.0536812,
2,0,0,1,0,26505.2,0.0465432,0.0462297,-0.112736,14,-0.00445051,10,-5.21177e-06,-3.94794,1.18222,0.049906,-0.21992,0.0462297,
2,0,0,1,0,26512.7,0.0390522,0.0386732,-0.110761,14,-0.00538608,10,-4.2835e-06,-3.95561,0.527065,0.111941,-0.483036,0.0386732,
2,0,0,1,0,26520.2,0.0315613,0.0312409,-0.107611,14,-0.00630035,10,-3.36186e-06,-3.96814,0.515854,0.114373,-0.481208,0.0312409,
2,0,0,1,0,26527.7,0.0240703,0.0237172,-0.105419,14,-0.00719456,10,-2.50024e-06,-3.97708,1.11071,0.0531191,-0.220032,0.0237172,
2,0,0,1,0,26535.1,0.0165794,0.01625,-0.105307,14,-0.00807895,10,-1.71123e-06,-3.97754,-36.5476,-0.00161433,0.00662509,0.01625,
2,0,0,1,0,26542.6,0.00908843,0.00876659,-0.106115,14,-0.00896264,10,-9.30266e-07,-3.97422,-1.05874,-0.0557267,0.230478,0.00876659,
2,0,0,1,0,26550.1,0.00159744,0.00124613,-0.108999,14,-0.00986183,10,-1.35826e-07,-3.96258, , , ,0.00124613,
2,0,0,1,0,26551.5,0.000199235,-0.000136292,-0.109422,14,-0.0100318,10,1.49133e-08,-3.9609, , , ,-0.000136292,