Folder: Figs_alphaMnO2_OER_Tafel_sleope/Figure_codes/Fig_3-5/rawdata_trumpetplot_data/after 10th (part 127)

File: 20221101_1-115_003_TrumpetPlot_ParaChange_from10_every3_09_CV_C01_10.csv
mode,ox/red,error,control changes,counter inc.,time/s,control/V,Ewe/V,<I>/mA,cycle number,(Q-Qo)/C,I Range,P/W,log(|I|),Tafel slope mV/dec,alpha_eff,dI/d(E-IR),E-IR/V,
2,0,0,0,0,20883.8,2.44065e-05,-0.000325324,-5.32312,11,0.0000000E+000,10,1.73174e-06,-2.27383, , , ,-0.000325324,
2,1,0,1,0,20883.9,0.00978761,0.0094309,1.62888,11,-7.26408e-05,10,1.53618e-05,-2.78811,0.012454,4.73744,274.465,0.0094309,
2,1,0,1,0,20884,0.0197755,0.0194429,3.27549,11,0.000186035,10,6.3685e-05,-2.48472,0.0730122,0.808084,102.912,0.01944291,
2,1,0,1,0,20884.1,0.0297635,0.0294617,4.08408,11,0.000556766,10,0.000120324,-2.38891,0.137608,0.428755,68.2086,0.0294617,
2,1,0,1,0,20884.2,0.0397514,0.0394033,4.69787,11,0.000996209,10,0.000185111,-2.3281,0.1733,0.340449,62.4312,0.03940326,
2,1,0,1,0,20884.3,0.0497484,0.0494197,5.26904,11,0.00149438,10,0.000260394,-2.27827,0.224434,0.262884,53.9068,0.0494197,
2,1,0,1,0,20884.4,0.0597273,0.0593655,5.78285,11,0.00204589,10,0.000343301,-2.23786,0.257243,0.229355,51.7395,0.0593655,
2,1,0,1,0,20884.5,0.0697152,0.0694098,6.25659,11,0.00264793,10,0.000434268,-2.20366,0.328058,0.179846,43.9369,0.0694098,
2,1,0,1,0,20884.6,0.0797031,0.0793907,6.68086,11,0.00329478,10,0.000530398,-2.17517,0.373422,0.157998,41.1731,0.07939069,
2,1,0,1,0,20884.7,0.0896911,0.089378,7.04026,11,0.00398081,10,0.000629245,-2.15241,0.422477,0.139653,38.4114,0.089378,
2,1,0,1,0,20884.8,0.099679,0.0993491,7.47021,11,0.00470368,10,0.000742158,-2.12667,0.336191,0.175496,51.1184,0.0993491,
2,1,0,1,0,20884.9,0.109667,0.109373,8.09504,11,0.00547931,10,0.000885375,-2.09178,0.259421,0.22743,71.951,0.109373,
2,1,0,1,0,20885,0.119655,0.119348,8.90229,11,0.00632847,10,0.00106247,-2.0505,0.276186,0.213624,74.1676,0.119348,
2,1,0,1,0,20885.1,0.129643,0.129298,9.56129,11,0.0072527,10,0.00123626,-2.01948,0.392915,0.15016,56.0158,0.129298,
2,1,0,1,0,20885.2,0.139631,0.139298,10.0237,11,0.0082331,10,0.00139628,-1.99897,0.630954,0.0935092,36.5833,0.139298,
2,1,0,1,0,20885.3,0.149619,0.149291,10.1328,11,0.00924461,10,0.00151274,-1.99427,-0.702988,-0.0839275,-33.0838,0.149291,
2,1,0,1,0,20885.4,0.159607,0.159262,9.0535,11,0.0102155,10,0.00144188,-2.04318,-0.113494,-0.519851,-183.231,0.159262,
2,1,0,1,0,20885.5,0.169595,0.1693,7.03761,11,0.0110196,10,0.00119147,-2.15257,-0.087275,-0.676024,-185.85,0.1693,
2,1,0,1,0,20885.6,0.179582,0.179277,5.60218,11,0.0116437,10,0.00100434,-2.25164,-0.129069,-0.457118,-100.306,0.179277,
2,1,0,1,0,20885.7,0.18957,0.189228,4.87344,11,0.0121634,10,0.000922193,-2.31216,-0.215685,-0.273548,-52.1089,0.189228,
2,1,0,1,0,20885.8,0.199558,0.19925,4.48908,11,0.0126289,10,0.000894448,-2.34784,-0.387704,-0.152178,-26.6612,0.19925,
2,1,0,1,0,20885.9,0.209546,0.209216,4.25708,11,0.013065,10,0.000890649,-2.37089,-0.466096,-0.126583,-21.0569,0.209216,
2,1,0,1,0,20886,0.219534,0.219239,4.11587,11,0.0134826,10,0.000902358,-2.38554,-0.820794,-0.0718816,-11.5406,0.219239,
2,1,0,1,0,20886.1,0.229522,0.229254,4.00389,11,0.0138883,10,0.000917906,-2.39752,-0.973063,-0.0606333,-9.48937,0.229254,
2,1,0,1,0,20886.2,0.23951,0.2392,3.93745,11,0.0142853,10,0.000941839,-2.40478,-1.98441,-0.0297317,-4.56755,0.2392,
2,1,0,1,0,20886.3,0.249498,0.24921,3.88192,11,0.0146756,10,0.000967415,-2.41095,-1.85126,-0.0318701,-4.82494,0.24921,
2,1,0,1,0,20886.4,0.259486,0.259161,3.8329,11,0.015061,10,0.000993337,-2.41647,-1.28134,-0.0460455,-6.88427,0.2591607,
2,1,0,1,0,20886.5,0.269474,0.269177,3.78176,11,0.0154415,10,0.00101796,-2.42231,-2.15873,-0.0273309,-4.03891,0.269177,
2,1,0,1,0,20886.6,0.279462,0.279143,3.7412,11,0.0158177,10,0.00104433,-2.42699,-2.48535,-0.0237392,-3.4653,0.2791425,
2,1,0,1,0,20886.7,0.28945,0.289155,3.69272,11,0.0161892,10,0.00106777,-2.43265,-3.12298,-0.0188922,-2.72345,0.289155,
2,1,0,1,0,20886.8,0.299438,0.299159,3.64859,11,0.0165557,10,0.00109151,-2.43788,-0.0303375,-1.94479,-254.787,0.299159,
2,0,0,1,0,20886.9,0.291747,0.291415,-0.863787,11,0.0166123,10,-0.000251721,-3.06359,-0.0122556,-4.81413,145.775,0.291415,
2,0,0,1,0,20887,0.281759,0.281438,-1.60246,11,0.0164822,10,-0.000450993,-2.79521,-0.0841415,-0.7012,43.5582,0.281438,
2,0,0,1,0,20887.1,0.271771,0.27144,-1.93381,11,0.0163048,10,-0.000524913,-2.71359,-0.147622,-0.39967,30.0791,0.27144,
2,0,0,1,0,20887.2,0.261783,0.261458,-2.16423,11,0.0160998,10,-0.000565855,-2.6647,-0.275472,-0.214178,18.069,0.261458,
2,0,0,1,0,20887.3,0.251795,0.251501,-2.3449,11,0.0158742,10,-0.000589745,-2.62987,-0.337785,-0.174668,15.9937,0.251501,
2,0,0,1,0,20887.4,0.241807,0.241482,-2.50184,11,0.0156316,10,-0.00060415,-2.60174,-0.389572,-0.151448,14.839,0.241482,
2,0,0,1,0,20887.5,0.231815,0.231482,-2.65653,11,0.0153741,10,-0.00061494,-2.57569,-0.389657,-0.151415,15.6606,0.231482,
2,0,0,1,0,20887.6,0.221831,0.221531,-2.7835,11,0.0151029,10,-0.000616632,-2.55541,-0.494284,-0.119365,12.9501,0.221531,
2,0,0,1,0,20887.7,0.211843,0.211493,-2.91455,11,0.0148182,10,-0.000616409,-2.53543,-0.596624,-0.0988897,11.2378,0.211493,
2,0,0,1,0,20887.8,0.201856,0.201542,-3.0473,11,0.0145204,10,-0.00061416,-2.51608,-0.556433,-0.106033,12.6054,0.201542,
2,0,0,1,0,20887.9,0.191868,0.191557,-3.19276,11,0.0142088,10,-0.000611596,-2.49583,-0.458687,-0.128628,16.0506,0.191557,
2,0,0,1,0,20888,0.18188,0.181593,-3.36704,11,0.0138822,10,-0.00061143,-2.47275,-0.39506,-0.149344,19.5755,0.181593,
2,0,0,1,0,20888.1,0.171892,0.171543,-3.57198,11,0.0135365,10,-0.000612747,-2.44709,-0.360221,-0.163788,22.833,0.171543,
2,0,0,1,0,20888.2,0.161904,0.161554,-3.87484,11,0.0131657,10,-0.000625996,-2.41175,-0.245536,-0.240291,36.3706,0.1615542,
2,0,0,1,0,20888.3,0.151916,0.151592,-4.36306,11,0.0127561,10,-0.000661404,-2.36021,-0.15494,-0.380791,65.0431,0.151592,
2,0,0,1,0,20888.4,0.141928,0.141588,-5.25806,11,0.0122795,10,-0.000744481,-2.27917,-0.103022,-0.572692,117.716,0.141588,
2,0,0,1,0,20888.5,0.13194,0.131635,-6.66092,11,0.0116878,10,-0.000876809,-2.17647,-0.0971521,-0.607295,158.024,0.131635,
2,0,0,1,0,20888.6,0.121952,0.121611,-8.22354,11,0.0109423,10,-0.00100007,-2.08494,-0.135583,-0.435156,139.48,0.121611,
2,0,0,1,0,20888.7,0.111964,0.111631,-9.42145,11,0.0100564,10,-0.00105173,-2.02588,-0.223639,-0.263818,96.9151,0.111631,
2,0,0,1,0,20888.8,0.101976,0.101624,-10.1275,11,0.00907524,10,-0.0010292,-1.9945,-0.564511,-0.104515,41.2228,0.101624,
2,0,0,1,0,20888.9,0.0919883,0.0916141,-10.2224,11,0.00805368,10,-0.000936513,-1.99045,1.44392,0.0408609,-16.2927,0.0916141,
2,0,0,1,0,20889,0.0820004,0.0816368,-9.80687,11,0.00705062,10,-0.000800602,-2.00847,0.395984,0.148996,-57.0027,0.0816368,
2,0,0,1,0,20889.1,0.0720124,0.0716785,-9.27022,11,0.00609859,10,-0.000664476,-2.03291,0.47591,0.123973,-44.9099,0.0716785,
2,0,0,1,0,20889.2,0.0620245,0.0617163,-8.9049,11,0.00519172,10,-0.000549578,-2.05037,0.63607,0.0927571,-32.2375,0.06171634,
2,0,0,1,0,20889.3,0.0520366,0.0516876,-8.61607,11,0.00431657,10,-0.000445344,-2.06469,0.637554,0.0925412,-31.1144,0.0516876,
2,0,0,1,0,20889.4,0.0420486,0.0417203,-8.32271,11,0.00346992,10,-0.000347226,-2.07974,0.668241,0.0882915,-28.7014,0.0417203,
2,0,0,1,0,20889.5,0.0320607,0.0317526,-8.00141,11,0.00265456,10,-0.000254065,-2.09683,0.513097,0.114988,-35.8743,0.0317526,
2,0,0,1,0,20889.6,0.0220728,0.0217205,-7.59168,11,0.00187507,10,-0.000164895,-2.11966,0.396381,0.148847,-44.1108,0.0217205,
2,0,0,1,0,20889.7,0.0120848,0.011747,-7.1712,11,0.00113774,10,-8.42401e-05,-2.14441,0.388915,0.151704,-42.4629,0.01174699,
2,0,0,1,0,20889.8,0.0020969,0.00169706,-6.86939,11,0.000439912,10,-1.16578e-05,-2.16308,0.746201,0.0790672,-21.0756,0.00169706,
2,0,0,1,0,20889.9,-0.00789103,-0.0082225,-6.61704,11,-0.000231818,10,5.44086e-05,-2.17934,1.22553,0.0481423,-12.4527,-0.0082225,
2,0,0,1,0,20890,-0.017879,-0.0182736,-6.57481,11,-0.000889459,10,0.000120146,-2.18212,-4.88681,-0.0120733,3.09641,-0.0182736,
2,0,0,1,0,20890.1,-0.0278669,-0.028254,-6.63957,11,-0.00154901,10,0.000187594,-2.17786,-1.47137,-0.0400988,10.4072,-0.028254,
2,0,0,1,0,20890.2,-0.0378548,-0.0382037,-6.81035,11,-0.00222048,10,0.000260181,-2.16683,-0.871147,-0.0677268,17.979,-0.0382037,
2,0,0,1,0,20890.3,-0.0478428,-0.0482081,-7.0313,11,-0.00291167,10,0.000338965,-2.15296,-0.531006,-0.11111,30.5333,-0.04820805,
2,0,0,1,0,20890.4,-0.0578217,-0.0582063,-7.33364,11,-0.00362864,10,0.000426864,-2.13468,-0.523668,-0.112667,32.2381,-0.0582063,
2,0,0,1,0,20890.5,-0.0678187,-0.0682082,-7.70274,11,-0.00437926,10,0.00052539,-2.11335,-0.415645,-0.141948,42.6586,-0.0682082,
2,0,0,1,0,20890.6,-0.0778066,-0.0782029,-8.1378,11,-0.00517052,10,0.0006364,-2.08949,-0.406325,-0.145204,46.1845,-0.0782029,
2,0,0,1,0,20890.7,-0.0877945,-0.0881474,-8.67131,11,-0.00601028,10,0.000764353,-2.06192,-0.361266,-0.163315,55.281,-0.0881474,
2,0,0,1,0,20890.8,-0.0977825,-0.0981444,-9.20854,11,-0.00690399,10,0.000903767,-2.03581,-0.395003,-0.149366,53.7209,-0.0981444,
2,0,0,1,1,20890.9,-0.0927386,-0.0930468,-2.19423,11,-0.00746965,10,0.000204166,-2.65872,-0.00878985,-6.71229,554.613,-0.0930468,
2,1,0,1,1,20891,-0.0827529,-0.0831596,1.43221,11,-0.0074821,10,-0.000119102,-2.84399,0.0129802,4.54539,238.369,-0.0831596,
2,1,0,1,1,20891.1,-0.0727627,-0.0731182,3.17961,11,-0.0072424,10,-0.000232487,-2.49763,0.057221,1.03109,126.886,-0.0731182,
2,1,0,1,1,20891.2,-0.0627748,-0.06314,4.13098,11,-0.00687251,10,-0.00026083,-2.38395,0.133499,0.441952,71.142,-0.06314,
2,1,0,1,1,20891.3,-0.0527868,-0.0531196,4.6731,11,-0.00642983,10,-0.000248233,-2.3304,0.275116,0.214455,39.0601,-0.0531196,
2,1,0,1,1,20891.4,-0.0427989,-0.0431529,4.96991,11,-0.00594617,10,-0.000214466,-2.30365,0.474325,0.124387,24.1314,-0.0431529,
2,1,0,1,1,20891.5,-0.0328109,-0.0331473,5.12811,11,-0.00544108,10,-0.000169983,-2.29004,1.30737,0.0451287,9.016,-0.0331473,
2,1,0,1,1,20891.6,-0.022823,-0.0231604,5.18748,11,-0.00492558,10,-0.000120144,-2.28504,5.45634,0.0108131,2.1876,-0.0231604,
2,1,0,1,1,20891.7,-0.0128351,-0.013224,5.192,11,-0.00440697,10,-6.86591e-05,-2.28467,-10.9087,-0.00540853,-1.09583,-0.013224,
2,1,0,1,1,20891.8,-0.00284713,-0.00323573,5.19791,11,-0.00388791,10,-1.6819e-05,-2.28417,102.945,0.000573124,0.116228,-0.00323573,
2,1,0,1,1,20891.8,-2.55332e-05,-0.00042076,5.21211,11,-0.00374181,10,-2.19305e-06,-2.28299, , , ,-0.00042076,

File: 20221101_1-115_003_TrumpetPlot_ParaChange_from10_every3_09_CV_C01_11.csv
mode,ox/red,error,control changes,counter inc.,time/s,control/V,Ewe/V,<I>/mA,cycle number,(Q-Qo)/C,I Range,P/W,log(|I|),Tafel slope mV/dec,alpha_eff,dI/d(E-IR),E-IR/V,
2,0,0,0,0,22854,2.44065e-05,-0.000363498,-5.34348,12,0.0000000E+000,10,1.94234e-06,-2.27218, , , ,-0.000363498,
2,1,0,1,0,22854.1,0.00978761,0.00944131,1.94834,12,-4.51583e-05,10,1.83949e-05,-2.71034,0.0153464,3.84455,273.005,0.00944131,
2,1,0,1,0,22854.2,0.0197755,0.0194134,3.54788,12,0.000243772,10,6.88765e-05,-2.45003,0.0840418,0.702031,96.9167,0.0194134,
2,1,0,1,0,22854.3,0.0297635,0.0294613,4.32275,12,0.000640364,10,0.000127354,-2.36424,0.155087,0.38043,64.0617,0.0294613,
2,1,0,1,0,22854.4,0.0397514,0.0394265,4.92265,12,0.00110341,10,0.000194083,-2.3078,0.18068,0.326544,62.7528,0.0394265,
2,1,0,1,0,22854.5,0.0497484,0.0494561,5.48909,12,0.00162431,10,0.000271469,-2.2605,0.225457,0.261691,55.9402,0.0494561,
2,1,0,1,0,22854.6,0.0597273,0.0593867,6.00563,12,0.0021985,10,0.000356655,-2.22144,0.266789,0.221149,51.8102,0.0593867,
2,1,0,1,0,22854.7,0.0697152,0.0694367,6.47959,12,0.00282346,10,0.000449921,-2.18845,0.351581,0.167813,42.4809,0.0694367,
2,1,0,1,0,22854.8,0.0797031,0.079405,6.90214,12,0.00349342,10,0.000548064,-2.16102,0.421523,0.139969,37.7012,0.079405,
2,1,0,1,0,22854.9,0.0896911,0.0894008,7.2665,12,0.00420249,10,0.000649631,-2.13867,0.428268,0.137764,39.1043,0.0894008,
2,1,0,1,0,22854.9,0.099679,0.0993706,7.71869,12,0.00494909,10,0.000767011,-2.11246,0.334558,0.176352,53.0211,0.0993706,
2,1,0,1,0,22855,0.109667,0.109341,8.37732,12,0.00575044,10,0.000915983,-2.07689,0.242025,0.243776,79.6815,0.109341,
2,1,0,1,0,22855.1,0.119655,0.11934,9.2059,12,0.00662924,10,0.00109863,-2.03593,0.273823,0.215467,77.3754,0.11934,
2,1,0,1,0,22855.2,0.129643,0.129332,9.87717,12,0.00758506,10,0.00127744,-2.00537,0.415514,0.141993,54.7057,0.129332,
2,1,0,1,0,22855.3,0.139631,0.13932,10.3173,12,0.00859654,10,0.00143742,-1.98643,0.72239,0.0816733,32.888,0.13932,
2,1,0,1,0,22855.4,0.149619,0.149319,10.3481,12,0.00963461,10,0.00154517,-1.98514,-0.515413,-0.114471,-46.0612,0.149319,
2,1,0,1,0,22855.5,0.159607,0.1593,9.08917,12,0.010618,10,0.00144791,-2.04148,-0.105505,-0.559215,-197.896,0.1593,
2,1,0,1,0,22855.6,0.169595,0.169254,7.02364,12,0.0114217,10,0.00118878,-2.15344,-0.0881331,-0.669442,-183.685,0.169254,
2,1,0,1,0,22855.7,0.179582,0.179229,5.63336,12,0.0120467,10,0.00100966,-2.24923,-0.132486,-0.44533,-98.1316,0.179229,
2,1,0,1,0,22855.8,0.18957,0.189262,4.92575,12,0.0125706,10,0.000932258,-2.30753,-0.219387,-0.268931,-51.7155,0.189262,
2,1,0,1,0,22855.9,0.199558,0.199276,4.53341,12,0.013041,10,0.000903399,-2.34357,-0.371346,-0.158882,-28.1089,0.1992757,
2,1,0,1,0,22856,0.209546,0.209269,4.30078,12,0.0134816,10,0.000900023,-2.36645,-0.40055,-0.147297,-24.7428,0.209269,
2,1,0,1,0,22856.1,0.219534,0.219239,4.14176,12,0.0139029,10,0.000908034,-2.38282,-0.744542,-0.0792433,-12.8109,0.219239,
2,1,0,1,0,22856.2,0.229522,0.229177,4.03076,12,0.0143115,10,0.000923756,-2.39461,-0.823467,-0.0716483,-11.2859,0.229177,
2,1,0,1,0,22856.3,0.23951,0.239192,3.95581,12,0.0147108,10,0.000946198,-2.40276,-1.95748,-0.0301408,-4.65366,0.239192,
2,1,0,1,0,22856.4,0.249498,0.249218,3.89987,12,0.0151029,10,0.00097192,-2.40895,-1.58567,-0.0372082,-5.65882,0.249218,
2,1,0,1,0,22856.5,0.259486,0.259202,3.8473,12,0.0154898,10,0.000997229,-2.41484,-1.17103,-0.0503828,-7.56302,0.2592023,
2,1,0,1,0,22856.6,0.269474,0.269164,3.79386,12,0.0158718,10,0.00102117,-2.42092,-2.10821,-0.0279858,-4.14643,0.269164,
2,1,0,1,0,22856.7,0.279462,0.279197,3.75103,12,0.0162492,10,0.00104728,-2.42585,-1.65229,-0.035708,-5.23117,0.279197,
2,1,0,1,0,22856.8,0.28945,0.289146,3.70577,12,0.0166219,10,0.00107151,-2.43112,-2.24807,-0.0262447,-3.79314,0.289146,
2,1,0,1,0,22856.9,0.299438,0.299157,3.65474,12,0.0169896,10,0.00109334,-2.43714,-0.0268891,-2.19419,-285.587,0.299157,
2,0,0,1,0,22857,0.291747,0.29144,-1.03755,12,0.0170329,10,-0.000302385,-2.98399,-0.0157507,-3.74586,140.009,0.29144,
2,0,0,1,0,22857.1,0.281759,0.281442,-1.74526,12,0.0168872,10,-0.000491191,-2.75814,-0.093294,-0.63241,42.869,0.281442,
2,0,0,1,0,22857.2,0.271771,0.271451,-2.06778,12,0.016696,10,-0.000561302,-2.6845,-0.164587,-0.358473,28.8954,0.271451,
2,0,0,1,0,22857.3,0.261783,0.261474,-2.29331,12,0.0164779,10,-0.00059964,-2.63954,-0.279741,-0.21091,18.8442,0.2614738,
2,0,0,1,0,22857.4,0.251795,0.251462,-2.46691,12,0.0162401,10,-0.000620333,-2.60785,-0.350494,-0.168334,16.2351,0.251462,
2,0,0,1,0,22857.5,0.241807,0.241491,-2.62085,12,0.0159857,10,-0.000632912,-2.58156,-0.394227,-0.14966,15.3496,0.241491,
2,0,0,1,0,22857.6,0.231815,0.231527,-2.76608,12,0.0157168,10,-0.000640423,-2.55814,-0.443435,-0.133052,14.3724,0.231527,
2,0,0,1,0,22857.7,0.221831,0.221524,-2.89429,12,0.0154348,10,-0.000641154,-2.53846,-0.540221,-0.109215,12.3302,0.221524,
2,0,0,1,0,22857.8,0.211843,0.211534,-3.02455,12,0.0151395,10,-0.000639796,-2.51934,-0.714037,-0.0826287,9.74793,0.211534,
2,0,0,1,0,22857.9,0.201856,0.201573,-3.15755,12,0.0148311,10,-0.000636477,-2.50065,-0.520423,-0.113369,13.9637,0.201573,
2,0,0,1,0,22858,0.191868,0.191519,-3.30322,12,0.0145089,10,-0.00063263,-2.48106,-0.458606,-0.128651,16.6067,0.191519,
2,0,0,1,0,22858.1,0.18188,0.181573,-3.48127,12,0.0141716,10,-0.000632104,-2.45826,-0.360401,-0.163706,22.1701,0.181573,
2,0,0,1,0,22858.2,0.171892,0.171538,-3.69096,12,0.0138147,10,-0.000633139,-2.43286,-0.334624,-0.176317,25.4084,0.171538,
2,0,0,1,0,22858.3,0.161904,0.161546,-4.01157,12,0.0134316,10,-0.000648053,-2.39669,-0.235496,-0.250535,39.2015,0.1615459,
2,0,0,1,0,22858.4,0.151916,0.151568,-4.53044,12,0.0130076,10,-0.00068667,-2.34386,-0.150761,-0.391348,69.4421,0.151568,
2,0,0,1,0,22858.5,0.141928,0.141593,-5.49476,12,0.0125119,10,-0.000778022,-2.26005,-0.10152,-0.581166,124.69,0.141593,
2,0,0,1,0,22858.6,0.13194,0.131624,-6.98114,12,0.0118933,10,-0.000918889,-2.15607,-0.0974909,-0.605185,164.939,0.131624,
2,0,0,1,0,22858.7,0.121952,0.121608,-8.59714,12,0.0111134,10,-0.00104548,-2.06565,-0.137499,-0.429094,143.706,0.121608,
2,0,0,1,0,22858.8,0.111964,0.11166,-9.79636,12,0.0101906,10,-0.00109386,-2.00894,-0.236229,-0.249757,95.3825,0.11166,
2,0,0,1,0,22858.9,0.101976,0.101633,-10.4544,12,0.00917419,10,-0.00106252,-1.9807,-0.749011,-0.0787706,32.0882,0.101633,
2,0,0,1,0,22859,0.0919883,0.0916345,-10.4617,12,0.00812451,10,-0.000958649,-1.9804,0.914983,0.0644821,-26.3158,0.0916345,
2,0,0,1,0,22859.1,0.0820004,0.0816987,-9.9628,12,0.00710267,10,-0.000813947,-2.00162,0.37238,0.15844,-61.6015,0.0816987,
2,0,0,1,0,22859.2,0.0720124,0.0716916,-9.41221,12,0.00613664,10,-0.000674776,-2.02631,0.462846,0.127472,-46.8689,0.0716916,
2,0,0,1,0,22859.3,0.0620245,0.0617072,-9.04058,12,0.00521639,10,-0.000557869,-2.0438,0.595586,0.0990622,-34.9611,0.06170721,
2,0,0,1,0,22859.4,0.0520366,0.0517071,-8.73804,12,0.00432873,10,-0.000451819,-2.05859,0.630934,0.0935121,-31.8802,0.0517071,
2,0,0,1,0,22859.5,0.0420486,0.0417244,-8.4235,12,0.0034713,10,-0.000351466,-2.07451,0.613954,0.0960984,-31.6106,0.0417244,
2,0,0,1,0,22859.6,0.0320607,0.0316658,-8.07492,12,0.0026477,10,-0.000255699,-2.09286,0.463813,0.127206,-40.0539,0.0316658,
2,0,0,1,0,22859.7,0.0220728,0.021737,-7.63817,12,0.00186296,10,-0.000166031,-2.11701,0.387067,0.152429,-45.4396,0.021737,
2,0,0,1,0,22859.8,0.0120848,0.0117906,-7.20157,12,0.00112271,10,-8.49105e-05,-2.14257,0.396738,0.148713,-41.8045,0.0117906,
2,0,0,1,0,22859.9,0.0020969,0.0017565,-6.91088,12,0.000422098,10,-1.21389e-05,-2.16047,0.834365,0.0707124,-18.9629,0.0017565,
2,0,0,1,0,22860,-0.00789103,-0.00825279,-6.6683,12,-0.00025363,10,5.50321e-05,-2.17598,1.41561,0.0416782,-10.8693,-0.00825279,
2,0,0,1,0,22860.1,-0.017879,-0.0182135,-6.65092,12,-0.000916941,10,0.000121136,-2.17712,-4.54475,-0.012982,3.36732,-0.0182135,
2,0,0,1,0,22860.2,-0.0278669,-0.0281959,-6.72938,12,-0.00158391,10,0.000189741,-2.17203,-1.23763,-0.0476716,12.5347,-0.02819586,
2,0,0,1,0,22860.3,-0.0378548,-0.0382377,-6.91875,12,-0.00226452,10,0.000264557,-2.15997,-0.76933,-0.0766901,20.6797,-0.0382377,
2,0,0,1,0,22860.4,-0.0478428,-0.0482141,-7.15866,12,-0.00296656,10,0.000345149,-2.14517,-0.504128,-0.117034,32.7174,-0.0482141,
2,0,0,1,0,22860.5,-0.0578216,-0.0581985,-7.47517,12,-0.0036961,10,0.000435044,-2.12638,-0.494888,-0.119219,34.7725,-0.0581985,
2,0,0,1,0,22860.6,-0.0678187,-0.0681675,-7.86785,12,-0.00446145,10,0.000536331,-2.10414,-0.400189,-0.14743,45.2517,-0.0681675,
2,0,0,1,0,22860.7,-0.0778066,-0.0781717,-8.34108,12,-0.00527036,10,0.000652036,-2.07878,-0.384816,-0.15332,49.9468,-0.0781717,
2,0,0,1,0,22860.8,-0.0877945,-0.0881631,-8.90404,12,-0.00613109,10,0.000785008,-2.05041,-0.34397,-0.171526,59.5808,-0.0881631,
2,0,0,1,0,22860.9,-0.0977825,-0.0981392,-9.47108,12,-0.00704922,10,0.000929484,-2.0236,-0.37917,-0.155603,57.5464,-0.0981392,
2,0,0,1,1,22861,-0.0927386,-0.0930455,-1.97604,12,-0.00761479,10,0.000183862,-2.7042,-0.00748742,-7.87988,573.389,-0.0930455,
2,1,0,1,1,22861.1,-0.0827529,-0.083137,1.72546,12,-0.00760057,10,-0.00014345,-2.76309,0.0156628,3.7669,242.375,-0.083137,
2,1,0,1,1,22861.2,-0.0727627,-0.0730999,3.48357,12,-0.00733072,10,-0.000254649,-2.45798,0.0628211,0.939174,126.714,-0.0730999,
2,1,0,1,1,22861.3,-0.0627748,-0.0631213,4.42255,12,-0.00693101,10,-0.000279157,-2.35433,0.141953,0.41563,71.636,-0.0631213,
2,1,0,1,1,22861.4,-0.0527868,-0.053103,4.95503,12,-0.00645971,10,-0.000263127,-2.30495,0.311102,0.189648,36.6159,-0.053103,
2,1,0,1,1,22861.5,-0.0427989,-0.0431647,5.23787,12,-0.00594901,10,-0.000226091,-2.28084,0.653574,0.0902729,18.4216,-0.0431647,
2,1,0,1,1,22861.6,-0.0328109,-0.0331408,5.37099,12,-0.0054197,10,-0.000177999,-2.26995,1.48444,0.0397456,8.32048,-0.0331408,
2,1,0,1,1,22861.7,-0.022823,-0.0231758,5.41493,12,-0.00488098,10,-0.000125495,-2.26641,37.6687,0.00156629,0.330641,-0.0231758,
2,1,0,1,1,22861.8,-0.0128351,-0.0131494,5.40398,12,-0.00434047,10,-7.10591e-05,-2.26729,-3.10638,-0.0189932,-4.00814,-0.0131494,
2,1,0,1,1,22861.9,-0.00284713,-0.00318054,5.39245,12,-0.00380094,10,-1.71509e-05,-2.26821,-4.8058,-0.0122768,-2.58538,-0.00318054,
2,1,0,1,1,22862,-2.55332e-05,-0.00042076,5.40165,12,-0.00364937,10,-2.2728e-06,-2.26747, , , ,-0.00042076,