Folder: Figs_alphaMnO2_OER_Tafel_sleope/Figure_codes/Fig_3-5/rawdata_trumpetplot_data/after 10th (part 114)

File: 20221101_1-115_003_TrumpetPlot_ParaChange_from10_every3_08_CV_C01_19.csv
mode,ox/red,error,control changes,counter inc.,time/s,control/V,Ewe/V,<I>/mA,cycle number,(Q-Qo)/C,I Range,P/W,log(|I|),Tafel slope mV/dec,alpha_eff,dI/d(E-IR),E-IR/V,
2,0,0,0,0,38607.5,2.44065e-05,-0.000363498,-4.00527,20,0.0000000E+000,10,1.45591e-06,-2.39737, , , ,-0.000363498,
2,1,0,1,0,38607.6,0.0072942,0.00698887,0.873814,20,-7.70698e-05,10,6.10697e-06,-3.05858,0.00451763,13.0599,301.458,0.00698887,
2,1,0,1,0,38607.7,0.0147816,0.0144503,2.25332,20,8.05785e-05,10,3.25611e-05,-2.64718,0.0442936,1.33202,115.791,0.0144503,
2,1,0,1,0,38607.8,0.0222707,0.0219615,2.91148,20,0.000326108,10,6.39404e-05,-2.53589,0.100423,0.587513,66.3743,0.0219615,
2,1,0,1,0,38607.9,0.0297581,0.029396,3.32624,20,0.000619769,10,9.77782e-05,-2.47805,0.147544,0.39988,51.8431,0.029396,
2,1,0,1,0,38608,0.0372544,0.0369469,3.68135,20,0.000949779,10,0.000136015,-2.43399,0.199558,0.295654,42.4759,0.0369469,
2,1,0,1,0,38608.1,0.0447507,0.0444494,4.01988,20,0.00131203,10,0.000178682,-2.39579,0.219723,0.26852,42.0942,0.04444943,
2,1,0,1,0,38608.1,0.0522381,0.0518972,4.33127,20,0.00170432,10,0.000224781,-2.36339,0.227426,0.259425,43.9128,0.0518972,
2,1,0,1,0,38608.2,0.0597273,0.0593876,4.63582,20,0.00212566,10,0.00027531,-2.33387,0.283654,0.208,37.6416,0.0593876,
2,1,0,1,0,38608.3,0.0672147,0.0668924,4.92922,20,0.00257448,10,0.000329727,-2.30722,0.312096,0.189044,36.2904,0.0668924,
2,1,0,1,0,38608.4,0.0747038,0.0743906,5.18249,20,0.00304857,10,0.000385529,-2.28546,0.357306,0.165125,33.3742,0.0743906,
2,1,0,1,0,38608.5,0.0822055,0.0818367,5.39739,20,0.00354651,10,0.000441705,-2.26782,0.501621,0.117619,24.8075,0.0818367,
2,1,0,1,0,38608.6,0.0896946,0.0893414,5.60723,20,0.00406302,10,0.000500958,-2.25125,0.515928,0.114357,25.0254,0.0893414,
2,1,0,1,0,38608.7,0.097182,0.0968387,5.83094,20,0.00459904,10,0.000564661,-2.23426,0.353111,0.167086,38.0397,0.0968387,
2,1,0,1,0,38608.8,0.104671,0.104349,6.15556,20,0.00515996,10,0.000642327,-2.21073,0.276028,0.213747,51.3472,0.104349,
2,1,0,1,0,38608.9,0.112159,0.111843,6.59092,20,0.00575636,10,0.000737151,-2.18105,0.243531,0.242269,62.2524,0.111843,
2,1,0,1,0,38609,0.119655,0.119333,7.0748,20,0.0063973,10,0.000844257,-2.15029,0.270207,0.218351,60.1851,0.119333,
2,1,0,1,0,38609.1,0.127149,0.126831,7.45377,20,0.00708012,10,0.000945367,-2.12762,0.393396,0.149976,43.6664,0.126831,
2,1,0,1,0,38609.2,0.134639,0.134313,7.74484,20,0.0077939,10,0.00104023,-2.11099,0.648094,0.0910362,27.4988,0.134313,
2,1,0,1,0,38609.3,0.142126,0.141798,7.90398,20,0.00852844,10,0.00112077,-2.10215,1.3671,0.0431569,13.2918,0.141798,
2,1,0,1,0,38609.4,0.149615,0.149309,7.78532,20,0.00926732,10,0.00116242,-2.10872,-0.366171,-0.161127,-48.8451,0.149309,
2,1,0,1,0,38609.5,0.157103,0.156799,7.10942,20,0.00997014,10,0.00111475,-2.14817,-0.123313,-0.478459,-132.222,0.156799,
2,1,0,1,0,38609.6,0.164606,0.164273,5.97257,20,0.0105857,10,0.000981135,-2.22384,-0.0889288,-0.663452,-154.678,0.164273,
2,1,0,1,0,38609.6,0.172095,0.171765,4.96037,20,0.0110962,10,0.000852019,-2.30449,-0.103736,-0.56875,-110.556,0.171765,
2,1,0,1,0,38609.7,0.179582,0.17926,4.31764,20,0.0115293,10,0.000773978,-2.36475,-0.140707,-0.419312,-70.77,0.17926,
2,1,0,1,0,38609.8,0.18707,0.186833,3.92267,20,0.011914,10,0.000732884,-2.40642,-0.219379,-0.268941,-41.1208,0.186833,
2,1,0,1,0,38609.9,0.194559,0.194263,3.66234,20,0.012269,10,0.000711459,-2.43624,-0.358715,-0.164476,-23.5605,0.1942634,
2,1,0,1,0,38610,0.202062,0.201804,3.49873,20,0.0126055,10,0.000706057,-2.45609,-0.437169,-0.134959,-18.435,0.201804,
2,1,0,1,0,38610.1,0.20955,0.209224,3.397,20,0.0129288,10,0.000710735,-2.4689,-0.555733,-0.106166,-14.05,0.2092241,
2,1,0,1,0,38610.2,0.217039,0.21672,3.30135,20,0.0132431,10,0.000715469,-2.48131,-1.022,-0.0577301,-7.45519,0.21672,
2,1,0,1,0,38610.3,0.224526,0.224234,3.24399,20,0.0135508,10,0.000727412,-2.48892,-0.831817,-0.070929,-8.99058,0.224234,
2,1,0,1,0,38610.4,0.232016,0.231722,3.20351,20,0.0138535,10,0.000742324,-2.49437,-2.45729,-0.0240102,-2.99491,0.231722,
2,1,0,1,0,38610.5,0.23951,0.23919,3.15628,20,0.0141524,10,0.000754952,-2.50082,-2.70588,-0.0218044,-2.6881,0.23919,
2,1,0,1,0,38610.6,0.247006,0.246721,3.12955,20,0.0144481,10,0.000772127,-2.50452,-1.1189,-0.0527304,-6.43039,0.246721,
2,1,0,1,0,38610.7,0.254494,0.25422,3.10193,20,0.0147406,10,0.000788574,-2.50837,-1.91069,-0.0308789,-3.73541,0.2542204,
2,1,0,1,0,38610.8,0.261983,0.261632,3.07043,20,0.0150305,10,0.000803323,-2.5128,-2.33397,-0.0252788,-3.03135,0.261632,
2,1,0,1,0,38610.9,0.26947,0.269143,3.04517,20,0.0153179,10,0.000819585,-2.51639,-2.09614,-0.028147,-3.34886,0.269143,
2,1,0,1,0,38611,0.276959,0.276676,3.02717,20,0.0156031,10,0.000837545,-2.51896,-2.46159,-0.0239682,-2.82866,0.276676,
2,1,0,1,0,38611.1,0.284461,0.284149,2.99172,20,0.0158864,10,0.000850093,-2.52408,-207.676,-0.000284097,-0.0331959,0.284149,
2,1,0,1,0,38611.1,0.29195,0.291679,2.96693,20,0.0161667,10,0.000865391,-2.52769,-0.967306,-0.0609942,-7.06353,0.291679,
2,1,0,1,0,38611.2,0.299438,0.299141,2.9418,20,0.0164445,10,0.000880015,-2.53139,-0.0295134,-1.99909,-211.301,0.299141,
2,0,0,1,0,38611.3,0.29424,0.293936,-0.316122,20,0.0165175,10,-9.29197e-05,-3.50015,-0.00756272,-7.80143,202.202,0.293936,
2,0,0,1,0,38611.4,0.286753,0.286423,-1.09119,20,0.0164431,10,-0.000312542,-2.9621,-0.0446784,-1.32055,55.5597,0.286423,
2,0,0,1,0,38611.5,0.279264,0.278964,-1.3993,20,0.0163241,10,-0.000390353,-2.85409,-0.102791,-0.573979,31.2372,0.278964,
2,0,0,1,0,38611.6,0.271776,0.271479,-1.58562,20,0.0161827,10,-0.000430463,-2.7998,-0.156393,-0.377254,23.4273,0.2714794,
2,0,0,1,0,38611.7,0.26428,0.263956,-1.73991,20,0.0160255,10,-0.00045926,-2.75947,-0.246776,-0.239083,16.2046,0.263956,
2,0,0,1,0,38611.8,0.256786,0.256444,-1.86224,20,0.015856,10,-0.000477561,-2.72996,-0.275091,-0.214475,15.5307,0.256444,
2,0,0,1,0,38611.9,0.249296,0.248979,-1.95815,20,0.0156763,10,-0.000487539,-2.70815,-0.341583,-0.172725,13.1971,0.248979,
2,0,0,1,0,38612,0.241809,0.241504,-2.05065,20,0.0154874,10,-0.00049524,-2.68811,-0.438391,-0.134583,10.796,0.241504,
2,0,0,1,0,38612.1,0.23432,0.233969,-2.13999,20,0.0152901,10,-0.000500692,-2.66959,-0.366354,-0.161047,13.456,0.233969,
2,0,0,1,0,38612.2,0.226833,0.226518,-2.21728,20,0.0150849,10,-0.000502254,-2.65418,-0.40622,-0.145242,12.5834,0.226518,
2,0,0,1,0,38612.3,0.219329,0.218995,-2.30238,20,0.014872,10,-0.00050421,-2.63782,-0.564693,-0.104481,9.37704,0.218995,
2,0,0,1,0,38612.3,0.21184,0.211492,-2.38398,20,0.014652,10,-0.000504192,-2.6227,-0.521623,-0.113108,10.4889,0.211492,
2,0,0,1,0,38612.4,0.204353,0.20397,-2.45699,20,0.0144248,10,-0.000501151,-2.6096,-0.550748,-0.107127,10.2721,0.20397,
2,0,0,1,0,38612.5,0.196863,0.196526,-2.53226,20,0.0141902,10,-0.000497654,-2.59649,-0.635379,-0.092858,9.19619,0.196526,
2,0,0,1,0,38612.6,0.189376,0.18906,-2.62687,20,0.0139477,10,-0.000496637,-2.58056,-0.465089,-0.126858,13.013,0.18906,
2,0,0,1,0,38612.7,0.18188,0.181555,-2.71641,20,0.0136964,10,-0.000493177,-2.56601,-0.412854,-0.142908,15.1823,0.181555,
2,0,0,1,0,38612.8,0.174385,0.174053,-2.83377,20,0.0134352,10,-0.000493226,-2.54763,-0.429976,-0.137217,15.1927,0.174053,
2,0,0,1,0,38612.9,0.166896,0.166534,-2.98851,20,0.0131623,10,-0.000497689,-2.52454,-0.328922,-0.179374,20.8447,0.166534,
2,0,0,1,0,38613,0.159409,0.159097,-3.17485,20,0.0128739,10,-0.000505109,-2.49828,-0.227406,-0.259448,32.136,0.159097,
2,0,0,1,0,38613.1,0.151919,0.151538,-3.45333,20,0.0125635,10,-0.000523311,-2.46176,-0.177905,-0.331638,44.8434,0.151538,
2,0,0,1,0,38613.2,0.144425,0.144114,-3.9105,20,0.0122191,10,-0.000563556,-2.40777,-0.119335,-0.494409,75.597,0.144114,
2,0,0,1,0,38613.3,0.136929,0.136605,-4.60127,20,0.0118212,10,-0.000628556,-2.33712,-0.0946844,-0.623123,111.969,0.1366047,
2,0,0,1,0,38613.4,0.129441,0.129093,-5.48865,20,0.0113486,10,-0.000708547,-2.26053,-0.104263,-0.565878,121.205,0.129093,
2,0,0,1,0,38613.5,0.121952,0.121628,-6.37622,20,0.0107918,10,-0.000775524,-2.19544,-0.137094,-0.430362,106.826,0.121628,
2,0,0,1,0,38613.6,0.114465,0.114123,-7.10291,20,0.010159,10,-0.000810607,-2.14856,-0.188074,-0.313706,86.8456,0.114123,
2,0,0,1,0,38613.7,0.106976,0.106633,-7.6195,20,0.00946698,10,-0.000812486,-2.11807,-0.32826,-0.179735,53.4556,0.106633,
2,0,0,1,0,38613.8,0.0994721,0.0991298,-7.90937,20,0.00873527,10,-0.000784054,-2.10186,-1.09214,-0.0540226,16.6411,0.0991298,
2,0,0,1,0,38613.8,0.0919847,0.0916657,-7.89963,20,0.00799258,10,-0.000724124,-2.10239,1.26236,0.0467378,-14.4003,0.0916657,
2,0,0,1,0,38613.9,0.0844973,0.0841609,-7.68394,20,0.00726089,10,-0.000646687,-2.11442,0.495794,0.119001,-35.7024,0.0841609,
2,0,0,1,0,38614,0.0770082,0.0766562,-7.42414,20,0.00655312,10,-0.000569106,-2.12935,0.464756,0.126948,-36.7579,0.0766562,
2,0,0,1,0,38614.1,0.0695208,0.0692047,-7.20647,20,0.00586839,10,-0.000498721,-2.14228,0.722461,0.0816654,-22.9654,0.0692047,
2,0,0,1,0,38614.2,0.0620245,0.061695,-7.0256,20,0.00520041,10,-0.000433444,-2.15332,0.711363,0.0829394,-22.7749,0.061695,
2,0,0,1,0,38614.3,0.0545282,0.0542208,-6.87865,20,0.00454785,10,-0.000372966,-2.1625,0.770623,0.0765615,-20.5423,0.0542208,
2,0,0,1,0,38614.4,0.0470408,0.0466847,-6.70363,20,0.00391134,10,-0.000312957,-2.17369,0.734504,0.0803263,-21.0179,0.0466847,
2,0,0,1,0,38614.5,0.0395516,0.0392134,-6.51674,20,0.00329174,10,-0.000255543,-2.18597,0.586507,0.100595,-25.565,0.0392134,
2,0,0,1,0,38614.6,0.0320643,0.0317223,-6.3037,20,0.00269096,10,-0.000199968,-2.2004,0.431426,0.136756,-33.6041,0.0317223,
2,0,0,1,0,38614.7,0.0245751,0.0242564,-6.05754,20,0.00211176,10,-0.000146934,-2.2177,0.407175,0.144901,-34.2276,0.0242564,
2,0,0,1,0,38614.8,0.0170735,0.0167619,-5.80053,20,0.00155469,10,-9.7228e-05,-2.23653,0.460154,0.128218,-29.0676,0.0167619,
2,0,0,1,0,38614.9,0.00958429,0.00921629,-5.5941,20,0.00102064,10,-5.15568e-05,-2.25227,0.496704,0.118783,-25.907,0.00921629,
2,0,0,1,0,38615,0.0020969,0.0017419,-5.47197,20,0.000504594,10,-9.53163e-06,-2.26186,0.995195,0.0592848,-12.5817,0.001741901,
2,0,0,1,0,38615,0.000199195,-0.000189804,-5.41319,20,0.000375464,10,1.02744e-06,-2.26655, , , ,-0.0001898036,

File: 20221101_1-115_003_TrumpetPlot_ParaChange_from10_every3_08_CV_C01_20.csv
mode,ox/red,error,control changes,counter inc.,time/s,control/V,Ewe/V,<I>/mA,cycle number,(Q-Qo)/C,I Range,P/W,log(|I|),Tafel slope mV/dec,alpha_eff,dI/d(E-IR),E-IR/V,
2,0,0,0,0,40577.6,2.44065e-05,-0.000229887,-4.02435,21,0.0000000E+000,10,9.25145e-07,-2.3953, , , ,-0.000229887,
2,1,0,1,0,40577.7,0.0072942,0.00696637,0.585925,21,-9.9228e-05,10,4.08177e-06,-3.23216,0.00390614,15.1044,304.248,0.006966373,
2,1,0,1,0,40577.8,0.0147816,0.014423,2.01839,21,3.35676e-05,10,2.91113e-05,-2.695,0.0360393,1.6371,127.098,0.014423,
2,1,0,1,0,40577.9,0.0222707,0.0219492,2.72604,21,0.000259976,10,5.98344e-05,-2.56447,0.0867435,0.680166,72.0867,0.0219492,
2,1,0,1,0,40578,0.0297581,0.0294093,3.18735,21,0.000538585,10,9.37378e-05,-2.49657,0.136789,0.431322,53.504,0.0294093,
2,1,0,1,0,40578.1,0.0372544,0.0369509,3.55134,21,0.000855725,10,0.000131225,-2.44961,0.173097,0.34085,47.2827,0.0369509,
2,1,0,1,0,40578.2,0.0447507,0.0444856,3.88891,21,0.00120599,10,0.000173,-2.41017,0.213865,0.275875,41.9247,0.0444856,
2,1,0,1,0,40578.3,0.0522381,0.0518979,4.21679,21,0.00158664,10,0.000218843,-2.37502,0.230197,0.256302,42.1671,0.0518979,
2,1,0,1,0,40578.4,0.0597273,0.0593771,4.51342,21,0.00199654,10,0.000267994,-2.34549,0.255217,0.231176,40.7521,0.0593771,
2,1,0,1,0,40578.5,0.0672147,0.0669506,4.80563,21,0.0024338,10,0.00032174,-2.31825,0.298878,0.197405,36.9726,0.0669506,
2,1,0,1,0,40578.6,0.0747038,0.0743916,5.06406,21,0.00289661,10,0.000376724,-2.2955,0.358976,0.164357,32.4445,0.0743916,
2,1,0,1,0,40578.7,0.0822055,0.0818974,5.28847,21,0.0033833,10,0.000433112,-2.27667,0.408949,0.144272,29.7787,0.0818974,
2,1,0,1,0,40578.7,0.0896946,0.0893701,5.48878,21,0.00388901,10,0.000490532,-2.26052,0.471973,0.125007,26.8077,0.0893701,
2,1,0,1,0,40578.8,0.097182,0.0968605,5.70577,21,0.00441389,10,0.000552664,-2.24369,0.419455,0.140659,31.3252,0.0968605,
2,1,0,1,0,40578.9,0.104671,0.104352,6.00054,21,0.00496188,10,0.00062617,-2.22181,0.270306,0.218271,51.1434,0.104352,
2,1,0,1,0,40579,0.112159,0.11182,6.40043,21,0.00554279,10,0.000715697,-2.19379,0.258694,0.228069,56.9844,0.11182,
2,1,0,1,0,40579.1,0.119655,0.119338,6.86259,21,0.00616493,10,0.000818965,-2.16351,0.280708,0.210183,56.234,0.119338,
2,1,0,1,0,40579.2,0.127149,0.126853,7.25092,21,0.00682793,10,0.000919804,-2.13961,0.360978,0.163445,46.248,0.126853,
2,1,0,1,0,40579.3,0.134639,0.134337,7.53974,21,0.00752245,10,0.00101286,-2.12264,0.538704,0.109522,32.2296,0.134337,
2,1,0,1,0,40579.4,0.142126,0.141787,7.72731,21,0.0082392,10,0.00109563,-2.11197,1.17894,0.0500449,15.0855,0.141787,
2,1,0,1,0,40579.5,0.149615,0.149316,7.68827,21,0.00896439,10,0.00114798,-2.11417,-0.53339,-0.110613,-33.0865,0.149316,
2,1,0,1,0,40579.6,0.157103,0.156778,7.13966,21,0.00966359,10,0.00111934,-2.14632,-0.149394,-0.394928,-109.696,0.156778,
2,1,0,1,0,40579.7,0.164606,0.164287,6.13859,21,0.0102893,10,0.00100849,-2.21193,-0.0965209,-0.611267,-146.374,0.164287,
2,1,0,1,0,40579.8,0.172095,0.171781,5.17224,21,0.0108174,10,0.000888491,-2.28632,-0.105524,-0.559113,-112.943,0.171781,
2,1,0,1,0,40579.9,0.179582,0.179285,4.48102,21,0.0112677,10,0.000803382,-2.34862,-0.145364,-0.405877,-71.1648,0.1792853,
2,1,0,1,0,40580,0.18707,0.186723,4.03982,21,0.0116663,10,0.000754326,-2.39364,-0.199388,-0.295905,-46.7067,0.186723,
2,1,0,1,0,40580.1,0.194559,0.194215,3.76077,21,0.0120313,10,0.000730397,-2.42472,-0.282869,-0.208577,-30.635,0.194215,
2,1,0,1,0,40580.2,0.202062,0.201714,3.56353,21,0.0123751,10,0.000718815,-2.44812,-0.417508,-0.141315,-19.6648,0.201714,
2,1,0,1,0,40580.2,0.20955,0.209246,3.43839,21,0.0127034,10,0.000719468,-2.46365,-0.44373,-0.132964,-17.836,0.209246,
2,1,0,1,0,40580.3,0.217039,0.216716,3.33788,21,0.0130211,10,0.000723372,-2.47653,-0.617968,-0.0954742,-12.4418,0.216716,
2,1,0,1,0,40580.4,0.224526,0.224183,3.26555,21,0.0133311,10,0.000732082,-2.48604,-0.925423,-0.0637546,-8.13266,0.224183,
2,1,0,1,0,40580.5,0.232016,0.231676,3.20663,21,0.0136352,10,0.000742897,-2.49395,-1.06199,-0.0555563,-6.96161,0.231676,
2,1,0,1,0,40580.6,0.23951,0.239193,3.17341,21,0.0139351,10,0.000759058,-2.49847,-1.43082,-0.0412352,-5.09598,0.239193,
2,1,0,1,0,40580.7,0.247006,0.246699,3.1319,21,0.0142312,10,0.000772638,-2.50419,-2.41541,-0.0244265,-2.98239,0.246699,
2,1,0,1,0,40580.8,0.254494,0.254182,3.0988,21,0.0145238,10,0.000787658,-2.50881,-1.43859,-0.0410125,-4.96316,0.254182,
2,1,0,1,0,40580.9,0.261983,0.261683,3.06965,21,0.0148136,10,0.000803275,-2.51291,-1.11854,-0.0527473,-6.32242,0.2616829,
2,1,0,1,0,40581,0.26947,0.269164,3.04192,21,0.0151008,10,0.000818776,-2.51685,-4.11067,-0.0143529,-1.70698,0.269164,
2,1,0,1,0,40581.1,0.276959,0.276658,3.01416,21,0.0153857,10,0.000833892,-2.52083,-2.2323,-0.0264301,-3.11581,0.276658,
2,1,0,1,0,40581.2,0.284461,0.284169,2.99637,21,0.0156687,10,0.000851474,-2.52341,-1.829,-0.032258,-3.76553,0.284169,
2,1,0,1,0,40581.3,0.29195,0.291666,2.96927,21,0.0159487,10,0.000866036,-2.52735,-2.93577,-0.020097,-2.32826,0.291666,
2,1,0,1,0,40581.4,0.299438,0.299134,2.93861,21,0.0162263,10,0.000879037,-2.53186,-0.0358092,-1.64762,-175.901,0.2991339,
2,0,0,1,0,40581.4,0.29424,0.293942,-0.173202,21,0.0163095,10,-5.09113e-05,-3.76145,-0.025846,-2.28275,211.236,0.293942,
2,0,0,1,0,40581.5,0.286753,0.286419,-1.00112,21,0.0162459,10,-0.000286739,-2.99952,-0.0352693,-1.67284,64.2301,0.286419,
2,0,0,1,0,40581.6,0.279264,0.278965,-1.33785,21,0.0161335,10,-0.000373214,-2.87359,-0.0941379,-0.62674,32.6514,0.278965,
2,0,0,1,0,40581.7,0.271776,0.27142,-1.54565,21,0.0159968,10,-0.00041952,-2.81089,-0.144343,-0.408749,24.6253,0.27142,
2,0,0,1,0,40581.8,0.26428,0.263961,-1.70015,21,0.0158434,10,-0.000448773,-2.76951,-0.200308,-0.294547,19.5574,0.263961,
2,0,0,1,0,40581.9,0.256786,0.256483,-1.82579,21,0.0156769,10,-0.000468285,-2.73855,-0.294255,-0.200507,14.2816,0.256483,
2,0,0,1,0,40582,0.249296,0.249008,-1.93723,21,0.0154999,10,-0.000482386,-2.71282,-0.388944,-0.151693,11.4493,0.249008,
2,0,0,1,0,40582.1,0.241809,0.241492,-2.02478,21,0.0153136,10,-0.000488968,-2.69362,-0.343345,-0.171839,13.5994,0.2414919,
2,0,0,1,0,40582.2,0.23432,0.233993,-2.10987,21,0.0151187,10,-0.000493695,-2.67574,-0.499548,-0.118107,9.75202,0.233993,
2,0,0,1,0,40582.3,0.226833,0.226528,-2.19494,21,0.0149159,10,-0.000497217,-2.65858,-0.515085,-0.114544,9.81992,0.226528,
2,0,0,1,0,40582.4,0.219329,0.219001,-2.2842,21,0.0147053,10,-0.000500242,-2.64127,-0.406206,-0.145246,12.9037,0.219001,
2,0,0,1,0,40582.5,0.21184,0.211512,-2.35148,21,0.0144876,10,-0.000497367,-2.62866,-0.578206,-0.10204,9.36029,0.211512,
2,0,0,1,0,40582.6,0.204353,0.204013,-2.43737,21,0.0142627,10,-0.000497255,-2.61308,-0.831427,-0.0709624,6.72998,0.204013,
2,0,0,1,0,40582.7,0.196863,0.196558,-2.509,21,0.0140305,10,-0.000493163,-2.6005,-0.47805,-0.123418,12.0988,0.196558,
2,0,0,1,0,40582.8,0.189376,0.189044,-2.59213,21,0.0137905,10,-0.000490025,-2.58634,-0.502551,-0.117401,11.9135,0.189044,
2,0,0,1,0,40582.9,0.18188,0.18153,-2.69547,21,0.0135418,10,-0.00048931,-2.56936,-0.44823,-0.131629,13.8258,0.18153,
2,0,0,1,0,40582.9,0.174385,0.174053,-2.807,21,0.0132836,10,-0.000488567,-2.55176,-0.340234,-0.17341,18.9727,0.174053,
2,0,0,1,0,40583,0.166896,0.166567,-2.93392,21,0.0130143,10,-0.000488696,-2.53255,-0.314895,-0.187364,21.4724,0.166567,
2,0,0,1,0,40583.1,0.159409,0.15909,-3.11998,21,0.0127301,10,-0.000496358,-2.50585,-0.279597,-0.211018,25.7146,0.15909,
2,0,0,1,0,40583.2,0.151919,0.151586,-3.38,21,0.0124257,10,-0.00051236,-2.47108,-0.181267,-0.325487,43.0435,0.151586,
2,0,0,1,0,40583.3,0.144425,0.144105,-3.78697,21,0.0120901,10,-0.00054572,-2.42171,-0.12382,-0.476497,70.709,0.144105,
2,0,0,1,0,40583.4,0.136929,0.136609,-4.42009,21,0.011706,10,-0.000603827,-2.35457,-0.102328,-0.576575,99.6453,0.136609,
2,0,0,1,0,40583.5,0.129441,0.129094,-5.25195,21,0.0112532,10,-0.000677995,-2.27968,-0.103982,-0.567408,116.159,0.129094,
2,0,0,1,0,40583.6,0.121952,0.121645,-6.08417,21,0.0107213,10,-0.000740107,-2.2158,-0.131382,-0.449072,106.452,0.121645,
2,0,0,1,0,40583.7,0.114465,0.114169,-6.80517,21,0.0101159,10,-0.000776941,-2.16716,-0.188712,-0.312645,82.9651,0.114169,
2,0,0,1,0,40583.8,0.106976,0.106682,-7.35354,21,0.00945082,10,-0.000784492,-2.1335,-0.285902,-0.206364,59.1586,0.106682,
2,0,0,1,0,40583.9,0.0994721,0.0991554,-7.67828,21,0.00874301,10,-0.000761343,-2.11474,-0.600946,-0.0981786,29.3809,0.0991554,
2,0,0,1,0,40584,0.0919847,0.0916847,-7.73939,21,0.00801838,10,-0.000709584,-2.11129,2.9631,0.0199116,-6.01344,0.0916847,
2,0,0,1,0,40584.1,0.0844974,0.0842052,-7.60941,21,0.00729768,10,-0.000640752,-2.11865,0.642776,0.0917893,-27.2284,0.0842052,
2,0,0,1,0,40584.2,0.0770082,0.0766501,-7.39079,21,0.00659502,10,-0.000566505,-2.13131,0.604172,0.0976543,-28.1555,0.0766501,
2,0,0,1,0,40584.3,0.0695208,0.0691614,-7.1856,21,0.00591212,10,-0.000496966,-2.14354,0.667232,0.0884251,-24.8307,0.06916137,
2,0,0,1,0,40584.4,0.0620245,0.0617196,-7.03209,21,0.00524489,10,-0.000434018,-2.15292,0.730948,0.0807171,-22.1595,0.0617196,
2,0,0,1,0,40584.4,0.0545282,0.0541973,-6.8773,21,0.00459227,10,-0.000372731,-2.16258,0.862739,0.0683868,-18.3594,0.0541973,
2,0,0,1,0,40584.5,0.0470408,0.0467447,-6.70933,21,0.00395509,10,-0.000313626,-2.17332,0.663141,0.0889706,-23.3007,0.0467447,
2,0,0,1,0,40584.6,0.0395517,0.0392014,-6.53818,21,0.00333415,10,-0.000256306,-2.18454,0.557693,0.105793,-26.9537,0.0392014,
2,0,0,1,0,40584.7,0.0320643,0.0317141,-6.32465,21,0.00273132,10,-0.000200581,-2.19896,0.484083,0.12188,-30.0772,0.0317141,
2,0,0,1,0,40584.8,0.0245751,0.0242329,-6.0873,21,0.00214927,10,-0.000147513,-2.21557,0.41458,0.142313,-33.8159,0.0242329,
2,0,0,1,0,40584.9,0.0170735,0.0167517,-5.84147,21,0.00158865,10,-9.78545e-05,-2.23348,0.431059,0.136872,-31.2347,0.01675169,
2,0,0,1,0,40585,0.00958429,0.00930389,-5.629,21,0.00105101,10,-5.23716e-05,-2.24957,0.535088,0.110262,-24.2111,0.00930389,
2,0,0,1,0,40585.1,0.0020969,0.00171463,-5.4933,21,0.000531844,10,-9.419e-06,-2.26017,1.00051,0.0589699,-12.5788,0.00171463,
2,0,0,1,0,40585.1,0.000199195,-0.000145903,-5.44079,21,0.00040212,10,7.93826e-07,-2.26434, , , ,-0.000145903,