Folder: Figs_alphaMnO2_OER_Tafel_sleope/Figure_codes/Fig_3-5/rawdata_trumpetplot_data/after 10th (part 67)

File: 20221101_1-115_003_TrumpetPlot_ParaChange_from10_every3_05_CV_C01_29.csv
mode,ox/red,error,control changes,counter inc.,time/s,control/V,Ewe/V,<I>/mA,cycle number,(Q-Qo)/C,I Range,P/W,log(|I|),Tafel slope mV/dec,alpha_eff,dI/d(E-IR),E-IR/V,
2,0,0,1,0,58253.8,2.44065e-05,-0.000401673,-0.746238,30,0.0000000E+000,10,2.99744e-07,-3.12712, , , ,-0.000401673,
2,1,0,1,0,58254.2,0.00729063,0.00693225,0.628946,30,0.000113401,10,4.36001e-06,-3.20139,0.0371042,1.59012,37.9432,0.00693225,
2,1,0,1,0,58254.5,0.0147802,0.0144056,0.797563,30,0.000390659,10,1.14894e-05,-3.09823,0.109963,0.536545,16.6538,0.0144056,
2,1,0,1,0,58254.9,0.0222725,0.0219274,0.898747,30,0.000714787,10,1.97072e-05,-3.04636,0.16262,0.362809,12.7176,0.02192742,
2,1,0,1,0,58255.3,0.0297644,0.0294223,0.987067,30,0.00107395,10,2.90417e-05,-3.00565,0.195964,0.301075,11.5862,0.0294223,
2,1,0,1,0,58255.7,0.0372544,0.0369067,1.07602,30,0.00146643,10,3.97123e-05,-2.96818,0.214015,0.275681,11.6022,0.0369067,
2,1,0,1,0,58256,0.0447449,0.0443832,1.16552,30,0.00189208,10,5.17294e-05,-2.93348,0.239824,0.246013,11.1854,0.0443832,
2,1,0,1,0,58256.4,0.0522363,0.0518976,1.24758,30,0.00235005,10,6.47466e-05,-2.90393,0.249149,0.236806,11.5476,0.0518976,
2,1,0,1,0,58256.8,0.0597291,0.059376,1.32657,30,0.00283832,10,7.87662e-05,-2.87727,0.299061,0.197284,10.1975,0.059376,
2,1,0,1,0,58257.2,0.0672182,0.0668766,1.39785,30,0.00335367,10,9.34838e-05,-2.85454,0.386149,0.152791,8.31033,0.0668766,
2,1,0,1,0,58257.5,0.0747092,0.0743485,1.45238,30,0.00389255,10,0.000107982,-2.83792,0.51955,0.11356,6.4283,0.0743485,
2,1,0,1,0,58257.9,0.0822001,0.0818519,1.49744,30,0.00445106,10,0.000122568,-2.82465,0.573139,0.102942,6.0268,0.0818519,
2,1,0,1,0,58258.3,0.0896911,0.0893387,1.55291,30,0.00502759,10,0.000138735,-2.80885,0.412115,0.143164,8.683,0.0893387,
2,1,0,1,0,58258.7,0.097182,0.0967887,1.63705,30,0.00562963,10,0.000158448,-2.78594,0.244983,0.240833,15.4028,0.09678866,
2,1,0,1,0,58259,0.104673,0.104297,1.77334,30,0.00627193,10,0.000184953,-2.75121,0.200581,0.294145,20.3245,0.104297,
2,1,0,1,0,58259.4,0.112164,0.111775,1.91755,30,0.00696892,10,0.000214335,-2.71725,0.254238,0.232066,17.3427,0.111775,
2,1,0,1,0,58259.8,0.119655,0.1193,2.0289,30,0.00771508,10,0.000242049,-2.69274,0.473061,0.12472,9.86035,0.1193,
2,1,0,1,0,58260.2,0.127146,0.126771,2.07913,30,0.00849162,10,0.000263572,-2.68212,1.1147,0.0529292,4.30192,0.126771,
2,1,0,1,0,58260.5,0.134637,0.134252,2.10329,30,0.00928283,10,0.00028237,-2.6771,-1.85419,-0.0318198,-2.60913,0.134252,
2,1,0,1,0,58260.9,0.142128,0.141751,2.01172,30,0.010065,10,0.000285163,-2.69643,-0.194871,-0.302764,-23.6839,0.141751,
2,1,0,1,0,58261.3,0.149619,0.149257,1.73473,30,0.0107771,10,0.000258921,-2.76077,-0.0879019,-0.671203,-45.328,0.149257,
2,1,0,1,0,58261.7,0.157108,0.156756,1.41279,30,0.0113689,10,0.000221464,-2.84992,-0.089053,-0.662526,-36.5169,0.156756,
2,1,0,1,0,58262,0.164601,0.164216,1.199,30,0.0118593,10,0.000196895,-2.92118,-0.128033,-0.46082,-21.6018,0.164216,
2,1,0,1,0,58262.4,0.172092,0.171704,1.08102,30,0.0122897,10,0.000185616,-2.96616,-0.234118,-0.25201,-10.6824,0.171704,
2,1,0,1,0,58262.8,0.179582,0.179231,1.02319,30,0.0126884,10,0.000183388,-2.99004,-0.368024,-0.160316,-6.42041,0.179231,
2,1,0,1,0,58263.2,0.187073,0.186722,0.988738,30,0.0130701,10,0.000184619,-3.00492,-0.658561,-0.0895892,-3.45668,0.1867222,
2,1,0,1,0,58263.5,0.194564,0.194193,0.967644,30,0.0134417,10,0.00018791,-3.01428,-1.11446,-0.0529404,-1.99678,0.194193,
2,1,0,1,0,58263.9,0.202057,0.20169,0.954041,30,0.0138066,10,0.00019242,-3.02043,-0.992431,-0.05945,-2.20741,0.20169,
2,1,0,1,0,58264.3,0.209546,0.20922,0.943517,30,0.0141667,10,0.000197403,-3.02525,-0.962338,-0.061309,-2.25595,0.20922,
2,1,0,1,0,58264.6,0.217037,0.21665,0.932541,30,0.0145229,10,0.000202035,-3.03033,-2.45277,-0.0240544,-0.876034,0.21665,
2,1,0,1,0,58265,0.224528,0.224192,0.926424,30,0.0148763,10,0.000207696,-3.03319,-1.9497,-0.0302611,-1.09269,0.224192,
2,1,0,1,0,58265.4,0.232019,0.231651,0.919475,30,0.0152272,10,0.000212998,-3.03646,-3.57475,-0.0165046,-0.593238,0.231651,
2,1,0,1,0,58265.8,0.23951,0.239155,0.916893,30,0.0155761,10,0.000219279,-3.03768,-2.26993,-0.0259919,-0.928205,0.239155,
2,1,0,1,0,58266.1,0.247001,0.246663,0.910538,30,0.0159229,10,0.000224596,-3.0407,-1.51004,-0.0390718,-1.3859,0.246663,
2,1,0,1,0,58266.5,0.254492,0.254138,0.905005,30,0.016268,10,0.000229996,-3.04335,-1.65089,-0.0357382,-1.26134,0.254138,
2,1,0,1,0,58266.9,0.261983,0.261628,0.898004,30,0.0166109,10,0.000234943,-3.04672,-2.28668,-0.0258016,-0.905118,0.261628,
2,1,0,1,0,58267.3,0.269474,0.269155,0.893736,30,0.0169518,10,0.000240554,-3.04879,-2.45944,-0.0239892,-0.836487,0.269155,
2,1,0,1,0,58267.6,0.276965,0.276618,0.885477,30,0.0172904,10,0.000244938,-3.05282,-1.80342,-0.0327156,-1.13295,0.2766175,
2,1,0,1,0,58268,0.284456,0.284135,0.881224,30,0.0176266,10,0.000250387,-3.05491,-2.54408,-0.0231911,-0.795924,0.284135,
2,1,0,1,0,58268.4,0.291947,0.291575,0.872842,30,0.01796,10,0.000254499,-3.05906,-1.3978,-0.042209,-1.43784,0.291575,
2,1,0,1,0,58268.8,0.299436,0.29909,0.864437,30,0.0182906,10,0.000258545,-3.06327,-0.00458722,-12.8618,-287.01,0.29909,
2,0,0,1,0,58269.1,0.293745,0.293413,-0.16199,30,0.0183277,10,-4.75299e-05,-3.79051,-0.0120985,-4.87662,26.9964,0.2934134,
2,0,0,1,0,58269.5,0.286254,0.285893,-0.278835,30,0.0182368,10,-7.97171e-05,-3.55465,-0.0600675,-0.982228,10.6577,0.285893,
2,0,0,1,0,58269.9,0.278763,0.27841,-0.343962,30,0.0181136,10,-9.57624e-05,-3.46349,-0.110963,-0.531707,7.16537,0.2784099,
2,0,0,1,0,58270.2,0.271272,0.27088,-0.395954,30,0.0179692,10,-0.000107256,-3.40236,-0.146818,-0.401857,6.20261,0.27088,
2,0,0,1,0,58270.6,0.263781,0.26337,-0.435851,30,0.017808,10,-0.00011479,-3.36066,-0.168267,-0.350632,5.9454,0.26337,
2,0,0,1,0,58271,0.25629,0.255892,-0.473062,30,0.0176326,10,-0.000121053,-3.32508,-0.255309,-0.231092,4.23826,0.2558924,
2,0,0,1,0,58271.4,0.248799,0.248422,-0.50368,30,0.0174445,10,-0.000125125,-3.29784,-0.313271,-0.188335,3.71047,0.248422,
2,0,0,1,0,58271.7,0.241308,0.240953,-0.530239,30,0.0172451,10,-0.000127763,-3.27553,-0.349823,-0.168657,3.50627,0.240953,
2,0,0,1,0,58272.1,0.233817,0.233459,-0.558181,30,0.0170352,10,-0.000130312,-3.25322,-0.320952,-0.183828,4.00817,0.233459,
2,0,0,1,0,58272.5,0.226326,0.22599,-0.58529,30,0.0168152,10,-0.000132269,-3.23263,-0.362145,-0.162918,3.72726,0.22599,
2,0,0,1,0,58272.9,0.218835,0.218478,-0.612784,30,0.0165855,10,-0.00013388,-3.21269,-0.430633,-0.137007,3.27657,0.218478,
2,0,0,1,0,58273.2,0.211344,0.210969,-0.636743,30,0.0163464,10,-0.000134333,-3.19604,-0.470836,-0.125309,3.10931,0.210969,
2,0,0,1,0,58273.6,0.203855,0.203488,-0.659165,30,0.0160978,10,-0.000134132,-3.18101,-0.433627,-0.136062,3.52207,0.2034876,
2,0,0,1,0,58274,0.196362,0.195994,-0.686591,30,0.0158401,10,-0.000134568,-3.1633,-0.427028,-0.138164,3.69823,0.1959942,
2,0,0,1,0,58274.4,0.188871,0.188477,-0.715287,30,0.0155719,10,-0.000134815,-3.14552,-0.345033,-0.170998,4.76111,0.188477,
2,0,0,1,0,58274.7,0.18138,0.180999,-0.744654,30,0.0152929,10,-0.000134781,-3.12805,-0.387247,-0.152358,4.43618,0.180999,
2,0,0,1,0,58275.1,0.173891,0.173504,-0.781139,30,0.0150017,10,-0.000135531,-3.10727,-0.396606,-0.148762,4.52396,0.173504,
2,0,0,1,0,58275.5,0.166398,0.166063,-0.823748,30,0.0146959,10,-0.000136794,-3.08421,-0.330515,-0.178509,5.7479,0.166063,
2,0,0,1,0,58275.9,0.158906,0.158534,-0.881229,30,0.0143712,10,-0.000139705,-3.05491,-0.224766,-0.262495,9.04213,0.158534,
2,0,0,1,0,58276.2,0.151417,0.151091,-0.967727,30,0.01402,10,-0.000146215,-3.01425,-0.150971,-0.390805,14.8057,0.151091,
2,0,0,1,0,58276.6,0.143926,0.143552,-1.11579,30,0.0136264,10,-0.000160174,-2.95242,-0.0955777,-0.617299,26.8977,0.143552,
2,0,0,1,0,58277,0.136435,0.13606,-1.3469,30,0.0131622,10,-0.000183259,-2.87066,-0.0881609,-0.669231,35.1047,0.13606,
2,0,0,1,0,58277.4,0.128942,0.128604,-1.61869,30,0.0126013,10,-0.00020817,-2.79084,-0.103304,-0.571128,36.0472,0.128604,
2,0,0,1,0,58277.7,0.121453,0.121101,-1.87093,30,0.0119401,10,-0.000226572,-2.72794,-0.151928,-0.388341,28.2961,0.121101,
2,0,0,1,0,58278.1,0.113962,0.11357,-2.04659,30,0.0111975,10,-0.000232431,-2.68897,-0.292027,-0.202036,16.1193,0.11357,
2,0,0,1,0,58278.5,0.106471,0.106092,-2.11984,30,0.0104073,10,-0.000224898,-2.6737,-1.76428,-0.0334413,2.76858,0.106092,
2,0,0,1,0,58278.8,0.0989799,0.0986404,-2.10167,30,0.00960857,10,-0.000207309,-2.67744,0.935799,0.0630477,-5.16669,0.09864039,
2,0,0,1,0,58279.2,0.0914889,0.0911494,-2.04563,30,0.00882605,10,-0.000186458,-2.68917,0.616446,0.09571,-7.63468,0.0911494,
2,0,0,1,0,58279.6,0.083998,0.0836792,-1.9886,30,0.00806529,10,-0.000166404,-2.70145,0.567779,0.103914,-8.07332,0.0836792,
2,0,0,1,0,58280,0.076507,0.0761555,-1.94482,30,0.00732279,10,-0.000148109,-2.71112,0.635181,0.0928868,-7.044,0.0761555,
2,0,0,1,0,58280.3,0.069016,0.0685924,-1.89472,30,0.00659773,10,-0.000129963,-2.72245,0.656147,0.0899189,-6.65763,0.0685924,
2,0,0,1,0,58280.7,0.0615251,0.0611666,-1.84666,30,0.00589044,10,-0.000112954,-2.73361,0.651876,0.0905081,-6.53266,0.0611666,
2,0,0,1,0,58281.1,0.0540342,0.0536735,-1.79485,30,0.00520275,10,-9.6336e-05,-2.74597,0.588895,0.100188,-7.01244,0.0536735,
2,0,0,1,0,58281.5,0.0465432,0.0461684,-1.73755,30,0.00453542,10,-8.02198e-05,-2.76006,0.572838,0.102996,-6.98108,0.0461684,
2,0,0,1,0,58281.8,0.0390523,0.0386869,-1.67791,30,0.00388992,10,-6.49131e-05,-2.77523,0.405655,0.145444,-9.50628,0.0386869,
2,0,0,1,0,58282.2,0.0315626,0.0311723,-1.61539,30,0.00326809,10,-5.03556e-05,-2.79172,0.428974,0.137537,-8.66532,0.0311723,
2,0,0,1,0,58282.6,0.0240704,0.0237468,-1.55244,30,0.00266928,10,-3.68655e-05,-2.80899,0.413663,0.142628,-8.66259,0.0237468,
2,0,0,1,0,58283,0.0165785,0.0162423,-1.50186,30,0.00209125,10,-2.43937e-05,-2.82337,0.678779,0.0869208,-5.10298,0.0162423,
2,0,0,1,0,58283.3,0.00908846,0.00873913,-1.46885,30,0.00152947,10,-1.28365e-05,-2.83302,0.852071,0.069243,-3.96749,0.008739125,
2,0,0,1,0,58283.7,0.0015984,0.00120839,-1.46412,30,0.00097726,10,-1.76924e-06,-2.83442, , , ,0.00120839,
2,0,0,1,0,58283.8,0.000199195,-0.000212493,-1.45737,30,0.000874029,10,3.0968e-07,-2.83643, , , ,-0.000212493,

File: 20221101_1-115_003_TrumpetPlot_ParaChange_from10_every3_05_CV_C01_30.csv
mode,ox/red,error,control changes,counter inc.,time/s,control/V,Ewe/V,<I>/mA,cycle number,(Q-Qo)/C,I Range,P/W,log(|I|),Tafel slope mV/dec,alpha_eff,dI/d(E-IR),E-IR/V,
2,0,0,1,0,60223.9,2.44065e-05,-0.00042076,-0.757051,31,0.0000000E+000,10,3.18537e-07,-3.12087, , , ,-0.00042076,
2,1,0,1,0,60224.3,0.00729063,0.0069184,0.615761,31,0.00010626,10,4.26008e-06,-3.21059,0.035269,1.67286,39.1872,0.0069184,
2,1,0,1,0,60224.7,0.0147802,0.0143716,0.789708,31,0.000379826,10,1.13493e-05,-3.10253,0.10666,0.553159,17.0262,0.0143716,
2,1,0,1,0,60225,0.0222725,0.0219423,0.893325,31,0.000701388,10,1.96016e-05,-3.04899,0.163811,0.36017,12.5278,0.0219423,
2,1,0,1,0,60225.4,0.0297644,0.029433,0.982153,31,0.00105815,10,2.89077e-05,-3.00782,0.190009,0.310512,11.8923,0.029433,
2,1,0,1,0,60225.8,0.0372544,0.0368947,1.07247,31,0.00144818,10,3.95686e-05,-2.96961,0.225843,0.261244,10.9308,0.03689469,
2,1,0,1,0,60226.2,0.0447449,0.0444121,1.15861,31,0.00187116,10,5.14564e-05,-2.93606,0.233535,0.252639,11.417,0.0444121,
2,1,0,1,0,60226.5,0.0522363,0.051885,1.24021,31,0.00232615,10,6.43484e-05,-2.9065,0.259796,0.227101,10.986,0.051885,
2,1,0,1,0,60226.9,0.0597291,0.059413,1.31888,31,0.00281126,10,7.83588e-05,-2.87979,0.300613,0.196266,10.0966,0.059413,
2,1,0,1,0,60227.3,0.0672182,0.0668353,1.38767,31,0.00332316,10,9.2745e-05,-2.85772,0.357584,0.164996,8.92064,0.0668353,
2,1,0,1,0,60227.7,0.0747092,0.0743867,1.44279,31,0.00385866,10,0.000107324,-2.8408,0.498754,0.118295,6.6514,0.0743867,
2,1,0,1,0,60228,0.0822001,0.0818517,1.48881,31,0.0044134,10,0.000121862,-2.82716,0.596484,0.098913,5.75279,0.0818517,
2,1,0,1,0,60228.4,0.0896911,0.0893236,1.54081,31,0.00498624,10,0.00013763,-2.81225,0.455668,0.12948,7.8074,0.08932358,
2,1,0,1,0,60228.8,0.097182,0.0968387,1.62474,31,0.00558397,10,0.000157338,-2.78922,0.241728,0.244076,15.5046,0.0968387,
2,1,0,1,0,60229.2,0.104673,0.104335,1.7583,31,0.00622157,10,0.000183452,-2.75491,0.201717,0.292489,20.0485,0.104335,
2,1,0,1,0,60229.5,0.112164,0.111829,1.90372,31,0.00691269,10,0.000212891,-2.7204,0.254609,0.231728,17.1828,0.1118291,
2,1,0,1,0,60229.9,0.119655,0.119277,2.01283,31,0.00765252,10,0.000240084,-2.69619,0.512488,0.115125,9.03277,0.119277,
2,1,0,1,0,60230.3,0.127146,0.12681,2.06369,31,0.00842274,10,0.000261696,-2.68536,0.948622,0.0621955,5.0161,0.12681,
2,1,0,1,0,60230.7,0.134637,0.134275,2.08696,31,0.00920785,10,0.000280228,-2.68049,-2.36668,-0.0249294,-2.02999,0.134275,
2,1,0,1,0,60231,0.142128,0.141799,2.00071,31,0.0099844,10,0.000283698,-2.69882,-0.198453,-0.2973,-23.1274,0.141799,
2,1,0,1,0,60231.4,0.149619,0.149241,1.72379,31,0.0106919,10,0.000257261,-2.76352,-0.0873078,-0.67577,-45.3279,0.149241,
2,1,0,1,0,60231.8,0.157108,0.156776,1.40282,31,0.0112803,10,0.000219929,-2.853,-0.0871298,-0.677151,-37.1087,0.156776,
2,1,0,1,0,60232.2,0.164601,0.164229,1.19334,31,0.0117679,10,0.000195982,-2.92323,-0.131409,-0.448981,-20.9316,0.164229,
2,1,0,1,0,60232.5,0.172092,0.171784,1.08014,31,0.0121966,10,0.000185551,-2.96652,-0.236608,-0.249358,-10.5349,0.171784,
2,1,0,1,0,60232.9,0.179582,0.179255,1.01976,31,0.0125941,10,0.000182797,-2.9915,-0.453076,-0.130221,-5.19645,0.179255,
2,1,0,1,0,60233.3,0.187073,0.186721,0.988107,31,0.0129748,10,0.0001845,-3.0052,-0.898413,-0.0656713,-2.52706,0.186721,
2,1,0,1,0,60233.7,0.194564,0.194215,0.966805,31,0.0133453,10,0.000187768,-3.01466,-0.935462,-0.0630705,-2.37789,0.194215,
2,1,0,1,0,60234,0.202057,0.201706,0.950811,31,0.0137091,10,0.000191784,-3.02191,-1.3177,-0.044775,-1.66003,0.201706,
2,1,0,1,0,60234.4,0.209546,0.209166,0.939571,31,0.0140682,10,0.000196527,-3.02707,-0.844275,-0.0698825,-2.56634,0.209166,
2,1,0,1,0,60234.8,0.217037,0.216711,0.929913,31,0.0144234,10,0.000201522,-3.03156,-2.20591,-0.0267463,-0.972543,0.216711,
2,1,0,1,0,60235.2,0.224528,0.224182,0.924663,31,0.014776,10,0.000207293,-3.03402,-2.8795,-0.0204896,-0.739657,0.224182,
2,1,0,1,0,60235.5,0.232019,0.231668,0.917644,31,0.0151262,10,0.000212589,-3.03733,-2.17753,-0.027095,-0.971978,0.231668,
2,1,0,1,0,60235.9,0.23951,0.239188,0.913861,31,0.0154743,10,0.000218584,-3.03912,-5.92249,-0.00996202,-0.35488,0.239188,
2,1,0,1,0,60236.3,0.247001,0.246706,0.910371,31,0.0158206,10,0.000224594,-3.04078,-1.35164,-0.0436505,-1.54864,0.246706,
2,1,0,1,0,60236.7,0.254492,0.254135,0.903412,31,0.016165,10,0.000229589,-3.04411,-2.25424,-0.0261728,-0.923123,0.2541351,
2,1,0,1,0,60237,0.261983,0.26163,0.897915,31,0.0165074,10,0.000234922,-3.04676,-1.94002,-0.0304121,-1.06576,0.26163,
2,1,0,1,0,60237.4,0.269474,0.269144,0.892079,31,0.0168479,10,0.000240098,-3.0496,-5.92762,-0.00995341,-0.347003,0.269144,
2,1,0,1,0,60237.8,0.276965,0.276613,0.886482,31,0.0171862,10,0.000245212,-3.05233,-2.53506,-0.0232736,-0.806553,0.276613,
2,1,0,1,0,60238.2,0.284456,0.28415,0.88027,31,0.0175219,10,0.000250129,-3.05538,-2.96725,-0.0198837,-0.681287,0.28415,
2,1,0,1,0,60238.5,0.291947,0.291579,0.871152,31,0.0178548,10,0.000254009,-3.05991,-1.25642,-0.0469587,-1.59831,0.291579,
2,1,0,1,0,60238.9,0.299436,0.29912,0.864983,31,0.018185,10,0.000258734,-3.06299,-0.00488172,-12.0859,-274.547,0.29912,
2,0,0,1,0,60239.2,0.293745,0.293446,-0.154971,31,0.0182258,10,-4.54757e-05,-3.80975,-0.0111598,-5.28684,27.6829,0.293446,
2,0,0,1,0,60239.6,0.286254,0.285891,-0.27332,31,0.018137,10,-7.81396e-05,-3.56333,-0.0615949,-0.957872,10.2313,0.285891,
2,0,0,1,0,60240,0.278763,0.278403,-0.340986,31,0.0180156,10,-9.49313e-05,-3.46726,-0.107225,-0.550243,7.32649,0.2784026,
2,0,0,1,0,60240.4,0.271272,0.270917,-0.393257,31,0.017873,10,-0.00010654,-3.40532,-0.15355,-0.384239,5.85329,0.270917,
2,0,0,1,0,60240.7,0.263781,0.263431,-0.431366,31,0.0177135,10,-0.000113635,-3.36515,-0.182537,-0.323223,5.447,0.263431,
2,0,0,1,0,60241.1,0.25629,0.255923,-0.470128,31,0.0175397,10,-0.000120317,-3.32778,-0.278674,-0.211717,3.85905,0.255923,
2,0,0,1,0,60241.5,0.248799,0.248475,-0.498496,31,0.0173532,10,-0.000123864,-3.30234,-0.311563,-0.189368,3.69717,0.2484753,
2,0,0,1,0,60241.9,0.241308,0.240949,-0.52807,31,0.0171554,10,-0.000127238,-3.27731,-0.338326,-0.174388,3.60349,0.240949,
2,0,0,1,0,60242.2,0.233817,0.23344,-0.556335,31,0.016947,10,-0.000129871,-3.25466,-0.367412,-0.160582,3.47893,0.23344,
2,0,0,1,0,60242.6,0.226326,0.226002,-0.583425,31,0.0167287,10,-0.000131855,-3.23401,-0.425805,-0.138561,3.14943,0.226002,
2,0,0,1,0,60243,0.218835,0.218486,-0.609222,31,0.0165006,10,-0.000133107,-3.21522,-0.3504,-0.168379,3.98943,0.218486,
2,0,0,1,0,60243.4,0.211344,0.210976,-0.632243,31,0.0162632,10,-0.000133388,-3.19912,-0.472336,-0.124911,3.07696,0.210976,
2,0,0,1,0,60243.7,0.203855,0.203483,-0.656592,31,0.0160163,10,-0.000133606,-3.1827,-0.5484,-0.107586,2.76432,0.203483,
2,0,0,1,0,60244.1,0.196362,0.196016,-0.681888,31,0.0157603,10,-0.000133661,-3.16629,-0.491315,-0.120086,3.20129,0.196016,
2,0,0,1,0,60244.5,0.188871,0.188505,-0.709962,31,0.0154941,10,-0.000133832,-3.14876,-0.326786,-0.180546,5.01078,0.188505,
2,0,0,1,0,60244.9,0.18138,0.181038,-0.741692,31,0.015217,10,-0.000134275,-3.12978,-0.311163,-0.189611,5.48724,0.181038,
2,0,0,1,0,60245.2,0.173891,0.173522,-0.774781,31,0.0149279,10,-0.000134441,-3.11082,-0.324079,-0.182054,5.50043,0.173522,
2,0,0,1,0,60245.6,0.166398,0.166049,-0.818723,31,0.0146243,10,-0.000135948,-3.08686,-0.331116,-0.178186,5.68892,0.166049,
2,0,0,1,0,60246,0.158906,0.158539,-0.872917,31,0.0143024,10,-0.000138392,-3.05903,-0.227939,-0.258841,8.84361,0.158539,
2,0,0,1,0,60246.4,0.151417,0.151065,-0.958641,31,0.0139549,10,-0.000144817,-3.01834,-0.159304,-0.370362,13.8856,0.151065,
2,0,0,1,0,60246.7,0.143926,0.143594,-1.09967,31,0.0135664,10,-0.000157907,-2.95874,-0.0979803,-0.602162,25.8587,0.143594,
2,0,0,1,0,60247.1,0.136435,0.136081,-1.32113,31,0.0131101,10,-0.000179781,-2.87905,-0.0875715,-0.673736,34.7159,0.136081,
2,0,0,1,0,60247.5,0.128942,0.128581,-1.59177,31,0.0125595,10,-0.000204671,-2.79812,-0.100917,-0.584639,36.2058,0.128581,
2,0,0,1,0,60247.9,0.121453,0.121127,-1.84055,31,0.0119098,10,-0.000222941,-2.73505,-0.143065,-0.412399,29.5437,0.121127,
2,0,0,1,0,60248.2,0.113962,0.113607,-2.019,31,0.0111784,10,-0.000229373,-2.69486,-0.267611,-0.220469,17.3654,0.113607,
2,0,0,1,0,60248.6,0.106471,0.106139,-2.10033,31,0.0103973,10,-0.000222928,-2.67771,-1.57874,-0.0373715,3.06422,0.106139,
2,0,0,1,0,60249,0.0989799,0.0986183,-2.0898,31,0.00960504,10,-0.000206092,-2.6799,0.944651,0.062457,-5.08306,0.0986183,
2,0,0,1,0,60249.4,0.0914889,0.0911253,-2.03655,31,0.00882699,10,-0.000185581,-2.69111,0.647954,0.0910559,-7.22546,0.0911253,
2,0,0,1,0,60249.7,0.083998,0.0836769,-1.98234,31,0.00806991,10,-0.000165876,-2.70282,0.630072,0.09364,-7.23829,0.0836769,
2,0,0,1,0,60250.1,0.076507,0.0761022,-1.93884,31,0.00733048,10,-0.00014755,-2.71246,0.680711,0.0866741,-6.54972,0.0761022,
2,0,0,1,0,60250.5,0.069016,0.0686696,-1.88921,31,0.00660783,10,-0.000129732,-2.72372,0.662995,0.0889901,-6.56953,0.06866958,
2,0,0,1,0,60250.9,0.0615251,0.0611836,-1.84284,31,0.00590269,10,-0.000112752,-2.73451,0.605428,0.0974518,-7.01187,0.0611836,
2,0,0,1,0,60251.2,0.0540341,0.0536971,-1.7914,31,0.00521706,10,-9.61929e-05,-2.74681,0.656186,0.0899136,-6.2735,0.0536971,
2,0,0,1,0,60251.6,0.0465432,0.0461882,-1.73307,31,0.00455129,10,-8.00471e-05,-2.76119,0.571418,0.103252,-6.99431,0.0461882,
2,0,0,1,0,60252,0.0390523,0.038722,-1.67573,31,0.00390712,10,-6.48876e-05,-2.7758,0.427116,0.138136,-9.01716,0.038722,
2,0,0,1,0,60252.4,0.0315626,0.0311868,-1.61357,31,0.00328614,10,-5.03222e-05,-2.79221,0.437381,0.134894,-8.49185,0.0311868,
2,0,0,1,0,60252.7,0.0240704,0.0237066,-1.5526,31,0.00268798,10,-3.68068e-05,-2.80894,0.473281,0.124662,-7.55998,0.02370663,
2,0,0,1,0,60253.1,0.0165785,0.0162497,-1.5013,31,0.00211066,10,-2.43957e-05,-2.82353,0.76001,0.0776306,-4.55453,0.0162497,
2,0,0,1,0,60253.5,0.00908846,0.00872739,-1.4647,31,0.00154988,10,-1.2783e-05,-2.83425,1.07405,0.0549325,-3.14085,0.00872739,
2,0,0,1,0,60253.8,0.0015984,0.00118666,-1.46193,31,0.000998882,10,-1.73483e-06,-2.83507, , , ,0.00118666,
2,0,0,1,0,60253.9,0.000199195,-0.000189865,-1.45327,31,0.000895976,10,2.75925e-07,-2.83765, , , ,-0.000189865,