Folder: Figs_alphaMnO2_OER_Tafel_sleope/Figure_codes/Fig_3-5/rawdata_trumpetplot_data/after 10th (part 182)

File: 20221101_1-115_003_TrumpetPlot_ParaChange_from10_every3_12_CV_C01_15.csv
mode,ox/red,error,control changes,counter inc.,time/s,control/V,Ewe/V,<I>/mA,cycle number,(Q-Qo)/C,I Range,P/W,log(|I|),Tafel slope mV/dec,alpha_eff,dI/d(E-IR),E-IR/V,
2,1,0,1,0,30748.5,2.44065e-05,-0.000191712,16.059,16,0.0000000E+000,10,-3.07871e-06,-1.79428, , , ,-0.000191712,
2,1,0,1,0,30748.5,0.0104008,0.0100401,19.3252,16,0.000307623,10,0.000194027,-1.71388,0.194456,0.30341,227.687,0.01004015,
2,1,0,1,0,30748.5,0.0212099,0.020887,21.4306,16,0.000675501,10,0.000447623,-1.66896,0.291782,0.202206,168.704,0.020887,
2,1,0,1,0,30748.5,0.0320052,0.0316258,23.0816,16,0.00107678,10,0.000729974,-1.63673,0.375049,0.157313,141.567,0.0316258,
2,1,0,1,0,30748.5,0.0428033,0.0424525,24.5424,16,0.00150576,10,0.00104189,-1.61008,0.442722,0.133266,127.531,0.0424525,
2,1,0,1,0,30748.6,0.0535986,0.0532846,25.9028,16,0.00195981,10,0.00138022,-1.58665,0.475554,0.124066,125.352,0.0532846,
2,1,0,1,0,30748.6,0.0644077,0.0640647,27.2598,16,0.00243832,10,0.00174639,-1.56448,0.492062,0.119904,127.529,0.0640647,
2,1,0,1,0,30748.6,0.075203,0.0748193,28.6642,16,0.00294164,10,0.00214464,-1.54266,0.497627,0.118563,132.615,0.0748193,
2,1,0,1,0,30748.6,0.0860011,0.0856174,30.1125,16,0.00347061,10,0.00257816,-1.52125,0.509764,0.11574,136.003,0.0856174,
2,1,0,1,0,30748.6,0.0968075,0.0964802,31.6185,16,0.00402618,10,0.00305056,-1.50006,0.51104,0.115451,142.444,0.0964802,
2,1,0,1,0,30748.7,0.107606,0.107256,33.1566,16,0.0046094,10,0.00355624,-1.47943,0.53087,0.111138,143.795,0.107256,
2,1,0,1,0,30748.7,0.118401,0.118036,34.7024,16,0.00522005,10,0.00409614,-1.45964,0.52651,0.112059,151.872,0.118036,
2,1,0,1,0,30748.7,0.129207,0.128836,36.4022,16,0.00586014,10,0.00468993,-1.43887,0.521367,0.113164,160.829,0.128836,
2,1,0,1,0,30748.7,0.140005,0.13965,38.2227,16,0.00653187,10,0.00533782,-1.41768,0.501885,0.117557,175.446,0.13965,
2,1,0,1,0,30748.7,0.150803,0.150456,40.1636,16,0.00723759,10,0.00604286,-1.39617,0.52673,0.112012,175.528,0.150456,
2,1,0,1,0,30748.7,0.161604,0.16128,42.0306,16,0.00797764,10,0.00677868,-1.37643,0.593072,0.099482,163.033,0.16128,
2,1,0,1,0,30748.8,0.172405,0.172061,43.6541,16,0.00874934,10,0.00751115,-1.35998,0.75183,0.0784752,133.524,0.172061,
2,1,0,1,0,30748.8,0.183203,0.182851,44.8302,16,0.00954667,10,0.00819726,-1.34843,1.37648,0.042863,74.8338,0.1828514,
2,1,0,1,0,30748.8,0.194001,0.193651,45.1442,16,0.010358,10,0.00874219,-1.3454,-5.07067,-0.0116356,-20.4509,0.1936506,
2,1,0,1,0,30748.8,0.204808,0.204492,44.3368,16,0.011165,10,0.00906653,-1.35324,-0.809823,-0.0728554,-125.755,0.204492,
2,1,0,1,0,30748.8,0.215603,0.215301,42.3906,16,0.0119471,10,0.00912674,-1.37273,-0.435723,-0.135407,-223.54,0.2153009,
2,1,0,1,0,30748.9,0.226401,0.226077,39.5597,16,0.0126854,10,0.00894352,-1.40275,-0.317903,-0.185591,-286.254,0.226077,
2,1,0,1,0,30748.9,0.237207,0.236912,36.3812,16,0.0133687,10,0.00861915,-1.43912,-0.285355,-0.20676,-293.514,0.236912,
2,1,0,1,0,30748.9,0.248005,0.247697,33.3332,16,0.0139953,10,0.00825655,-1.47712,-0.290573,-0.203047,-264.317,0.2476974,
2,1,0,1,0,30748.9,0.258801,0.258473,30.6853,16,0.0145705,10,0.00793132,-1.51307,-0.315446,-0.187037,-224.202,0.258473,
2,1,0,1,0,30748.9,0.26961,0.269268,28.5018,16,0.0151021,10,0.00767463,-1.54513,-0.357328,-0.165114,-183.777,0.269268,
2,1,0,1,0,30748.9,0.280405,0.280063,26.7218,16,0.0155983,10,0.00748378,-1.57314,-0.4179,-0.141182,-147.331,0.280063,
2,1,0,1,0,30749,0.291203,0.290896,25.2909,16,0.0160657,10,0.00735701,-1.59704,-0.482119,-0.122376,-120.859,0.290896,
2,1,0,0,0,30749,0.300012,0.299689,24.2975,16,0.01643,10,0.0072817,-1.61444,0.00193321,30.5192,25661.4,0.2996892,
2,1,0,1,0,30749,0.290842,0.290558,12.0567,16,0.0166931,10,0.00350316,-1.91877,0.0298574,1.97606,934.087,0.290558,
2,1,0,1,0,30749,0.280047,0.279769,4.3271,16,0.0168342,10,0.00121059,-2.3638,0.0162559,3.62946,564.073,0.279769,
2,0,0,1,0,30749,0.269244,0.268965,-0.661328,16,0.0168639,10,-0.000177874,-3.17958,-0.0387402,-1.52297,380.378,0.268965,
2,0,0,1,0,30749,0.258443,0.258158,-4.12498,16,0.0168187,10,-0.0010649,-2.38458,-0.032942,-1.79103,272.33,0.258158,
2,0,0,1,0,30749.1,0.247645,0.247358,-6.66964,16,0.01672,10,-0.00164979,-2.1759,-0.0731148,-0.80695,207.142,0.247358,
2,0,0,1,0,30749.1,0.236849,0.236549,-8.62519,16,0.0165813,10,-0.00204028,-2.06423,-0.12321,-0.478857,160.178,0.236549,
2,0,0,1,0,30749.1,0.22604,0.225757,-10.1982,16,0.0164113,10,-0.0023023,-1.99148,-0.180147,-0.32751,129.759,0.225757,
2,0,0,1,0,30749.1,0.215245,0.214931,-11.4852,16,0.0162157,10,-0.00246853,-1.93986,-0.238298,-0.247589,110.762,0.214931,
2,0,0,1,0,30749.1,0.204447,0.204135,-12.6138,16,0.0159985,10,-0.00257492,-1.89915,-0.296659,-0.198881,97.6915,0.204135,
2,0,0,1,0,30749.2,0.19364,0.193314,-13.6194,16,0.0157624,10,-0.00263283,-1.86584,-0.349593,-0.168768,89.53,0.193314,
2,0,0,1,0,30749.2,0.182842,0.182513,-14.5544,16,0.0155088,10,-0.00265637,-1.83701,-0.380434,-0.155086,88.0303,0.182513,
2,0,0,1,0,30749.2,0.172047,0.171732,-15.5015,16,0.0152383,10,-0.00266211,-1.80963,-0.387559,-0.152235,92.1376,0.171732,
2,0,0,1,0,30749.2,0.161241,0.160947,-16.5389,16,0.0149501,10,-0.00266189,-1.78149,-0.369541,-0.159657,103.134,0.160947,
2,0,0,1,0,30749.2,0.150443,0.150135,-17.7798,16,0.0146416,10,-0.00266937,-1.75007,-0.313243,-0.188352,130.963,0.1501347,
2,0,0,1,0,30749.2,0.139645,0.139306,-19.4388,16,0.0143072,10,-0.00270793,-1.71133,-0.246907,-0.238956,181.923,0.139306,
2,0,0,1,0,30749.3,0.128849,0.128506,-21.7414,16,0.0139372,10,-0.0027939,-1.66271,-0.203295,-0.290218,246.959,0.128506,
2,0,0,1,0,30749.3,0.118043,0.117758,-24.774,16,0.0135192,10,-0.00291734,-1.606,-0.188243,-0.313424,303.085,0.117758,
2,0,0,1,0,30749.3,0.107245,0.106952,-28.1885,16,0.0130424,10,-0.00301481,-1.54993,-0.202857,-0.290845,319.557,0.106952,
2,0,0,1,0,30749.3,0.0964468,0.0961558,-31.5276,16,0.0125041,10,-0.00303156,-1.50131,-0.244762,-0.241051,296.247,0.0961558,
2,0,0,1,0,30749.3,0.0856404,0.0853333,-34.6294,16,0.011908,10,-0.00295504,-1.46056,-0.300097,-0.196603,265.115,0.0853333,
2,0,0,1,0,30749.4,0.0748451,0.07462,-37.2325,16,0.0112602,10,-0.00277829,-1.42908,-0.3975,-0.148428,215.233,0.07462,
2,0,0,1,0,30749.4,0.0640471,0.0638028,-39.2532,16,0.0105709,10,-0.00250446,-1.40612,-0.558867,-0.105571,161.465,0.0638028,
2,0,0,1,0,30749.4,0.0532407,0.0529251,-40.6613,16,0.00985053,10,-0.002152,-1.39082,-0.93012,-0.0634326,100.516,0.05292511,
2,0,0,1,0,30749.4,0.0424426,0.042162,-41.4731,16,0.00911038,10,-0.00174859,-1.38223,-1.72426,-0.0342176,55.345,0.042162,
2,0,0,1,0,30749.4,0.0316473,0.0313161,-41.8762,16,0.00835951,10,-0.0013114,-1.37803,-4.44469,-0.0132743,21.6859,0.0313161,
2,0,0,1,0,30749.4,0.0208437,0.0204958,-41.9701,16,0.00760446,10,-0.000860209,-1.37706,26.9771,0.00218704,-3.58093,0.0204958,
2,0,0,1,0,30749.5,0.0100429,0.0096987,-41.837,16,0.00684985,10,-0.000405765,-1.37844,3.93676,0.0149869,-24.4549,0.0096987,
2,0,0,1,0,30749.5,-0.000755207,-0.0011588,-41.5309,16,0.00609941,10,4.81262e-05,-1.38163,2.31407,0.0254962,-41.2703,-0.0011588,
2,0,0,1,0,30749.5,-0.0115505,-0.0118912,-40.912,16,0.00535725,10,0.000486492,-1.38815,1.3627,0.0432965,-69.0701,-0.0118912,
2,0,0,1,0,30749.5,-0.0223597,-0.0226872,-40.05,16,0.00462849,10,0.000908622,-1.3974,1.02564,0.0575252,-89.8308,-0.0226872,
2,0,0,1,0,30749.5,-0.033155,-0.0334896,-39.0118,16,0.003917,10,0.00130649,-1.4088,0.948089,0.0622304,-94.7364,-0.0334896,
2,0,0,1,0,30749.6,-0.043953,-0.0443354,-37.987,16,0.00322428,10,0.00168417,-1.42036,0.967497,0.0609821,-90.4316,-0.0443354,
2,0,0,1,0,30749.6,-0.0547594,-0.05516,-37.1033,16,0.0025489,10,0.00204662,-1.43059,1.18184,0.0499224,-72.3363,-0.05516,
2,0,0,1,0,30749.6,-0.0655575,-0.0659327,-36.4407,16,0.00188736,10,0.00240264,-1.43841,1.74363,0.0338374,-48.1727,-0.0659327,
2,0,0,1,0,30749.6,-0.0763528,-0.0767404,-36.0466,16,0.00123526,10,0.00276623,-1.44314,3.27988,0.0179885,-25.3292,-0.0767404,
2,0,0,1,0,30749.6,-0.0871592,-0.0875597,-35.9013,16,0.000588072,10,0.00314351,-1.44489,15.2918,0.00385828,-5.4088,-0.0875597,
2,0,0,1,0,30749.6,-0.0979573,-0.0983398,-35.9656,16,-5.84259e-05,10,0.00353685,-1.44411,-24.2288,-0.00243512,3.41401,-0.0983398,
2,0,0,1,1,30749.7,-0.0955546,-0.0959836,-27.7846,16,-0.00041972,10,0.00266687,-1.5562,-0.0419749,-1.4056,1544.38,-0.09598358,
2,0,0,1,1,30749.7,-0.0847538,-0.085195,-15.5842,16,-0.000800662,10,0.0013277,-1.80732,-0.0389643,-1.51421,916.768,-0.08519499,
2,0,0,1,1,30749.7,-0.0739557,-0.0743704,-7.05575,16,-0.00100007,10,0.000524738,-2.15146,-0.0225139,-2.62061,687.559,-0.0743704,
2,0,0,1,1,30749.7,-0.0631604,-0.0636147,-0.49232,16,-0.0010651,10,3.13188e-05,-3.30775,-0.0450474,-1.30973,546.373,-0.0636147,
2,1,0,1,1,30749.7,-0.0523512,-0.0527465,4.75802,16,-0.00102448,10,-0.000250969,-2.32257,0.022697,2.59946,438.748,-0.0527465,
2,1,0,1,1,30749.7,-0.0415559,-0.041977,9.04869,16,-0.000898647,10,-0.000379837,-2.04341,0.0565264,1.04376,360.821,-0.041977,
2,1,0,1,1,30749.8,-0.0307579,-0.0311651,12.5723,16,-0.000702631,10,-0.000391819,-1.90058,0.0971552,0.607276,295.431,-0.0311651,
2,1,0,1,1,30749.8,-0.0199515,-0.0203479,15.4717,16,-0.000449069,10,-0.000314816,-1.81046,0.146388,0.403038,241.92,-0.0203479,
2,1,0,1,1,30749.8,-0.0091534,-0.0095392,17.8151,16,-0.000148625,10,-0.000169942,-1.74921,0.208318,0.28322,196.246,-0.0095392,
2,1,0,0,1,30749.8,-7.54729e-05,-0.00042076,19.381,16,0.000133137,10,-8.15475e-06,-1.71262, , , ,-0.00042076,

File: 20221101_1-115_003_TrumpetPlot_ParaChange_from10_every3_12_CV_C01_17.csv
mode,ox/red,error,control changes,counter inc.,time/s,control/V,Ewe/V,<I>/mA,cycle number,(Q-Qo)/C,I Range,P/W,log(|I|),Tafel slope mV/dec,alpha_eff,dI/d(E-IR),E-IR/V,
2,1,0,1,0,34688.7,2.44065e-05,-0.000363498,15.8129,18,0.0000000E+000,10,-5.74794e-06,-1.80099, , , ,-0.000363498,
2,1,0,1,0,34688.8,0.0104008,0.0100518,19.0681,18,0.00030332,10,0.000191669,-1.71969,0.194063,0.304026,224.889,0.0100518,
2,1,0,1,0,34688.8,0.0212099,0.0208701,21.1286,18,0.000666059,10,0.000440955,-1.67513,0.293126,0.201279,165.487,0.02087008,
2,1,0,1,0,34688.8,0.0320052,0.0316534,22.749,18,0.00106152,10,0.000720082,-1.64304,0.372869,0.158232,140.279,0.0316534,
2,1,0,1,0,34688.8,0.0428033,0.0424843,24.1638,18,0.0014841,10,0.00102658,-1.61683,0.443284,0.133098,125.46,0.0424843,
2,1,0,1,0,34688.8,0.0535986,0.0532347,25.4785,18,0.00193115,10,0.00135634,-1.59383,0.480085,0.122895,122.247,0.0532347,
2,1,0,1,0,34688.8,0.0644077,0.0640615,26.8064,18,0.00240196,10,0.00171726,-1.57176,0.501646,0.117613,123.069,0.0640615,
2,1,0,1,0,34688.9,0.075203,0.0748596,28.1643,18,0.00289685,10,0.00210837,-1.5503,0.501938,0.117544,129.245,0.0748596,
2,1,0,1,0,34688.9,0.0860011,0.0856164,29.5758,18,0.00341662,10,0.00253218,-1.52906,0.521057,0.113231,130.714,0.08561638,
2,1,0,1,0,34688.9,0.0968075,0.0964028,31.0421,18,0.00396223,10,0.00299255,-1.50805,0.519505,0.11357,137.556,0.0964028,
2,1,0,1,0,34688.9,0.107606,0.107237,32.5409,18,0.00453457,10,0.00348959,-1.48757,0.541752,0.108906,138.224,0.107237,
2,1,0,1,0,34688.9,0.118401,0.118045,34.0445,18,0.00513358,10,0.00401877,-1.46795,0.533054,0.110683,147.112,0.118045,
2,1,0,1,0,34689,0.129207,0.12887,35.7276,18,0.0057614,10,0.00460422,-1.447,0.517935,0.113914,158.8,0.12887,
2,1,0,1,0,34689,0.140005,0.139632,37.525,18,0.00642054,10,0.00523971,-1.42568,0.488777,0.120709,176.783,0.1396324,
2,1,0,1,0,34689,0.150803,0.150459,39.4317,18,0.00711338,10,0.00593286,-1.40415,0.517761,0.113952,175.318,0.150459,
2,1,0,1,0,34689,0.161604,0.161245,41.2495,18,0.00783997,10,0.00665126,-1.38458,0.597578,0.0987319,158.855,0.161245,
2,1,0,1,0,34689,0.172405,0.17205,42.8211,18,0.00859736,10,0.00736738,-1.36834,0.779896,0.0756511,126.275,0.17205,
2,1,0,1,0,34689,0.183203,0.182847,43.8787,18,0.00937884,10,0.0080231,-1.35775,1.63719,0.0360374,61.5914,0.182847,
2,1,0,1,0,34689.1,0.194001,0.193689,44.0308,18,0.0101717,10,0.00852827,-1.35624,-2.66945,-0.0221019,-37.887,0.193689,
2,1,0,1,0,34689.1,0.204808,0.204472,43.0653,18,0.0109572,10,0.00880564,-1.36587,-0.692038,-0.0852555,-142.914,0.204472,
2,1,0,1,0,34689.1,0.215603,0.21532,41.0205,18,0.0117152,10,0.00883254,-1.387,-0.410956,-0.143568,-229.329,0.21532,
2,1,0,1,0,34689.1,0.226401,0.226106,38.1933,18,0.0124286,10,0.00863574,-1.41801,-0.311284,-0.189537,-282.167,0.226106,
2,1,0,1,0,34689.1,0.237207,0.236943,35.1139,18,0.0130879,10,0.00831998,-1.45452,-0.286074,-0.206241,-282.54,0.236943,
2,1,0,1,0,34689.2,0.248005,0.247717,32.2014,18,0.0136929,10,0.00797681,-1.49213,-0.297979,-0.198001,-249.028,0.2477165,
2,1,0,1,0,34689.2,0.258801,0.258496,29.7051,18,0.0142491,10,0.00767862,-1.52717,-0.327747,-0.180017,-208.965,0.258496,
2,1,0,1,0,34689.2,0.26961,0.269263,27.6598,18,0.0147646,10,0.00744777,-1.55815,-0.373376,-0.158018,-170.819,0.269263,
2,1,0,1,0,34689.2,0.280405,0.280077,26.0084,18,0.015247,10,0.00728434,-1.58489,-0.435162,-0.135582,-137.786,0.280077,
2,1,0,1,0,34689.2,0.291203,0.290839,24.6766,18,0.0157027,10,0.00717691,-1.60771,-0.501137,-0.117732,-113.507,0.290839,
2,1,0,0,0,34689.2,0.300012,0.299689,23.7671,18,0.0160585,10,0.00712273,-1.62402,0.00268404,21.9818,18025.6,0.2996892,
2,1,0,1,0,34689.3,0.290843,0.290572,11.7086,18,0.0163145,10,0.00340219,-1.93149,0.0299126,1.97241,904.734,0.290572,
2,1,0,1,0,34689.3,0.280047,0.279788,4.17467,18,0.0164511,10,0.00116802,-2.37938,0.0159131,3.70763,553.295,0.279788,
2,0,0,1,0,34689.3,0.269244,0.268936,-0.704331,18,0.0164791,10,-0.00018942,-3.15222,-0.0348107,-1.69488,371.582,0.268936,
2,0,0,1,0,34689.3,0.258443,0.258134,-4.08258,18,0.0164342,10,-0.00105385,-2.38907,-0.0330241,-1.78657,267.993,0.258134,
2,0,0,1,0,34689.3,0.247645,0.247318,-6.55858,18,0.0163371,10,-0.00162205,-2.18319,-0.073771,-0.799772,201.577,0.247318,
2,0,0,1,0,34689.3,0.236849,0.23652,-8.47078,18,0.0162009,10,-0.0020035,-2.07208,-0.123145,-0.479112,157.256,0.23652,
2,0,0,1,0,34689.4,0.22604,0.225715,-10.0062,18,0.0160341,10,-0.00225854,-1.99973,-0.179135,-0.329361,127.991,0.225715,
2,0,0,1,0,34689.4,0.215245,0.214945,-11.26,18,0.0158423,10,-0.00242028,-1.94846,-0.234903,-0.251167,110.233,0.214945,
2,0,0,1,0,34689.4,0.204447,0.204118,-12.365,18,0.0156293,10,-0.00252392,-1.90781,-0.296691,-0.19886,95.8512,0.204118,
2,0,0,1,0,34689.4,0.19364,0.193274,-13.3537,18,0.0153976,10,-0.00258092,-1.8744,-0.351738,-0.167738,87.331,0.193274,
2,0,0,1,0,34689.4,0.182842,0.182558,-14.2701,18,0.0151488,10,-0.00260512,-1.84557,-0.385178,-0.153176,85.3213,0.182558,
2,0,0,1,0,34689.5,0.172047,0.171678,-15.2068,18,0.0148834,10,-0.00261067,-1.81796,-0.394827,-0.149433,88.7423,0.1716779,
2,0,0,1,0,34689.5,0.161241,0.160934,-16.2331,18,0.0146006,10,-0.00261245,-1.7896,-0.373147,-0.158115,100.178,0.160934,
2,0,0,1,0,34689.5,0.150443,0.150095,-17.4403,18,0.014298,10,-0.00261771,-1.75845,-0.314541,-0.187575,127.85,0.150095,
2,0,0,1,0,34689.5,0.139645,0.139386,-19.0685,18,0.0139701,10,-0.00265789,-1.71968,-0.246596,-0.239258,178.543,0.1393864,
2,0,0,1,0,34689.5,0.128849,0.128527,-21.3419,18,0.0136072,10,-0.00274301,-1.67077,-0.201459,-0.292863,244.521,0.128527,
2,0,0,1,0,34689.5,0.118043,0.117749,-24.3466,18,0.0131967,10,-0.00286678,-1.61356,-0.186038,-0.31714,301.334,0.117749,
2,0,0,1,0,34689.6,0.107245,0.106968,-27.7048,18,0.012728,10,-0.00296352,-1.55744,-0.202056,-0.291998,315.49,0.106968,
2,0,0,1,0,34689.6,0.0964468,0.0961749,-30.9781,18,0.0121987,10,-0.00297932,-1.50894,-0.244627,-0.241183,291.567,0.0961749,
2,0,0,1,0,34689.6,0.0856404,0.0854011,-34.034,18,0.0116127,10,-0.00290654,-1.46809,-0.302115,-0.19529,258.936,0.0854011,
2,0,0,1,0,34689.6,0.0748451,0.0745574,-36.5435,18,0.0109762,10,-0.00272459,-1.43719,-0.409194,-0.144186,205.288,0.0745574,
2,0,0,1,0,34689.6,0.0640471,0.0637985,-38.4606,18,0.0103001,10,-0.00245373,-1.41498,-0.595563,-0.099066,148.485,0.06379851,
2,0,0,1,0,34689.6,0.0532407,0.0529113,-39.7879,18,0.00959485,10,-0.00210523,-1.40025,-0.999228,-0.0590456,91.5206,0.0529113,
2,0,0,1,0,34689.7,0.0424426,0.0421567,-40.5231,18,0.00887139,10,-0.00170832,-1.3923,-1.88025,-0.0313787,49.5686,0.0421567,
2,0,0,1,0,34689.7,0.0316473,0.0312939,-40.8762,18,0.00813832,10,-0.00127918,-1.38853,-5.16789,-0.0114166,18.1977,0.0312939,
2,0,0,1,0,34689.7,0.0208437,0.0205467,-40.9476,18,0.00740172,10,-0.000841336,-1.38777,19.1674,0.00307814,-4.91525,0.0205467,
2,0,0,1,0,34689.7,0.0100429,0.0097093,-40.7921,18,0.00666584,10,-0.000396063,-1.38942,3.97371,0.0148476,-23.6201,0.0097093,
2,0,0,1,0,34689.7,-0.000755207,-0.00110578,-40.4569,18,0.00593441,10,4.47365e-05,-1.39301,2.28414,0.0258303,-40.7368,-0.001105783,
2,0,0,1,0,34689.8,-0.0115505,-0.0119081,-39.811,18,0.00521158,10,0.000474076,-1.4,1.27654,0.0462185,-71.7946,-0.0119081,
2,0,0,1,0,34689.8,-0.0223597,-0.0227169,-38.9463,18,0.00450242,10,0.000884739,-1.40953,1.0059,0.0586541,-89.128,-0.0227169,
2,0,0,1,0,34689.8,-0.033155,-0.033532,-37.9453,18,0.00381033,10,0.00127238,-1.42084,0.95498,0.0617814,-91.5307,-0.033532,
2,0,0,1,0,34689.8,-0.043953,-0.0443312,-36.9909,18,0.00313608,10,0.00163985,-1.43191,1.00724,0.0585758,-84.6154,-0.0443312,
2,0,0,1,0,34689.8,-0.0547594,-0.0551515,-36.2051,18,0.00247776,10,0.00199676,-1.44123,1.30096,0.0453512,-64.1012,-0.0551515,
2,0,0,1,0,34689.8,-0.0655575,-0.06592,-35.6402,18,0.00183165,10,0.0023494,-1.44806,2.10929,0.0279715,-38.9268,-0.06591998,
2,0,0,1,0,34689.9,-0.0763528,-0.076717,-35.3235,18,0.0011934,10,0.00270992,-1.45194,4.32638,0.0136373,-18.8073,-0.076717,
2,0,0,1,0,34689.9,-0.0871592,-0.0875374,-35.2397,18,0.000558843,10,0.0030848,-1.45297,-53.7908,-0.00109684,1.50868,-0.0875374,
2,0,0,1,0,34689.9,-0.0979573,-0.0983525,-35.3504,18,-7.60782e-05,10,0.0034768,-1.45161,-8.56585,-0.00688782,9.48726,-0.0983525,
2,0,0,1,1,34689.9,-0.0955546,-0.0959814,-27.1251,18,-0.000430337,10,0.00260351,-1.56663,-0.0415857,-1.41876,1525.08,-0.0959814,
2,0,0,1,1,34689.9,-0.0847538,-0.0851886,-15.1119,18,-0.000801006,10,0.00128736,-1.82068,-0.0382235,-1.54355,905.381,-0.0851886,
2,0,0,1,1,34689.9,-0.0739557,-0.0743629,-6.75851,18,-0.000993429,10,0.000502582,-2.17015,-0.0217713,-2.71,676.562,-0.0743629,
2,0,0,1,1,34690,-0.0631604,-0.0635754,-0.324337,18,-0.00105417,10,2.06199e-05,-3.489,-0.0639482,-0.922622,529.081,-0.0635754,
2,1,0,1,1,34690,-0.0523512,-0.052755,4.82837,18,-0.00101141,10,-0.000254721,-2.3162,0.0235962,2.50041,431.097,-0.052755,
2,1,0,1,1,34690,-0.0415559,-0.0419961,9.02498,18,-0.000885168,10,-0.000379014,-2.04455,0.0578843,1.01927,351.882,-0.0419961,
2,1,0,1,1,34690,-0.0307579,-0.0311757,12.4848,18,-0.000690158,10,-0.000389223,-1.90362,0.0989346,0.596353,288.077,-0.0311757,
2,1,0,1,1,34690,-0.0199515,-0.0203373,15.3301,18,-0.000438743,10,-0.000311773,-1.81445,0.148507,0.397289,236.142,-0.0203373,
2,1,0,1,1,34690.1,-0.0091534,-0.00954662,17.6272,18,-0.000141414,10,-0.00016828,-1.75382,0.209137,0.282112,193.27,-0.00954662,
2,1,0,0,1,34690.1,-7.54729e-05,-0.000401673,19.1558,18,0.000137144,10,-7.69438e-06,-1.7177, , , ,-0.000401673,