Folder: Figs_alphaMnO2_OER_Tafel_sleope/Figure_codes/Fig_3-5/rawdata_trumpetplot_data/after 10th (part 196)

File: 20221101_1-115_003_TrumpetPlot_ParaChange_from10_every3_13_CV_C01_8.csv
mode,ox/red,error,control changes,counter inc.,time/s,control/V,Ewe/V,<I>/mA,cycle number,(Q-Qo)/C,I Range,P/W,log(|I|),Tafel slope mV/dec,alpha_eff,dI/d(E-IR),E-IR/V,
2,1,0,1,0,16958.9,2.44065e-05,-0.000306236,24.8591,9,0.0000000E+000,10,-7.61277e-06,-1.60451, , , ,-0.000306236,
2,1,0,1,0,16958.9,0.0122624,0.0119287,29.3403,9,0.000415355,10,0.000349992,-1.53254,0.253398,0.232835,264.877,0.0119287,
2,1,0,1,0,16958.9,0.0250636,0.0247374,32.2002,9,0.000909216,10,0.00079655,-1.49214,0.378428,0.155908,195.393,0.0247374,
2,1,0,1,0,16958.9,0.0378704,0.0375322,34.4715,9,0.0014432,10,0.00129379,-1.46254,0.48202,0.122402,164.422,0.0375322,
2,1,0,1,0,16959,0.0506632,0.0502932,36.518,9,0.00201132,10,0.00183661,-1.43749,0.517602,0.113987,162.41,0.0502932,
2,1,0,1,0,16959,0.0634672,0.0631188,38.5995,9,0.00261243,10,0.00243635,-1.41342,0.534995,0.110281,166.177,0.0631188,
2,1,0,1,0,16959,0.0762629,0.0758659,40.822,9,0.00324796,10,0.003097,-1.38911,0.522172,0.112989,180.047,0.0758659,
2,1,0,1,0,16959,0.0890668,0.0886831,43.1964,9,0.0039202,10,0.00383079,-1.36455,0.514805,0.114606,193.296,0.0886831,
2,1,0,1,0,16959,0.10186,0.101501,45.7337,9,0.00463183,10,0.00464203,-1.33976,0.532228,0.110855,197.782,0.101501,
2,1,0,1,0,16959,0.114666,0.114255,48.3141,9,0.00538411,10,0.00552011,-1.31593,0.518953,0.11369,214.554,0.114255,
2,1,0,1,0,16959.1,0.127462,0.127128,51.1296,9,0.00618004,10,0.00650002,-1.29133,0.525513,0.112271,224.203,0.127128,
2,1,0,1,0,16959.1,0.140263,0.139902,54.1836,9,0.00702258,10,0.00758038,-1.26613,0.496352,0.118867,251.49,0.139902,
2,1,0,1,0,16959.1,0.153064,0.152665,57.5153,9,0.00791637,10,0.00878056,-1.24022,0.511573,0.115331,258.683,0.152665,
2,1,0,1,0,16959.1,0.165866,0.165537,60.7194,9,0.00886297,10,0.0100513,-1.21667,0.594468,0.0992485,234.878,0.165537,
2,1,0,1,0,16959.1,0.178667,0.178349,63.4154,9,0.00985731,10,0.0113101,-1.19781,0.826262,0.0714059,176.346,0.178349,
2,1,0,1,0,16959.1,0.191463,0.191123,65.02,9,0.0108871,10,0.0124268,-1.18695,2.6635,0.0221513,55.9952,0.191123,
2,1,0,1,0,16959.2,0.204269,0.20393,64.5885,9,0.0119275,10,0.0131716,-1.18984,-1.05455,-0.0559482,-140.246,0.20393,
2,1,0,1,0,16959.2,0.217062,0.216762,61.3719,9,0.0129386,10,0.0133031,-1.21203,-0.396267,-0.148889,-354.683,0.216762,
2,1,0,1,0,16959.2,0.229866,0.229557,55.8053,9,0.0138779,10,0.0128105,-1.25332,-0.263405,-0.223989,-486.253,0.229557,
2,1,0,1,0,16959.2,0.242662,0.242399,49.3212,9,0.0147183,10,0.0119554,-1.30697,-0.229131,-0.257494,-495.734,0.242399,
2,1,0,1,0,16959.2,0.255466,0.255171,43.3863,9,0.0154581,10,0.0110709,-1.36265,-0.239538,-0.246307,-418.172,0.255171,
2,1,0,1,0,16959.2,0.268259,0.267973,38.6788,9,0.0161126,10,0.0103649,-1.41253,-0.28065,-0.210226,-318.421,0.267973,
2,1,0,1,0,16959.3,0.281065,0.280752,35.1982,9,0.0167021,10,0.00988198,-1.45348,-0.349088,-0.169012,-232.82,0.280752,
2,1,0,1,0,16959.3,0.293861,0.293541,32.6548,9,0.0172436,10,0.00958553,-1.48605,-0.439383,-0.134279,-171.772,0.293541,
2,1,0,1,0,16959.3,0.298983,0.298901,28.8559,9,0.0175295,10,0.00862507,-1.53977,0.0242961,2.42838,2210.64,0.298901,
2,1,0,1,0,16959.3,0.286187,0.285942,8.56866,9,0.0178033,10,0.00245014,-2.06709,0.016588,3.55679,1069.16,0.285942,
2,0,0,1,0,16959.3,0.273386,0.273151,-1.59895,9,0.0178504,10,-0.000436754,-2.79617,-0.0495407,-1.19094,609.71,0.2731514,
2,0,0,1,0,16959.3,0.260585,0.260326,-7.67969,9,0.0177717,10,-0.00199922,-2.11466,-0.0436536,-1.35155,377.145,0.260326,
2,0,0,1,0,16959.3,0.247783,0.247486,-11.6416,9,0.0176147,10,-0.00288114,-1.93399,-0.102309,-0.576687,256.787,0.247486,
2,0,0,1,0,16959.4,0.234982,0.234659,-14.4051,9,0.0174049,10,-0.00338028,-1.84148,-0.17851,-0.330513,184.166,0.234659,
2,0,0,1,0,16959.4,0.222187,0.22192,-16.4639,9,0.017157,10,-0.00365367,-1.78347,-0.260479,-0.226506,144.991,0.22192,
2,0,0,1,0,16959.4,0.20938,0.209076,-18.141,9,0.0168794,10,-0.00379285,-1.74134,-0.343119,-0.171952,121.564,0.209076,
2,0,0,1,0,16959.4,0.196587,0.196288,-19.6016,9,0.016577,10,-0.00384756,-1.70771,-0.414766,-0.142249,108.76,0.196288,
2,0,0,1,0,16959.4,0.183783,0.183495,-20.9911,9,0.016252,10,-0.00385177,-1.67796,-0.440221,-0.134023,109.801,0.183495,
2,0,0,1,0,16959.4,0.170987,0.170674,-22.447,9,0.0159046,10,-0.00383112,-1.64884,-0.418074,-0.141123,123.841,0.170674,
2,0,0,1,0,16959.5,0.158183,0.157884,-24.2248,9,0.0155315,10,-0.00382471,-1.61574,-0.35168,-0.167766,159.04,0.157884,
2,0,0,1,0,16959.5,0.145385,0.145101,-26.6178,9,0.0151255,10,-0.00386227,-1.57483,-0.272832,-0.21625,225.675,0.145101,
2,0,0,1,0,16959.5,0.132584,0.13232,-30.0961,9,0.0146729,10,-0.00398231,-1.52149,-0.214996,-0.274423,323.681,0.13232,
2,0,0,1,0,16959.5,0.119782,0.119493,-34.9582,9,0.014154,10,-0.00417727,-1.45645,-0.190483,-0.309739,422.77,0.119493,
2,0,0,1,0,16959.5,0.106987,0.106751,-40.7071,9,0.0135488,10,-0.00434554,-1.39033,-0.203659,-0.2897,459.332,0.106751,
2,0,0,1,0,16959.5,0.0941801,0.0939904,-46.434,9,0.0128506,10,-0.00436435,-1.33316,-0.246964,-0.238902,432.05,0.0939904,
2,0,0,1,0,16959.5,0.0813844,0.0811871,-51.6239,9,0.0120641,10,-0.00419119,-1.28715,-0.324392,-0.181879,365.241,0.0811871,
2,0,0,1,0,16959.6,0.0685832,0.068389,-55.7786,9,0.011203,10,-0.00381464,-1.25353,-0.45229,-0.130447,283.185,0.068389,
2,0,0,1,0,16959.6,0.0557876,0.0555008,-58.7388,9,0.0102844,10,-0.00326005,-1.23107,-0.783012,-0.07535,172.187,0.0555008,
2,0,0,1,0,16959.6,0.0429808,0.0427028,-60.2761,9,0.00933041,10,-0.00257396,-1.21986,-1.88413,-0.0313142,73.4912,0.0427028,
2,0,0,1,0,16959.6,0.030188,0.0298814,-60.7118,9,0.00836124,10,-0.00181415,-1.21673,-27.3917,-0.00215393,5.09757,0.0298814,
2,0,0,1,0,16959.6,0.017384,0.0170473,-60.4998,9,0.00739073,10,-0.00103136,-1.21825,4.01902,0.0146802,-34.6346,0.0170473,
2,0,0,1,0,16959.6,0.00458834,0.00427472,-59.8489,9,0.00642738,10,-0.000255837,-1.22294,2.24414,0.0262907,-61.3944,0.00427472,
2,0,0,1,0,16959.7,-0.00821564,-0.0085562,-58.8655,9,0.00547674,10,0.000503665,-1.23014,1.35816,0.043441,-99.6859,-0.008556203,
2,0,0,1,0,16959.7,-0.0210196,-0.0213543,-57.3298,9,0.00454665,10,0.00122423,-1.24162,0.930805,0.063386,-141.644,-0.0213543,
2,0,0,1,0,16959.7,-0.0338153,-0.0341534,-55.3295,9,0.00364507,10,0.00188969,-1.25704,0.778094,0.0758263,-163.666,-0.0341534,
2,0,0,1,0,16959.7,-0.0466193,-0.0469875,-53.1936,9,0.00277714,10,0.00249943,-1.27414,0.767834,0.0768395,-159.635,-0.04698747,
2,0,0,1,0,16959.7,-0.0594121,-0.0597749,-51.3528,9,0.0019414,10,0.00306961,-1.28944,0.970119,0.0608173,-122.074,-0.05977492,
2,0,0,1,0,16959.7,-0.0722189,-0.0725486,-50.0977,9,0.00113059,10,0.00363452,-1.30018,1.52368,0.038722,-75.8119,-0.0725486,
2,0,0,1,0,16959.8,-0.0850146,-0.0853848,-49.4285,9,0.000335243,10,0.00422044,-1.30602,3.77637,0.0156235,-30.1759,-0.0853848,
2,0,0,1,0,16959.8,-0.0978158,-0.0981733,-49.3194,9,-0.000454057,10,0.00484185,-1.30698,-9.8535,-0.00598772,11.5372,-0.0981733,
2,0,0,1,0,16959.8,-0.110611,-0.110968,-49.6601,9,-0.00124546,10,0.00551069,-1.30399,-2.65317,-0.0222375,43.1516,-0.110968,
2,0,0,1,0,16959.8,-0.123418,-0.123799,-50.4146,9,-0.00204588,10,0.00624128,-1.29744,-1.61788,-0.0364674,71.8106,-0.1237991,
2,0,0,1,0,16959.8,-0.136214,-0.136499,-51.4609,9,-0.00286073,10,0.00702434,-1.28852,-1.34467,-0.043877,88.1511,-0.136499,
2,0,0,1,0,16959.8,-0.149015,-0.149362,-52.6831,9,-0.00369391,10,0.00786887,-1.27833,-1.20453,-0.0489817,100.715,-0.149362,
2,0,0,1,0,16959.9,-0.161816,-0.162134,-53.9827,9,-0.00454742,10,0.00875242,-1.26775,-1.2265,-0.0481044,101.34,-0.162134,
2,0,0,1,0,16959.9,-0.174615,-0.174926,-55.25,9,-0.00542165,10,0.00966464,-1.25767,-1.29268,-0.0456415,98.4272,-0.174926,
2,0,0,1,0,16959.9,-0.187419,-0.187746,-56.4901,9,-0.00631593,10,0.0106058,-1.24803,-1.39018,-0.0424404,93.5557,-0.187746,
2,0,0,1,0,16959.9,-0.199647,-0.199964,-57.6113,9,-0.00718915,10,0.0115202,-1.23949,0.255704,0.230735,-501.879,-0.1999644,
2,0,0,1,1,16959.9,-0.192535,-0.192982,-41.43,9,-0.00768486,10,0.00799525,-1.38269,-0.0566145,-1.04214,1721.59,-0.192982,
2,0,0,1,1,16959.9,-0.179739,-0.180114,-24.6908,9,-0.00820281,10,0.00444715,-1.60747,-0.0523971,-1.12602,1081.46,-0.180114,
2,0,0,1,1,16959.9,-0.166932,-0.167319,-12.7639,9,-0.00849698,10,0.00213564,-1.89402,-0.0344956,-1.71036,822.796,-0.167319,
2,0,0,1,1,16960,-0.154139,-0.154539,-3.35991,9,-0.00862238,10,0.000519237,-2.47367,-0.0123297,-4.78519,666.872,-0.154539,
2,1,0,1,1,16960,-0.141335,-0.141815,4.43438,9,-0.00861108,10,-0.000628864,-2.35317,0.0122688,4.80894,561.344,-0.141815,
2,1,0,1,1,16960,-0.12854,-0.128995,11.0793,9,-0.00848499,10,-0.00142917,-1.95549,0.0508158,1.16106,484.3,-0.128995,
2,1,0,1,1,16960,-0.115736,-0.11618,16.8938,9,-0.00825956,10,-0.00196272,-1.77227,0.0905461,0.651602,423.503,-0.11618,
2,1,0,1,1,16960,-0.102932,-0.103344,21.971,9,-0.00794724,10,-0.00227057,-1.65815,0.136024,0.433748,369.076,-0.103344,
2,1,0,1,1,16960,-0.0901362,-0.0905554,26.41,9,-0.00755896,10,-0.00239157,-1.57823,0.184425,0.319913,328.366,-0.0905554,
2,1,0,1,1,16960.1,-0.0773322,-0.0777711,30.359,9,-0.00710372,10,-0.00236105,-1.51771,0.241965,0.243837,287.943,-0.07777109,
2,1,0,1,1,16960.1,-0.0645393,-0.0649412,33.8083,9,-0.00658943,10,-0.00219556,-1.47098,0.30818,0.191447,251.996,-0.06494122,
2,1,0,1,1,16960.1,-0.0517325,-0.0521039,36.8256,9,-0.00602345,10,-0.00191876,-1.43385,0.38618,0.152778,219.113,-0.0521039,
2,1,0,1,1,16960.1,-0.0389369,-0.0393441,39.4017,9,-0.00541282,10,-0.00155022,-1.40449,0.491915,0.119939,184.137,-0.0393441,
2,1,0,1,1,16960.1,-0.0261357,-0.0265121,41.5489,9,-0.00476437,10,-0.00110155,-1.38144,0.62945,0.0937326,151.807,-0.0265121,
2,1,0,1,1,16960.1,-0.01334,-0.0137543,43.274,9,-0.00408496,10,-0.000595205,-1.36377,0.83696,0.0704932,118.941,-0.0137543,
2,1,0,1,1,16960.1,-0.000774628,-0.00116835,44.5957,9,-0.00339449,10,-5.21032e-05,-1.35071, , , ,-0.00116835,
2,1,0,0,1,16960.1,-0.000125413,-0.000516197,44.6601,9,-0.00335879,10,-2.30534e-05,-1.35008, , , ,-0.000516197,

File: 20221101_1-115_003_TrumpetPlot_ParaChange_from10_every3_13_CV_C01_9.csv
mode,ox/red,error,control changes,counter inc.,time/s,control/V,Ewe/V,<I>/mA,cycle number,(Q-Qo)/C,I Range,P/W,log(|I|),Tafel slope mV/dec,alpha_eff,dI/d(E-IR),E-IR/V,
2,1,0,1,0,18929,2.44065e-05,-0.000248974,21.9894,10,0.0000000E+000,10,-5.47478e-06,-1.65779, , , ,-0.000248974,
2,1,0,1,0,18929,0.0122624,0.0118545,26.222,10,0.000369136,10,0.000310849,-1.58133,0.230631,0.25582,259.904,0.0118545,
2,1,0,1,0,18929.1,0.0250636,0.0246992,29.0585,10,0.000812738,10,0.000717722,-1.53673,0.336797,0.17518,198.145,0.0246992,
2,1,0,1,0,18929.1,0.0378704,0.0375026,31.3634,10,0.00129692,10,0.00117621,-1.50358,0.429282,0.137439,168.061,0.0375026,
2,1,0,1,0,18929.1,0.0506632,0.050308,33.4349,10,0.00181578,10,0.00168204,-1.4758,0.482416,0.122301,159.552,0.050308,
2,1,0,1,0,18929.1,0.0634672,0.0630891,35.497,10,0.00236738,10,0.00223947,-1.44981,0.504273,0.117,162.031,0.0630891,
2,1,0,1,0,18929.1,0.0762628,0.0759243,37.617,10,0.00295232,10,0.00285604,-1.42462,0.50655,0.116474,170.999,0.0759243,
2,1,0,1,0,18929.1,0.0890668,0.0887106,39.8576,10,0.00357222,10,0.00353579,-1.39949,0.511033,0.115452,179.613,0.0887106,
2,1,0,1,0,18929.2,0.10186,0.101485,42.1797,10,0.00422881,10,0.00428062,-1.3749,0.517703,0.113965,187.754,0.101485,
2,1,0,1,0,18929.2,0.114666,0.114248,44.6341,10,0.00492381,10,0.00509937,-1.35033,0.542414,0.108773,189.435,0.114248,
2,1,0,1,0,18929.2,0.127462,0.127028,47.1347,10,0.00565772,10,0.00598745,-1.32666,0.524588,0.112469,207.017,0.127028,
2,1,0,1,0,18929.2,0.140263,0.139886,49.9168,10,0.00643423,10,0.00698265,-1.30175,0.508968,0.115921,225.911,0.139886,
2,1,0,1,0,18929.2,0.153064,0.152708,52.9132,10,0.00725693,10,0.00808028,-1.27644,0.509833,0.115724,238.94,0.152708,
2,1,0,1,0,18929.2,0.165866,0.165485,55.9255,10,0.00812829,10,0.00925484,-1.25239,0.568121,0.103851,226.508,0.165485,
2,1,0,1,0,18929.3,0.178667,0.178278,58.627,10,0.00904575,10,0.0104519,-1.2319,0.72249,0.081662,186.564,0.178278,
2,1,0,1,0,18929.3,0.191463,0.191105,60.6192,10,0.0100013,10,0.0115846,-1.21739,1.30284,0.0452856,106.791,0.191105,
2,1,0,1,0,18929.3,0.204269,0.203919,61.1577,10,0.010978,10,0.0124712,-1.21355,-3.85665,-0.0152982,-36.346,0.2039185,
2,1,0,1,0,18929.3,0.217062,0.216741,59.5674,10,0.0119467,10,0.0129107,-1.22499,-0.649686,-0.0908131,-210.12,0.216741,
2,1,0,1,0,18929.3,0.229866,0.229541,55.8428,10,0.0128722,10,0.0128182,-1.25303,-0.360933,-0.163465,-355.046,0.229541,
2,1,0,1,0,18929.3,0.242662,0.242363,50.7903,10,0.0137259,10,0.0123097,-1.29422,-0.28449,-0.207389,-410.725,0.2423625,
2,1,0,1,0,18929.3,0.255466,0.255157,45.6215,10,0.0144962,10,0.0116407,-1.34083,-0.275873,-0.213866,-381.151,0.255157,
2,1,0,1,0,18929.4,0.268259,0.267909,41.1095,10,0.0151884,10,0.0110136,-1.38606,-0.297572,-0.198271,-318.743,0.267909,
2,1,0,1,0,18929.4,0.281065,0.280762,37.5135,10,0.0158159,10,0.0105324,-1.42581,-0.353176,-0.167055,-245.146,0.280762,
2,1,0,1,0,18929.4,0.293861,0.29356,34.7427,10,0.0163929,10,0.0101991,-1.45914,-0.419876,-0.140518,-191.296,0.29356,
2,1,0,1,0,18929.4,0.298983,0.298831,31.161,10,0.0166973,10,0.00931188,-1.50639,0.0304046,1.9405,1991.02,0.298831,
2,1,0,1,0,18929.4,0.286187,0.285952,12.544,10,0.0170253,10,0.00358698,-1.90156,0.0276462,2.13411,1025.28,0.285952,
2,1,0,1,0,18929.4,0.273386,0.273131,2.47777,10,0.0171378,10,0.000676757,-2.60594,0.015584,3.78594,618.61,0.273131,
2,0,0,1,0,18929.5,0.260585,0.260282,-3.90838,10,0.0171222,10,-0.00101728,-2.408,-0.0164573,-3.58503,406.918,0.260282,
2,0,0,1,0,18929.5,0.247783,0.247476,-8.25251,10,0.0170225,10,-0.0020423,-2.08341,-0.0638049,-0.924694,287.522,0.247476,
2,0,0,1,0,18929.5,0.234982,0.2347,-11.3988,10,0.0168636,10,-0.0026753,-1.94314,-0.122049,-0.483413,212.28,0.2347,
2,0,0,1,0,18929.5,0.222187,0.221868,-13.7911,10,0.016661,10,-0.00305981,-1.8604,-0.188221,-0.313461,167.722,0.221868,
2,0,0,1,0,18929.5,0.20938,0.209071,-15.7468,10,0.016424,10,-0.00329221,-1.80281,-0.260255,-0.226701,138.75,0.209071,
2,0,0,1,0,18929.5,0.196587,0.196291,-17.3975,10,0.0161584,10,-0.00341498,-1.75951,-0.324088,-0.182049,123.383,0.196291,
2,0,0,1,0,18929.5,0.183783,0.183494,-18.9219,10,0.0158676,10,-0.00347206,-1.72304,-0.367406,-0.160585,118.534,0.183494,
2,0,0,1,0,18929.6,0.170987,0.170676,-20.4274,10,0.0155526,10,-0.00348647,-1.68979,-0.383644,-0.153789,122.78,0.170676,
2,0,0,1,0,18929.6,0.158183,0.157879,-22.1371,10,0.0152121,10,-0.00349497,-1.65488,-0.345436,-0.170799,147.897,0.157879,
2,0,0,1,0,18929.6,0.145385,0.145087,-24.3128,10,0.0148411,10,-0.00352748,-1.61416,-0.283956,-0.207779,197.808,0.145087,
2,0,0,1,0,18929.6,0.132584,0.132281,-27.3401,10,0.014429,10,-0.00361657,-1.5632,-0.225373,-0.261788,280.281,0.132281,
2,0,0,1,0,18929.6,0.119783,0.119494,-31.4745,10,0.0139597,10,-0.00376103,-1.50204,-0.198157,-0.297743,366.644,0.119494,
2,0,0,1,0,18929.6,0.106987,0.106747,-36.549,10,0.0134154,10,-0.0039015,-1.43712,-0.205427,-0.287207,409.274,0.1067471,
2,0,0,1,0,18929.7,0.0941801,0.0939225,-41.7433,10,0.012788,10,-0.00392063,-1.37941,-0.245104,-0.240714,391.103,0.0939225,
2,0,0,1,0,18929.7,0.0813844,0.0811807,-46.5221,10,0.012081,10,-0.0037767,-1.33234,-0.305556,-0.19309,349.472,0.0811807,
2,0,0,1,0,18929.7,0.0685832,0.0683848,-50.5437,10,0.0113028,10,-0.00345642,-1.29633,-0.418559,-0.14096,277.283,0.0683848,
2,0,0,1,0,18929.7,0.0557876,0.0555284,-53.6339,10,0.0104678,10,-0.00297821,-1.27056,-0.613845,-0.0961155,200.597,0.0555284,
2,0,0,1,0,18929.7,0.0429808,0.0427134,-55.5987,10,0.00959199,10,-0.00237481,-1.25494,-1.14427,-0.0515613,111.66,0.0427134,
2,0,0,1,0,18929.7,0.030188,0.0298719,-56.586,10,0.00869317,10,-0.00169033,-1.24729,-2.73029,-0.0216094,47.6606,0.0298719,
2,0,0,1,0,18929.8,0.017384,0.0170823,-56.9302,10,0.00778421,10,-0.000972498,-1.24466,-16.6629,-0.0035408,7.85846,0.0170823,
2,0,0,1,0,18929.8,0.00458834,0.00427896,-56.821,10,0.00687377,10,-0.000243135,-1.24549,6.53732,0.00902511,-20.0026,0.00427896,
2,0,0,1,0,18929.8,-0.00821564,-0.00854136,-56.3647,10,0.00596749,10,0.000481431,-1.24899,2.43293,0.0242506,-53.3035,-0.00854136,
2,0,0,1,0,18929.8,-0.0210196,-0.0213627,-55.442,10,0.00507231,10,0.00118439,-1.25616,1.37679,0.0428532,-92.6292,-0.0213627,
2,0,0,1,0,18929.8,-0.0338153,-0.0341725,-54.0292,10,0.00419593,10,0.00184631,-1.26737,1.00702,0.0585884,-123.471,-0.0341725,
2,0,0,1,0,18929.8,-0.0466193,-0.0469684,-52.3713,10,0.00334473,10,0.0024598,-1.28091,0.911111,0.0647561,-132.332,-0.0469684,
2,0,0,1,0,18929.9,-0.0594121,-0.0598014,-50.758,10,0.00252023,10,0.0030354,-1.2945,1.04413,0.0565063,-112.03,-0.0598014,
2,0,0,1,0,18929.9,-0.0722189,-0.0725306,-49.5229,10,0.00171864,10,0.00359192,-1.30519,1.46529,0.0402652,-77.9215,-0.07253056,
2,0,0,1,0,18929.9,-0.0850146,-0.0853816,-48.7532,10,0.000933038,10,0.00416263,-1.312,2.68342,0.0219869,-41.8923,-0.0853816,
2,0,0,1,0,18929.9,-0.0978158,-0.0981839,-48.4555,10,0.000155858,10,0.00475755,-1.31466,17.6098,0.00335041,-6.34344,-0.0981839,
2,0,0,1,0,18929.9,-0.110611,-0.110949,-48.5813,10,-0.000619971,10,0.00539005,-1.31353,-4.67303,-0.0126256,23.9598,-0.1109491,
2,0,0,1,0,18929.9,-0.123418,-0.1238,-49.074,10,-0.00140088,10,0.00607537,-1.30915,-2.17185,-0.0271658,52.0681,-0.1238,
2,0,0,1,0,18929.9,-0.136214,-0.13658,-49.8644,10,-0.00219223,10,0.00681048,-1.30221,-1.60289,-0.0368086,71.6879,-0.13658,
2,0,0,1,0,18930,-0.149015,-0.149338,-50.8822,10,-0.00299829,10,0.00759864,-1.29343,-1.38464,-0.0426102,84.6492,-0.149338,
2,0,0,1,0,18930,-0.161816,-0.162186,-51.9964,10,-0.00382149,10,0.00843308,-1.28403,-1.37933,-0.0427742,86.8062,-0.162186,
2,0,0,1,0,18930,-0.174615,-0.174932,-53.1296,10,-0.00466267,10,0.00929407,-1.27466,-1.40012,-0.0421393,87.3496,-0.174932,
2,0,0,1,0,18930,-0.187419,-0.18776,-54.2337,10,-0.00552166,10,0.0101829,-1.26573,-1.47129,-0.0401008,84.8476,-0.1877597,
2,0,0,1,0,18930,-0.199647,-0.199926,-55.231,10,-0.0063593,10,0.0110421,-1.25782,0.278193,0.212083,-443.574,-0.199926,
2,0,0,1,1,18930,-0.192535,-0.192995,-41.0713,10,-0.00684201,10,0.00792655,-1.38646,-0.0629921,-0.936625,1529.67,-0.192995,
2,0,0,1,1,18930.1,-0.179739,-0.180172,-26.0166,10,-0.00736913,10,0.00468747,-1.58475,-0.0607254,-0.971586,984.98,-0.180172,
2,0,0,1,1,18930.1,-0.166932,-0.167309,-15.0596,10,-0.00769282,10,0.00251961,-1.82219,-0.0448851,-1.31447,759.261,-0.167309,
2,0,0,1,1,18930.1,-0.154139,-0.154534,-6.31565,10,-0.00786068,10,0.000975983,-2.19958,-0.0206077,-2.86301,622.954,-0.154534,
2,1,0,1,1,18930.1,-0.141335,-0.141741,0.990659,10,-0.00790089,10,-0.000140417,-3.00408,0.0561558,1.05065,527.812,-0.1417412,
2,1,0,1,1,18930.1,-0.12854,-0.128993,7.24946,10,-0.00783306,10,-0.000935129,-2.13969,0.0338293,1.74405,459.439,-0.128993,
2,1,0,1,1,18930.1,-0.115736,-0.116219,12.765,10,-0.00767143,10,-0.00148354,-1.89398,0.0711468,0.829271,405.003,-0.116219,
2,1,0,1,1,18930.2,-0.102932,-0.103375,17.6725,10,-0.00742665,10,-0.00182688,-1.7527,0.112623,0.523872,357.6,-0.103375,
2,1,0,1,1,18930.2,-0.0901362,-0.0905734,21.99,10,-0.00710822,10,-0.00199171,-1.65777,0.157424,0.374784,319.869,-0.0905734,
2,1,0,1,1,18930.2,-0.0773322,-0.077717,25.8516,10,-0.00672451,10,-0.00200911,-1.58751,0.209614,0.281469,282.886,-0.077717,
2,1,0,1,1,18930.2,-0.0645393,-0.0649412,29.2682,10,-0.0062826,10,-0.00190071,-1.5336,0.265339,0.222357,253.379,-0.06494122,
2,1,0,1,1,18930.2,-0.0517325,-0.0521368,32.3105,10,-0.00578899,10,-0.00168456,-1.49066,0.3343,0.176488,222.128,-0.0521368,
2,1,0,1,1,18930.2,-0.0389369,-0.0393377,34.9497,10,-0.00525006,10,-0.00137484,-1.45656,0.421397,0.140011,190.685,-0.0393377,
2,1,0,1,1,18930.2,-0.0261357,-0.0265163,37.2196,10,-0.0046719,10,-0.000986927,-1.42923,0.527161,0.11192,162.315,-0.0265163,
2,1,0,1,1,18930.3,-0.01334,-0.0137469,39.1068,10,-0.00406058,10,-0.000537597,-1.40775,0.675135,0.08739,133.209,-0.0137469,
2,1,0,1,1,18930.3,-0.000774628,-0.00121129,40.6042,10,-0.00343415,10,-4.91836e-05,-1.39143, , , ,-0.00121129,
2,1,0,0,1,18930.3,-0.000125413,-0.000611633,40.6798,10,-0.00340164,10,-2.48811e-05,-1.39062, , , ,-0.000611633,