Folder: Figs_alphaMnO2_OER_Tafel_sleope/Figure_codes/Fig_3-5/rawdata_trumpetplot_data/after 10th (part 180)

File: 20221101_1-115_003_TrumpetPlot_ParaChange_from10_every3_12_CV_C01_11.csv
mode,ox/red,error,control changes,counter inc.,time/s,control/V,Ewe/V,<I>/mA,cycle number,(Q-Qo)/C,I Range,P/W,log(|I|),Tafel slope mV/dec,alpha_eff,dI/d(E-IR),E-IR/V,
2,1,0,1,0,22868,2.44065e-05,-0.000172625,17.9887,12,0.0000000E+000,10,-3.1053e-06,-1.745, , , ,-0.000172625,
2,1,0,1,0,22868,0.0104008,0.010073,21.6299,12,0.00034463,10,0.000217878,-1.66495,0.202272,0.291687,244.804,0.010073,
2,1,0,1,0,22868,0.0212099,0.0208786,23.8437,12,0.000755173,10,0.000497823,-1.62263,0.314117,0.187828,174.284,0.0208786,
2,1,0,1,0,22868,0.0320052,0.0316491,25.5362,12,0.00120023,10,0.000808199,-1.59284,0.407143,0.144912,144.25,0.0316491,
2,1,0,1,0,22868,0.0428033,0.0424706,27.0246,12,0.00167349,10,0.00114775,-1.56824,0.467082,0.126316,133.134,0.0424706,
2,1,0,1,0,22868,0.0535986,0.0532984,28.4439,12,0.00217272,10,0.00151601,-1.54601,0.493198,0.119627,132.774,0.0532984,
2,1,0,1,0,22868.1,0.0644077,0.0640859,29.9107,12,0.00269803,10,0.00191685,-1.52417,0.494092,0.119411,139.402,0.0640859,
2,1,0,1,0,22868.1,0.075203,0.0748363,31.4543,12,0.00325042,10,0.00235393,-1.50232,0.487974,0.120908,148.476,0.0748363,
2,1,0,1,0,22868.1,0.0860011,0.0856153,33.0884,12,0.00383132,10,0.00283287,-1.48032,0.488592,0.120755,155.972,0.0856153,
2,1,0,1,0,22868.1,0.0968075,0.0964484,34.7824,12,0.00444244,10,0.00335471,-1.45864,0.523107,0.112788,153.025,0.0964484,
2,1,0,1,0,22868.1,0.107606,0.107225,36.4953,12,0.00508371,10,0.00391322,-1.43776,0.492729,0.119741,170.513,0.107225,
2,1,0,1,0,22868.2,0.118401,0.118069,38.2869,12,0.00575699,10,0.0045205,-1.41695,0.521757,0.11308,169.053,0.118069,
2,1,0,1,0,22868.2,0.129207,0.128899,40.2306,12,0.00646353,10,0.00518568,-1.39544,0.491124,0.120133,188.685,0.128899,
2,1,0,1,0,22868.2,0.140005,0.139705,42.3932,12,0.00720698,10,0.00592252,-1.3727,0.466978,0.126344,208.977,0.139705,
2,1,0,1,0,22868.2,0.150803,0.150481,44.6352,12,0.00799041,10,0.00671677,-1.35032,0.502222,0.117478,204.514,0.150481,
2,1,0,1,0,22868.2,0.161604,0.161279,46.7347,12,0.00881324,10,0.0075373,-1.33036,0.600456,0.0982587,179.015,0.161279,
2,1,0,1,0,22868.2,0.172405,0.17206,48.4438,12,0.00967075,10,0.00833522,-1.31476,0.850189,0.0693963,130.98,0.17206,
2,1,0,1,0,22868.3,0.183203,0.1829,49.394,12,0.0105529,10,0.00903417,-1.30633,3.6072,0.0163562,31.438,0.1829,
2,1,0,1,0,22868.3,0.194001,0.193665,48.9521,12,0.0114403,10,0.00948033,-1.31023,-0.949375,-0.0621462,-118.309,0.193665,
2,1,0,1,0,22868.3,0.204808,0.20447,46.8239,12,0.0123047,10,0.00957408,-1.32953,-0.396786,-0.148695,-270.805,0.2044699,
2,1,0,1,0,22868.3,0.215603,0.215313,43.2271,12,0.0131166,10,0.00930734,-1.36424,-0.265803,-0.221969,-373.737,0.215313,
2,1,0,1,0,22868.3,0.226401,0.226066,38.929,12,0.013856,10,0.00880053,-1.40973,-0.224828,-0.262423,-398.694,0.226066,
2,1,0,1,0,22868.4,0.237207,0.236864,34.8297,12,0.0145187,10,0.00824991,-1.45805,-0.226873,-0.260057,-353.931,0.236864,
2,1,0,1,0,22868.4,0.248005,0.247694,31.4181,12,0.0151134,10,0.00778209,-1.50282,-0.259958,-0.22696,-278.739,0.247694,
2,1,0,1,0,22868.4,0.258801,0.258485,28.7532,12,0.0156535,10,0.00743227,-1.54131,-0.308627,-0.191169,-214.861,0.2584849,
2,1,0,1,0,22868.4,0.26961,0.26929,26.739,12,0.0161518,10,0.00720055,-1.57286,-0.374931,-0.157362,-164.343,0.26929,
2,1,0,1,0,22868.4,0.280405,0.280108,25.199,12,0.0166184,10,0.00705843,-1.59862,-0.465655,-0.126703,-124.661,0.280108,
2,1,0,1,0,22868.4,0.291203,0.290853,23.9951,12,0.0170604,10,0.00697904,-1.61988,-0.560795,-0.105208,-98.6176,0.290853,
2,1,0,0,0,22868.5,0.300012,0.299727,23.1845,12,0.0174071,10,0.00694902,-1.6348,0.00155721,37.8882,29315,0.299727,
2,1,0,1,0,22868.5,0.290842,0.29057,8.99116,12,0.0176343,10,0.00261256,-2.04618,0.0196911,2.99628,1035.37,0.2905696,
2,1,0,1,0,22868.5,0.280047,0.279763,0.861685,12,0.017715,10,0.000241068,-3.06465,0.0245388,2.40436,568.731,0.279763,
2,0,0,1,0,22868.5,0.269244,0.26895,-3.9658,12,0.0176832,10,-0.0010666,-2.40167,-0.0230849,-2.55578,352.82,0.26895,
2,0,0,1,0,22868.5,0.258443,0.258138,-7.09352,12,0.0175816,10,-0.00183111,-2.14914,-0.066223,-0.890929,241.453,0.258138,
2,0,0,1,0,22868.5,0.247645,0.247332,-9.28744,12,0.0174327,10,-0.00229708,-2.0321,-0.121255,-0.486578,175.164,0.247332,
2,0,0,1,0,22868.6,0.236849,0.236527,-10.939,12,0.0172498,10,-0.00258738,-1.96102,-0.187198,-0.315174,134.021,0.236527,
2,0,0,1,0,22868.6,0.22604,0.225739,-12.2601,12,0.0170405,10,-0.00276759,-1.9115,-0.26168,-0.225466,107.488,0.2257385,
2,0,0,1,0,22868.6,0.215245,0.214914,-13.3364,12,0.01681,10,-0.00286617,-1.87496,-0.320434,-0.184125,95.6608,0.214914,
2,0,0,1,0,22868.6,0.204447,0.204116,-14.3069,12,0.016561,10,-0.00292026,-1.84446,-0.383832,-0.153713,85.6919,0.204116,
2,0,0,1,0,22868.6,0.19364,0.193317,-15.2145,12,0.0162954,10,-0.00294122,-1.81774,-0.429476,-0.137377,81.4141,0.193317,
2,0,0,1,0,22868.7,0.182842,0.182514,-16.0836,12,0.0160139,10,-0.00293549,-1.79362,-0.431808,-0.136635,85.7861,0.182514,
2,0,0,1,0,22868.7,0.172047,0.171739,-17.0223,12,0.015716,10,-0.00292339,-1.76898,-0.408027,-0.144598,96.1775,0.1717394,
2,0,0,1,0,22868.7,0.161241,0.160879,-18.1571,12,0.0153996,10,-0.00292109,-1.74095,-0.361151,-0.163367,115.944,0.160879,
2,0,0,1,0,22868.7,0.150443,0.150138,-19.6162,12,0.0150601,10,-0.00294514,-1.70738,-0.284675,-0.207254,159.038,0.150138,
2,0,0,1,0,22868.7,0.139645,0.139361,-21.6654,12,0.0146894,10,-0.00301932,-1.66423,-0.220337,-0.267772,227.257,0.139361,
2,0,0,1,0,22868.7,0.128849,0.128545,-24.5728,12,0.0142743,10,-0.0031587,-1.60955,-0.182469,-0.323343,311.038,0.128545,
2,0,0,1,0,22868.8,0.118043,0.117745,-28.3606,12,0.0137984,10,-0.00333931,-1.54728,-0.176181,-0.334882,370.459,0.117745,
2,0,0,1,0,22868.8,0.107245,0.106992,-32.4622,12,0.0132507,10,-0.0034732,-1.48862,-0.199138,-0.296277,374.326,0.106992,
2,0,0,1,0,22868.8,0.0964468,0.0961887,-36.3541,12,0.0126308,10,-0.00349685,-1.43945,-0.239825,-0.246013,348.091,0.09618865,
2,0,0,1,0,22868.8,0.0856404,0.0853491,-39.7962,12,0.0119443,10,-0.00339657,-1.40016,-0.319403,-0.18472,286.103,0.08534915,
2,0,0,1,0,22868.8,0.0748451,0.0746041,-42.5007,12,0.0112024,10,-0.00317073,-1.3716,-0.446627,-0.132101,218.684,0.0746041,
2,0,0,1,0,22868.8,0.0640471,0.0637582,-44.4369,12,0.0104184,10,-0.00283322,-1.35226,-0.758434,-0.0777918,134.628,0.0637582,
2,0,0,1,0,22868.9,0.0532407,0.0528848,-45.4663,12,0.00960796,10,-0.00240448,-1.34231,-1.79497,-0.0328696,58.2283,0.0528848,
2,0,0,1,0,22868.9,0.0424426,0.0421461,-45.7771,12,0.00878586,10,-0.00192932,-1.33935,-14.4324,-0.00408801,7.29829,0.0421461,
2,0,0,1,0,22868.9,0.0316473,0.0313193,-45.6625,12,0.00796229,10,-0.00143012,-1.34044,4.35629,0.0135436,-24.1292,0.0313193,
2,0,0,1,0,22868.9,0.0208437,0.0205265,-45.2955,12,0.00714342,10,-0.000929758,-1.34394,2.29337,0.0257263,-45.4561,0.0205265,
2,0,0,1,0,22868.9,0.0100429,0.00976762,-44.7298,12,0.00633301,10,-0.000436904,-1.3494,1.59758,0.0369308,-64.4222,0.00976762,
2,0,0,1,0,22869,-0.000755207,-0.00113441,-43.9766,12,0.00553454,10,4.98877e-05,-1.35678,1.24276,0.0474749,-81.3639,-0.00113441,
2,0,0,1,0,22869,-0.0115505,-0.0119156,-42.8718,12,0.00475261,10,0.000510842,-1.36783,0.844955,0.0698262,-116.748,-0.0119156,
2,0,0,1,0,22869,-0.0223597,-0.0226745,-41.5163,12,0.00399299,10,0.000941359,-1.38178,0.714283,0.0826003,-133.741,-0.02267446,
2,0,0,1,0,22869,-0.033155,-0.0335065,-40.0567,12,0.00325909,10,0.00134216,-1.39732,0.72742,0.0811086,-126.843,-0.03350652,
2,0,0,1,0,22869,-0.043953,-0.0442909,-38.7584,12,0.00255023,10,0.00171664,-1.41163,0.842127,0.0700607,-106.076,-0.0442909,
2,0,0,1,0,22869,-0.0547594,-0.0550975,-37.7887,12,0.00186194,10,0.00208206,-1.42264,1.15804,0.0509483,-75.2052,-0.0550975,
2,0,0,1,0,22869.1,-0.0655575,-0.0659232,-37.1565,12,0.00118795,10,0.00244947,-1.42997,2.19287,0.0269054,-39.0682,-0.0659232,
2,0,0,1,0,22869.1,-0.0763528,-0.0767022,-36.89,12,0.000521868,10,0.00282954,-1.43309,7.65885,0.0077035,-11.1039,-0.0767022,
2,0,0,1,0,22869.1,-0.0871592,-0.0875024,-36.9251,12,-0.000142002,10,0.00323103,-1.43268,-6.69411,-0.00881372,12.7078,-0.08750245,
2,0,0,1,0,22869.1,-0.0979573,-0.0983536,-37.2068,12,-0.000808791,10,0.00365943,-1.42938,-3.5402,-0.0166657,24.1469,-0.0983536,
2,0,0,1,1,22869.1,-0.0955546,-0.0959846,-27.4613,12,-0.0011774,10,0.00263587,-1.56128,-0.0355781,-1.65832,1801.6,-0.0959846,
2,0,0,1,1,22869.1,-0.0847538,-0.0851579,-13.236,12,-0.0015321,10,0.00112715,-1.87824,-0.0283387,-2.08196,1058.43,-0.0851579,
2,0,0,1,1,22869.2,-0.0739557,-0.0743619,-3.63916,12,-0.00167869,10,0.000270615,-2.439,-0.00624351,-9.44981,762.742,-0.0743619,
2,1,0,1,1,22869.2,-0.0631604,-0.0635945,3.53023,12,-0.00167619,10,-0.000224503,-2.4522,0.00923737,6.3871,585.98,-0.0635945,
2,1,0,1,1,22869.2,-0.0523512,-0.0527709,9.10286,12,-0.00156009,10,-0.000480366,-2.04082,0.0442005,1.33483,458.458,-0.0527709,
2,1,0,1,1,22869.2,-0.0415559,-0.0420067,13.5292,12,-0.00135445,10,-0.000568317,-1.86873,0.0845106,0.698138,364.209,-0.0420067,
2,1,0,1,1,22869.2,-0.0307579,-0.0311524,17.0157,12,-0.00107783,10,-0.00053008,-1.76915,0.137214,0.429986,283.876,-0.0311524,
2,1,0,1,1,22869.3,-0.0199515,-0.0203458,19.7608,12,-0.000745567,10,-0.000402049,-1.7042,0.2032,0.290354,222.957,-0.0203458,
2,1,0,1,1,22869.3,-0.0091534,-0.00955298,21.8899,12,-0.000369772,10,-0.000209113,-1.65976,0.290192,0.203314,173.235,-0.00955298,
2,1,0,0,1,22869.3,-7.54729e-05,-0.000497109,23.2436,12,-2.80815e-05,10,-1.15546e-05,-1.6337, , , ,-0.000497109,

File: 20221101_1-115_003_TrumpetPlot_ParaChange_from10_every3_12_CV_C01_12.csv
mode,ox/red,error,control changes,counter inc.,time/s,control/V,Ewe/V,<I>/mA,cycle number,(Q-Qo)/C,I Range,P/W,log(|I|),Tafel slope mV/dec,alpha_eff,dI/d(E-IR),E-IR/V,
2,1,0,1,0,24838.1,2.44065e-05,-0.0002108,17.2789,13,0.0000000E+000,10,-3.64239e-06,-1.76248, , , ,-0.0002108,
2,1,0,1,0,24838.1,0.0104008,0.0100338,20.8048,13,0.000331221,10,0.000208751,-1.68184,0.200884,0.293702,236.988,0.0100338,
2,1,0,1,0,24838.1,0.0212099,0.0208298,22.9688,13,0.000726264,10,0.000478435,-1.63886,0.305633,0.193042,172.537,0.0208298,
2,1,0,1,0,24838.1,0.0320052,0.0316162,24.6273,13,0.00115529,10,0.000778623,-1.60858,0.390772,0.150983,145.029,0.0316162,
2,1,0,1,0,24838.2,0.0428033,0.0424175,26.106,13,0.0016123,10,0.00110735,-1.58326,0.460708,0.128064,130.437,0.0424175,
2,1,0,1,0,24838.2,0.0535986,0.0532294,27.4938,13,0.00209484,10,0.00146348,-1.56077,0.483849,0.121939,130.869,0.0532294,
2,1,0,1,0,24838.2,0.0644077,0.0640509,28.9295,13,0.00260283,10,0.00185296,-1.53866,0.495588,0.119051,134.424,0.0640509,
2,1,0,1,0,24838.2,0.075203,0.0748034,30.425,13,0.00313711,10,0.00227589,-1.51677,0.498202,0.118426,140.629,0.0748034,
2,1,0,1,0,24838.2,0.0860011,0.0856174,31.9864,13,0.0036988,10,0.00273859,-1.49504,0.497576,0.118575,148.033,0.0856174,
2,1,0,1,0,24838.2,0.0968075,0.0964007,33.6317,13,0.00428942,10,0.00324212,-1.47325,0.510839,0.115496,151.487,0.0964007,
2,1,0,1,0,24838.3,0.107606,0.107212,35.2163,13,0.00490933,10,0.0037756,-1.45326,0.522928,0.112826,155.229,0.107212,
2,1,0,1,0,24838.3,0.118401,0.118038,36.9801,13,0.00555918,10,0.00436506,-1.43203,0.520012,0.113459,163.728,0.1180383,
2,1,0,1,0,24838.3,0.129207,0.128864,38.8148,13,0.00624123,10,0.00500183,-1.411,0.497484,0.118597,179.743,0.128864,
2,1,0,1,0,24838.3,0.140005,0.139664,40.8607,13,0.00695833,10,0.00570678,-1.38869,0.478315,0.12335,196.755,0.139664,
2,1,0,1,0,24838.3,0.150803,0.15042,42.9982,13,0.00771346,10,0.00646778,-1.36655,0.511797,0.11528,193.436,0.15042,
2,1,0,1,0,24838.4,0.161604,0.161269,44.9992,13,0.00850614,10,0.00725698,-1.3468,0.602998,0.0978444,171.721,0.161269,
2,1,0,1,0,24838.4,0.172405,0.172063,46.6658,13,0.00933209,10,0.00802946,-1.331,0.837029,0.0704874,128.189,0.172063,
2,1,0,1,0,24838.4,0.183203,0.182848,47.6574,13,0.0101825,10,0.00871408,-1.32187,2.65494,0.0222227,41.2235,0.182848,
2,1,0,1,0,24838.4,0.194001,0.193655,47.4365,13,0.0110404,10,0.00918631,-1.32389,-1.19309,-0.0494513,-91.2367,0.193655,
2,1,0,1,0,24838.4,0.204808,0.204457,45.6912,13,0.0118806,10,0.0093419,-1.34017,-0.461471,-0.127852,-227.234,0.204457,
2,1,0,1,0,24838.4,0.215603,0.215292,42.5772,13,0.0126764,10,0.00916656,-1.37082,-0.294191,-0.20055,-332.505,0.215292,
2,1,0,1,0,24838.5,0.226401,0.226084,38.7082,13,0.0134081,10,0.00875132,-1.4122,-0.245057,-0.240761,-363.538,0.226084,
2,1,0,1,0,24838.5,0.237207,0.236891,34.8738,13,0.0140695,10,0.00826128,-1.4575,-0.240884,-0.244931,-333.687,0.236891,
2,1,0,1,0,24838.5,0.248005,0.247718,31.5803,13,0.0146663,10,0.00782299,-1.50058,-0.268325,-0.219883,-271.488,0.247718,
2,1,0,1,0,24838.5,0.258801,0.258505,28.9528,13,0.01521,10,0.00748445,-1.53831,-0.309838,-0.190422,-215.593,0.258505,
2,1,0,1,0,24838.5,0.26961,0.26929,26.9222,13,0.0157119,10,0.0072499,-1.56989,-0.372074,-0.158571,-166.847,0.26929,
2,1,0,1,0,24838.6,0.280405,0.280107,25.341,13,0.0161816,10,0.00709817,-1.59618,-0.452248,-0.13046,-129.162,0.2801066,
2,1,0,1,0,24838.6,0.291203,0.290894,24.1107,13,0.0166261,10,0.00701365,-1.61779,-0.535399,-0.110198,-103.764,0.290894,
2,1,0,0,0,24838.6,0.300012,0.299766,23.2786,13,0.0169741,10,0.00697812,-1.63304,0.00208679,28.2731,22177.2,0.299766,
2,1,0,1,0,24838.6,0.290843,0.290588,9.7514,13,0.0172089,10,0.00283364,-2.01093,0.0224001,2.63392,996.874,0.290588,
2,1,0,1,0,24838.6,0.280047,0.279786,1.81298,13,0.0173056,10,0.000507246,-2.74161,0.0106684,5.53036,561.835,0.279786,
2,0,0,1,0,24838.6,0.269244,0.268952,-3.0197,13,0.0172912,10,-0.000812155,-2.52004,-0.0157402,-3.74837,359.309,0.268952,
2,0,0,1,0,24838.7,0.258443,0.258182,-6.21191,13,0.0172061,10,-0.0016038,-2.20677,-0.0561338,-1.05106,247.595,0.258182,
2,0,0,1,0,24838.7,0.247645,0.247349,-8.48233,13,0.0170726,10,-0.00209809,-2.07148,-0.105984,-0.556689,182.551,0.247349,
2,0,0,1,0,24838.7,0.236849,0.236529,-10.1986,13,0.0169036,10,-0.00241226,-1.99146,-0.164368,-0.358951,142.241,0.236529,
2,0,0,1,0,24838.7,0.22604,0.225718,-11.5596,13,0.0167072,10,-0.0026092,-1.93706,-0.231886,-0.254436,114.507,0.225718,
2,0,0,1,0,24838.7,0.215245,0.214947,-12.6882,13,0.0164885,10,-0.00272729,-1.8966,-0.297962,-0.198012,98.0122,0.214947,
2,0,0,1,0,24838.7,0.204447,0.20412,-13.6921,13,0.0162508,10,-0.00279482,-1.86353,-0.358867,-0.164406,87.7796,0.20412,
2,0,0,1,0,24838.8,0.19364,0.193321,-14.6101,13,0.015996,10,-0.00282444,-1.83535,-0.410788,-0.143627,81.8144,0.1933208,
2,0,0,1,0,24838.8,0.182842,0.182532,-15.4933,13,0.015725,10,-0.00282803,-1.80985,-0.432097,-0.136543,82.5647,0.182532,
2,0,0,1,0,24838.8,0.172047,0.171743,-16.4315,13,0.0154377,10,-0.00282199,-1.78432,-0.413527,-0.142675,91.5467,0.171743,
2,0,0,1,0,24838.8,0.161241,0.160934,-17.5182,13,0.0151326,10,-0.00281926,-1.75651,-0.362476,-0.162769,111.35,0.160934,
2,0,0,1,0,24838.8,0.150443,0.150163,-18.894,13,0.0148055,10,-0.00283718,-1.72368,-0.291316,-0.20253,149.571,0.150163,
2,0,0,1,0,24838.9,0.139645,0.139306,-20.8058,13,0.014449,10,-0.00289837,-1.68181,-0.226094,-0.260954,212.574,0.139306,
2,0,0,1,0,24838.9,0.128849,0.128525,-23.5165,13,0.0140512,10,-0.00302245,-1.62863,-0.18501,-0.318901,293.549,0.128525,
2,0,0,1,0,24838.9,0.118043,0.117767,-27.0526,13,0.0135965,10,-0.0031859,-1.56779,-0.179641,-0.328434,346.787,0.117767,
2,0,0,1,0,24838.9,0.107245,0.106941,-30.9246,13,0.0130743,10,-0.00330711,-1.5097,-0.19981,-0.29528,355.748,0.106941,
2,0,0,1,0,24838.9,0.0964468,0.0961876,-34.6335,13,0.0124837,10,-0.00333131,-1.4605,-0.239306,-0.246547,332.462,0.0961876,
2,0,0,1,0,24838.9,0.0856404,0.0853714,-37.9509,13,0.0118292,10,-0.00323992,-1.42078,-0.317251,-0.185973,274.82,0.0853714,
2,0,0,1,0,24839,0.0748451,0.0746242,-40.5959,13,0.0111209,10,-0.00302943,-1.39152,-0.438306,-0.134609,212.914,0.0746242,
2,0,0,1,0,24839,0.0640471,0.0637487,-42.578,13,0.010371,10,-0.00271429,-1.37081,-0.689467,-0.0855734,141.831,0.06374868,
2,0,0,1,0,24839,0.0532407,0.0528901,-43.6916,13,0.00959359,10,-0.00231085,-1.3596,-1.4669,-0.040221,68.4489,0.0528901,
2,0,0,1,0,24839,0.0424426,0.0421418,-44.1438,13,0.0088024,10,-0.0018603,-1.35513,-4.63873,-0.012719,21.8853,0.0421418,
2,0,0,1,0,24839,0.0316473,0.0313172,-44.1657,13,0.00800715,10,-0.00138315,-1.35492,9.69974,0.00608264,-10.4782,0.0313172,
2,0,0,1,0,24839.1,0.0208437,0.0205721,-43.9259,13,0.00721409,10,-0.000903648,-1.35728,3.29216,0.0179214,-30.7119,0.0205721,
2,0,0,1,0,24839.1,0.0100429,0.00973369,-43.4903,13,0.00642705,10,-0.000423321,-1.36161,2.02227,0.0291751,-49.4939,0.00973369,
2,0,0,1,0,24839.1,-0.000755207,-0.00115138,-42.8812,13,0.00564946,10,4.93726e-05,-1.36773,1.4251,0.0414007,-69.2115,-0.00115138,
2,0,0,1,0,24839.1,-0.0115505,-0.011941,-41.9286,13,0.00488584,10,0.00050067,-1.37749,0.950568,0.0620682,-101.503,-0.011941,
2,0,0,1,0,24839.1,-0.0223597,-0.0227137,-40.7105,13,0.0041418,10,0.000924685,-1.39029,0.775809,0.0760497,-120.805,-0.0227137,
2,0,0,1,0,24839.1,-0.033155,-0.033533,-39.3907,13,0.00342091,10,0.00132089,-1.40461,0.764916,0.0771327,-118.632,-0.033533,
2,0,0,1,0,24839.2,-0.043953,-0.0443152,-38.1905,13,0.0027231,10,0.00169242,-1.41804,0.861521,0.0684835,-102.138,-0.0443152,
2,0,0,1,0,24839.2,-0.0547594,-0.0551494,-37.251,13,0.00204484,10,0.00205437,-1.42886,1.17695,0.0501295,-72.9072,-0.0551494,
2,0,0,1,0,24839.2,-0.0655575,-0.0659147,-36.6194,13,0.00138058,10,0.00241376,-1.43629,2.0502,0.0287776,-41.1604,-0.0659147,
2,0,0,1,0,24839.2,-0.0763528,-0.0767022,-36.3196,13,0.0007246,10,0.00278579,-1.43986,6.13441,0.00961787,-13.6431,-0.0767022,
2,0,0,1,0,24839.2,-0.0871592,-0.0875449,-36.2999,13,7.15163e-05,10,0.00317787,-1.4401,-8.72659,-0.00676095,9.58211,-0.0875449,
2,0,0,1,0,24839.2,-0.0979573,-0.098325,-36.5094,13,-0.000583441,10,0.00358979,-1.43759,-4.27897,-0.0137884,19.6158,-0.098325,
2,0,0,1,1,24839.3,-0.0955546,-0.0960154,-27.2693,13,-0.000946462,10,0.00261827,-1.56433,-0.0363581,-1.62275,1751.57,-0.0960154,
2,0,0,1,1,24839.3,-0.0847538,-0.0851801,-13.7828,13,-0.00130485,10,0.00117402,-1.86066,-0.0311036,-1.89689,1007.14,-0.0851801,
2,0,0,1,1,24839.3,-0.0739557,-0.0743926,-4.59116,13,-0.00146502,10,0.000341548,-2.33808,-0.0117757,-5.01031,735.959,-0.0743926,
2,1,0,1,1,24839.3,-0.0631604,-0.063621,2.32852,13,-0.00148196,10,-0.000148143,-2.63292,0.00976286,6.04331,568.019,-0.063621,
2,1,0,1,1,24839.3,-0.0523512,-0.0527943,7.75631,13,-0.00138869,10,-0.000409488,-2.11035,0.0381022,1.54847,450.248,-0.0527943,
2,1,0,1,1,24839.4,-0.0415559,-0.0419643,12.1053,13,-0.00120804,10,-0.000507993,-1.91702,0.0767325,0.768905,358.394,-0.0419643,
2,1,0,1,1,24839.4,-0.0307579,-0.0311789,15.5945,13,-0.000957197,10,-0.000486219,-1.80703,0.124863,0.472517,285.37,-0.0311789,
2,1,0,1,1,24839.4,-0.0199515,-0.0203437,18.3501,13,-0.000650564,10,-0.000373308,-1.73636,0.185166,0.318634,227.035,-0.0203437,
2,1,0,1,1,24839.4,-0.0091534,-0.00956465,20.5367,13,-0.000299806,10,-0.000196426,-1.68747,0.262545,0.224724,179.437,-0.00956465,
2,1,0,0,1,24839.4,-7.54729e-05,-0.000248974,21.9175,13,2.16712e-05,10,-5.45689e-06,-1.65921, , , ,-0.000248974,