Folder: Figs_alphaMnO2_OER_Tafel_sleope/Figure_codes/Fig_3-5/rawdata_trumpetplot_data/after 10th (part 77)

File: 20221101_1-115_003_TrumpetPlot_ParaChange_from10_every3_06_CV_C01_14.csv
mode,ox/red,error,control changes,counter inc.,time/s,control/V,Ewe/V,<I>/mA,cycle number,(Q-Qo)/C,I Range,P/W,log(|I|),Tafel slope mV/dec,alpha_eff,dI/d(E-IR),E-IR/V,
2,0,0,0,0,28731.8,2.44065e-05,-0.000268062,-1.42679,15,0.0000000E+000,10,3.82468e-07,-2.84564, , , ,-0.000268062,
2,1,0,1,0,28732,0.00729063,0.00694541,1.09877,15,6.95733e-05,10,7.63138e-06,-2.95909,0.0252059,2.34072,95.5806,0.00694541,
2,1,0,1,0,28732.2,0.014778,0.0144602,1.49747,15,0.000321961,10,2.16536e-05,-2.82464,0.0947642,0.622598,36.3705,0.0144602,
2,1,0,1,0,28732.4,0.0222743,0.0219663,1.72301,15,0.00062758,10,3.7848e-05,-2.76371,0.146906,0.401617,26.8816,0.0219663,
2,1,0,1,0,28732.6,0.0297626,0.0294269,1.90637,15,0.000969793,10,5.60986e-05,-2.71979,0.189433,0.311455,23.1199,0.0294269,
2,1,0,1,0,28732.8,0.0372544,0.0369196,2.08376,15,0.00134628,10,7.69315e-05,-2.68115,0.207497,0.284341,23.1276,0.0369196,
2,1,0,1,0,28733,0.0447472,0.044408,2.26185,15,0.00175625,10,0.000100444,-2.64554,0.217594,0.271147,23.9031,0.044408,
2,1,0,1,0,28733.1,0.0522345,0.0518991,2.43022,15,0.00219843,10,0.000126127,-2.61435,0.240316,0.24551,23.2976,0.0518991,
2,1,0,1,0,28733.3,0.0597309,0.0593762,2.58913,15,0.00267196,10,0.000153733,-2.58685,0.271812,0.217062,21.9148,0.0593762,
2,1,0,1,0,28733.5,0.0672182,0.0669189,2.73884,15,0.00317309,10,0.00018328,-2.56243,0.302764,0.194871,20.7592,0.0669189,
2,1,0,1,0,28733.7,0.0747074,0.0743966,2.85865,15,0.00369987,10,0.000212674,-2.54384,0.469442,0.125681,14.0251,0.0743966,
2,1,0,1,0,28733.9,0.0822019,0.0819052,2.96389,15,0.00424876,10,0.000242758,-2.52814,0.530703,0.111173,12.8622,0.0819052,
2,1,0,1,0,28734.1,0.0896911,0.0893476,3.06446,15,0.00481611,10,0.000273802,-2.51365,0.438867,0.134437,16.1179,0.0893476,
2,1,0,1,0,28734.3,0.097182,0.0968479,3.21334,15,0.00540665,10,0.000311206,-2.49304,0.294452,0.200372,25.2167,0.0968479,
2,1,0,1,0,28734.5,0.104675,0.104357,3.45262,15,0.00603219,10,0.000360303,-2.46185,0.213571,0.276255,37.1285,0.1043565,
2,1,0,1,0,28734.6,0.112162,0.111825,3.73086,15,0.00670667,10,0.000417204,-2.42819,0.233562,0.25261,36.7549,0.111825,
2,1,0,1,0,28734.8,0.119655,0.119343,3.98699,15,0.00743331,10,0.000475818,-2.39935,0.356455,0.165519,25.7221,0.119343,
2,1,0,1,0,28735,0.127146,0.126823,4.14332,15,0.00819877,10,0.000525467,-2.38265,0.583541,0.101107,16.3534,0.126823,
2,1,0,1,0,28735.2,0.134635,0.134289,4.25727,15,0.00898928,10,0.000571705,-2.37087,0.996955,0.0591802,9.83916,0.134289,
2,1,0,1,0,28735.4,0.14213,0.141855,4.26649,15,0.00979437,10,0.000605224,-2.36993,-0.624153,-0.0945281,-15.6875,0.141855,
2,1,0,1,0,28735.6,0.149619,0.149286,3.92381,15,0.0105709,10,0.000585768,-2.40629,-0.119305,-0.494531,-75.4493,0.149286,
2,1,0,1,0,28735.8,0.157106,0.156783,3.24158,15,0.0112468,10,0.000508225,-2.48924,-0.0789493,-0.747315,-94.6383,0.156783,
2,1,0,1,0,28736,0.164602,0.164308,2.64913,15,0.0117976,10,0.000435273,-2.5769,-0.0959797,-0.614713,-63.6063,0.164308,
2,1,0,1,0,28736.1,0.172091,0.171788,2.28696,15,0.0122591,10,0.000392873,-2.64074,-0.145362,-0.405883,-36.2934,0.171788,
2,1,0,1,0,28736.3,0.179582,0.17925,2.08051,15,0.0126693,10,0.000372932,-2.68183,-0.239256,-0.246598,-20.1034,0.17925,
2,1,0,1,0,28736.5,0.187074,0.186766,1.9648,15,0.0130502,10,0.000366957,-2.70668,-0.397325,-0.148493,-11.3742,0.186766,
2,1,0,1,0,28736.7,0.194563,0.194218,1.89174,15,0.0134134,10,0.000367408,-2.72314,-0.563969,-0.104616,-7.73978,0.194218,
2,1,0,1,0,28736.9,0.202059,0.201779,1.84361,15,0.0137659,10,0.000372,-2.73433,-0.662287,-0.0890852,-6.40219,0.201779,
2,1,0,1,0,28737.1,0.209546,0.20922,1.81103,15,0.0141104,10,0.000378904,-2.74207,-0.786482,-0.0750176,-5.29419,0.20922,
2,1,0,1,0,28737.3,0.217035,0.216733,1.77764,15,0.0144489,10,0.000385273,-2.75016,-1.30781,-0.0451135,-3.14467,0.216733,
2,1,0,1,0,28737.5,0.22453,0.224236,1.75905,15,0.0147834,10,0.000394443,-2.75472,-1.84754,-0.0319344,-2.19289,0.224236,
2,1,0,1,0,28737.6,0.232019,0.231726,1.74117,15,0.0151139,10,0.000403473,-2.75916,-2.5333,-0.0232897,-1.5815,0.231726,
2,1,0,1,0,28737.8,0.23951,0.239204,1.72266,15,0.0154414,10,0.000412068,-2.7638,-2.46041,-0.0239797,-1.61534,0.239204,
2,1,0,1,0,28738,0.247003,0.246688,1.7111,15,0.0157659,10,0.000422107,-2.76673,-1.93968,-0.0304174,-2.02558,0.246688,
2,1,0,1,0,28738.2,0.25449,0.254221,1.69557,15,0.0160876,10,0.00043105,-2.77068,-1.60452,-0.0367711,-2.43645,0.254221,
2,1,0,1,0,28738.4,0.261983,0.261696,1.68038,15,0.0164068,10,0.000439749,-2.77459,-2.56257,-0.0230237,-1.51365,0.261696,
2,1,0,1,0,28738.6,0.269474,0.269148,1.66983,15,0.0167234,10,0.000449432,-2.77733,-3.52522,-0.0167365,-1.08939,0.269148,
2,1,0,1,0,28738.8,0.276963,0.27665,1.65482,15,0.0170374,10,0.000457805,-2.78125,-3.23262,-0.0182514,-1.17845,0.27665,
2,1,0,1,0,28739,0.284458,0.284177,1.64244,15,0.0173489,10,0.000466743,-2.78451,-3.44117,-0.0171454,-1.09809,0.284177,
2,1,0,1,0,28739.1,0.291947,0.291634,1.62762,15,0.0176572,10,0.000474669,-2.78845,-0.997455,-0.0591505,-3.74329,0.291634,
2,1,0,1,0,28739.3,0.299434,0.299115,1.6059,15,0.0179626,10,0.000480348,-2.79428,-0.0161088,-3.6626,-197.499,0.2991153,
2,0,0,1,0,28739.5,0.294196,0.29389,-0.288787,15,0.0180087,10,-8.48715e-05,-3.53942,-0.00783364,-7.53162,66.4017,0.29389,
2,0,0,1,0,28739.7,0.286701,0.286402,-0.54323,15,0.0179235,10,-0.000155582,-3.26502,-0.0563028,-1.04791,22.1513,0.286402,
2,0,0,1,0,28739.9,0.279212,0.278915,-0.6802,15,0.0178048,10,-0.000189718,-3.16736,-0.110391,-0.534462,14.1528,0.278915,
2,0,0,1,0,28740,0.271725,0.271448,-0.776891,15,0.0176652,10,-0.000210886,-3.10964,-0.134492,-0.438687,13.209,0.271448,
2,0,0,1,0,28740.2,0.264228,0.263926,-0.849707,15,0.0175092,10,-0.00022426,-3.07073,-0.190463,-0.309771,10.315,0.263926,
2,0,0,1,0,28740.4,0.256741,0.25641,-0.919975,15,0.0173402,10,-0.00023589,-3.03622,-0.261839,-0.225329,8.05062,0.25641,
2,0,0,1,0,28740.6,0.249248,0.248919,-0.978484,15,0.0171595,10,-0.000243563,-3.00945,-0.295844,-0.199429,7.57244,0.248919,
2,0,0,1,0,28740.8,0.241756,0.241435,-1.02412,15,0.0169684,10,-0.000247259,-2.98965,-0.362174,-0.162905,6.56002,0.241435,
2,0,0,1,0,28741,0.234268,0.233967,-1.08097,15,0.0167679,10,-0.000252911,-2.96619,-0.357605,-0.164987,6.95159,0.233967,
2,0,0,1,0,28741.2,0.226772,0.226461,-1.12659,15,0.0165579,10,-0.000255129,-2.94823,-0.352627,-0.167316,7.34793,0.2264608,
2,0,0,1,0,28741.4,0.219284,0.218995,-1.1734,15,0.0163396,10,-0.000256969,-2.93055,-0.466704,-0.126418,5.78063,0.218995,
2,0,0,1,0,28741.5,0.211796,0.211516,-1.22428,15,0.0161127,10,-0.000258954,-2.91212,-0.451257,-0.130746,6.2026,0.211516,
2,0,0,1,0,28741.7,0.204301,0.203974,-1.26531,15,0.0158766,10,-0.00025809,-2.8978,-0.818052,-0.0721225,3.57152,0.203974,
2,0,0,1,0,28741.9,0.196812,0.196495,-1.30933,15,0.0156323,10,-0.000257278,-2.88295,-0.465838,-0.126653,6.48851,0.196495,
2,0,0,1,0,28742.1,0.189321,0.189005,-1.36436,15,0.0153784,10,-0.000257871,-2.86507,-0.409673,-0.144017,7.65692,0.189005,
2,0,0,1,0,28742.3,0.181828,0.181521,-1.41899,15,0.0151144,10,-0.000257576,-2.84802,-0.359333,-0.164193,9.13548,0.181521,
2,0,0,1,0,28742.5,0.174341,0.173981,-1.49397,15,0.0148384,10,-0.000259923,-2.82566,-0.345893,-0.170573,9.95061,0.173981,
2,0,0,1,0,28742.7,0.166848,0.166523,-1.586,15,0.0145474,10,-0.000264106,-2.7997,-0.28825,-0.204683,12.6412,0.166523,
2,0,0,1,0,28742.9,0.159357,0.159018,-1.70587,15,0.0142366,10,-0.000271263,-2.76805,-0.203341,-0.290153,19.3914,0.159018,
2,0,0,1,0,28743,0.151868,0.15154,-1.89908,15,0.0138968,10,-0.000287786,-2.72146,-0.134963,-0.437158,32.5109,0.15154,
2,0,0,1,0,28743.2,0.144373,0.144058,-2.21958,15,0.01351,10,-0.000319749,-2.65373,-0.0948775,-0.621855,54.0108,0.144058,
2,0,0,1,0,28743.4,0.136884,0.13653,-2.70795,15,0.0130477,10,-0.000369718,-2.56736,-0.083113,-0.709877,75.1073,0.1365304,
2,0,0,1,0,28743.6,0.129393,0.129049,-3.28613,15,0.0124832,10,-0.000424071,-2.48331,-0.101787,-0.579642,74.0836,0.129049,
2,0,0,1,0,28743.8,0.1219,0.121601,-3.78453,15,0.0118159,10,-0.000460204,-2.42199,-0.155932,-0.378371,55.8383,0.121601,
2,0,0,1,0,28744,0.114413,0.114094,-4.13581,15,0.0110683,10,-0.000471871,-2.38344,-0.282307,-0.208993,33.6956,0.114094,
2,0,0,1,0,28744.2,0.10692,0.106599,-4.30418,15,0.0102722,10,-0.000458823,-2.36611,-1.00298,-0.0588246,9.85868,0.106599,
2,0,0,1,0,28744.4,0.0994284,0.0991179,-4.2841,15,0.00946216,10,-0.000424631,-2.36814,0.834011,0.0707424,-11.8284,0.0991179,
2,0,0,1,0,28744.5,0.0919401,0.0915885,-4.14542,15,0.00866878,10,-0.000379672,-2.38243,0.442961,0.133194,-21.5306,0.09158846,
2,0,0,1,0,28744.7,0.0844447,0.0841231,-3.97328,15,0.0079052,10,-0.000334245,-2.40085,0.485242,0.121589,-18.8637,0.0841231,
2,0,0,1,0,28744.9,0.0769565,0.0766187,-3.84372,15,0.00717077,10,-0.000294501,-2.41525,0.572797,0.103003,-15.4672,0.0766187,
2,0,0,1,0,28745.1,0.0694682,0.0691469,-3.74611,15,0.00645701,10,-0.000259032,-2.42642,0.668948,0.0881982,-12.8907,0.0691469,
2,0,0,1,0,28745.3,0.0619728,0.0616647,-3.65479,15,0.00576011,10,-0.000225371,-2.43714,0.602628,0.0979045,-13.9632,0.06166466,
2,0,0,1,0,28745.5,0.0544836,0.0541662,-3.55419,15,0.00508179,10,-0.000192517,-2.44926,0.782153,0.0754328,-10.4789,0.0541662,
2,0,0,1,0,28745.7,0.0469927,0.0466673,-3.4616,15,0.00442171,10,-0.000161543,-2.46072,0.563038,0.104789,-14.1081,0.0466673,
2,0,0,1,0,28745.9,0.0394999,0.039166,-3.34375,15,0.00378214,10,-0.000130961,-2.47577,0.501064,0.117749,-15.349,0.039166,
2,0,0,1,0,28746,0.0320125,0.0317231,-3.21655,15,0.00316501,10,-0.000102039,-2.49261,0.433636,0.136059,-17.0823,0.0317231,
2,0,0,1,0,28746.2,0.0245198,0.0242136,-3.08357,15,0.00257192,10,-7.46643e-05,-2.51095,0.387857,0.152118,-18.3091,0.0242136,
2,0,0,1,0,28746.4,0.0170289,0.0166764,-2.95671,15,0.00200266,10,-4.93072e-05,-2.52919,0.43691,0.135039,-15.6662,0.0166764,
2,0,0,1,0,28746.6,0.0095397,0.00921271,-2.86887,15,0.00145359,10,-2.64301e-05,-2.54229,0.693803,0.0850386,-9.52659,0.00921271,
2,0,0,1,0,28746.8,0.00204518,0.00163948,-2.8454,15,0.000918514,10,-4.66497e-06,-2.54586,2.28377,0.0258345,-2.83873,0.00163948,
2,0,0,1,0,28746.8,0.000177222,-0.00022836,-2.80985,15,0.000785759,10,6.41658e-07,-2.55132, , , ,-0.00022836,

File: 20221101_1-115_003_TrumpetPlot_ParaChange_from10_every3_06_CV_C01_15.csv
mode,ox/red,error,control changes,counter inc.,time/s,control/V,Ewe/V,<I>/mA,cycle number,(Q-Qo)/C,I Range,P/W,log(|I|),Tafel slope mV/dec,alpha_eff,dI/d(E-IR),E-IR/V,
2,0,0,0,0,30702,2.44065e-05,-0.000363498,-1.41089,16,0.0000000E+000,10,5.12857e-07,-2.85051, , , ,-0.000363498,
2,1,0,1,0,30702.2,0.00729063,0.0069691,1.14029,16,7.45658e-05,10,7.94677e-06,-2.94299,0.0259725,2.27164,96.06,0.0069691,
2,1,0,1,0,30702.3,0.014778,0.0144377,1.54256,16,0.000334793,10,2.2271e-05,-2.81176,0.0987776,0.597301,35.8994,0.0144377,
2,1,0,1,0,30702.5,0.0222743,0.0219203,1.764,16,0.000648744,10,3.86672e-05,-2.7535,0.14899,0.396,27.1863,0.0219203,
2,1,0,1,0,30702.7,0.0297626,0.0294981,1.94776,16,0.000998825,10,5.74552e-05,-2.71047,0.193415,0.305043,23.1228,0.0294981,
2,1,0,1,0,30702.9,0.0372544,0.0369058,2.12002,16,0.00138265,10,7.8241e-05,-2.67366,0.205552,0.287032,23.7837,0.0369058,
2,1,0,1,0,30703.1,0.0447472,0.0444552,2.29926,16,0.00179973,10,0.000102214,-2.63841,0.233583,0.252587,22.6515,0.04445523,
2,1,0,1,0,30703.3,0.0522345,0.0519296,2.46241,16,0.00224879,10,0.000127872,-2.60864,0.244521,0.241288,23.2235,0.0519296,
2,1,0,1,0,30703.5,0.0597309,0.0594253,2.62439,16,0.00272903,10,0.000155955,-2.58097,0.296433,0.199033,20.3955,0.0594253,
2,1,0,1,0,30703.7,0.0672182,0.0669123,2.7733,16,0.00323699,10,0.000185568,-2.557,0.333519,0.176901,19.0746,0.0669123,
2,1,0,1,0,30703.8,0.0747074,0.0743772,2.8954,16,0.00377029,10,0.000215351,-2.53829,0.477253,0.123624,13.9641,0.0743772,
2,1,0,1,0,30704,0.0822019,0.0818546,2.99462,16,0.00432577,10,0.000245124,-2.52366,0.562905,0.104813,12.2681,0.0818546,
2,1,0,1,0,30704.2,0.0896911,0.0893958,3.10508,16,0.0048995,10,0.000277581,-2.50793,0.453082,0.130219,15.7706,0.0893958,
2,1,0,1,0,30704.4,0.097182,0.0968708,3.24172,16,0.00549646,10,0.000314028,-2.48922,0.302895,0.194787,24.7378,0.09687081,
2,1,0,1,0,30704.6,0.104675,0.104361,3.47897,16,0.00612778,10,0.000363069,-2.45855,0.212933,0.277083,37.6166,0.104361,
2,1,0,1,0,30704.8,0.112162,0.111838,3.76475,16,0.00680804,10,0.000421043,-2.42426,0.228711,0.257968,37.8443,0.111838,
2,1,0,1,0,30705,0.119655,0.119313,4.01736,16,0.00754087,10,0.000479322,-2.39606,0.33883,0.174129,27.2997,0.119313,
2,1,0,1,0,30705.2,0.127146,0.126804,4.18627,16,0.00831349,10,0.000530835,-2.37817,0.530254,0.111267,18.169,0.126804,
2,1,0,1,0,30705.3,0.134635,0.134336,4.30117,16,0.009112,10,0.000577801,-2.36641,0.917217,0.064325,10.8029,0.134336,
2,1,0,1,0,30705.5,0.14213,0.141857,4.30615,16,0.0099255,10,0.000610858,-2.36591,-0.640019,-0.0921847,-15.4724,0.141857,
2,1,0,1,0,30705.7,0.149619,0.149312,3.97374,16,0.0107107,10,0.000593326,-2.4008,-0.12309,-0.479323,-73.9589,0.149312,
2,1,0,1,0,30705.9,0.157106,0.156818,3.28592,16,0.0113954,10,0.000515292,-2.48334,-0.077706,-0.759272,-97.3487,0.156818,
2,1,0,1,0,30706.1,0.164602,0.164239,2.66752,16,0.0119525,10,0.00043811,-2.57389,-0.0929532,-0.634728,-66.3011,0.164239,
2,1,0,1,0,30706.3,0.172091,0.171778,2.29757,16,0.0124169,10,0.000394672,-2.63873,-0.141544,-0.416833,-37.4446,0.1717784,
2,1,0,1,0,30706.5,0.179582,0.179253,2.08334,16,0.0128283,10,0.000373445,-2.68124,-0.217379,-0.271415,-22.1542,0.179253,
2,1,0,1,0,30706.7,0.187074,0.18674,1.966,16,0.0132095,10,0.000367131,-2.70642,-0.404965,-0.145691,-11.1592,0.1867401,
2,1,0,1,0,30706.8,0.194563,0.194237,1.89178,16,0.0135725,10,0.000367454,-2.72313,-0.54125,-0.109007,-8.04494,0.194237,
2,1,0,1,0,30707,0.202059,0.201774,1.83629,16,0.0139244,10,0.000370516,-2.73606,-0.543509,-0.108554,-7.78279,0.201774,
2,1,0,1,0,30707.2,0.209546,0.20923,1.80559,16,0.0142681,10,0.000377783,-2.74338,-0.817437,-0.0721768,-5.0775,0.20923,
2,1,0,1,0,30707.4,0.217035,0.21675,1.76957,16,0.0146055,10,0.000383554,-2.75213,-1.18619,-0.0497389,-3.45086,0.21675,
2,1,0,1,0,30707.6,0.22453,0.224246,1.7538,16,0.0149388,10,0.000393284,-2.75602,-1.37721,-0.0428401,-2.93369,0.224246,
2,1,0,1,0,30707.8,0.232019,0.23173,1.733,16,0.0152678,10,0.000401587,-2.7612,-1.86065,-0.0317094,-2.14231,0.23173,
2,1,0,1,0,30708,0.23951,0.239194,1.71798,16,0.0155938,10,0.00041093,-2.76498,-2.30151,-0.0256354,-1.71954,0.239194,
2,1,0,1,0,30708.1,0.247003,0.246707,1.70669,16,0.0159171,10,0.000421051,-2.76785,-1.52624,-0.0386572,-2.56687,0.246707,
2,1,0,1,0,30708.3,0.25449,0.254156,1.69221,16,0.0162376,10,0.000430086,-2.77155,-2.61057,-0.0226005,-1.48968,0.254156,
2,1,0,1,0,30708.5,0.261983,0.261658,1.67242,16,0.0165557,10,0.000437601,-2.77666,-1.80369,-0.0327107,-2.14594,0.261658,
2,1,0,1,0,30708.7,0.269474,0.269155,1.66531,16,0.0168714,10,0.000448226,-2.7785,-4.88209,-0.012085,-0.784354,0.2691547,
2,1,0,1,0,30708.9,0.276963,0.276661,1.65226,16,0.0171847,10,0.000457115,-2.78192,-1.97315,-0.0299014,-1.92526,0.276661,
2,1,0,1,0,30709.1,0.284458,0.284155,1.63783,16,0.0174956,10,0.000465398,-2.78573,-2.31907,-0.0254413,-1.62578,0.284155,
2,1,0,1,0,30709.3,0.291947,0.291675,1.62177,16,0.0178034,10,0.000473029,-2.79001,-1.44929,-0.0407095,-2.56973,0.291675,
2,1,0,1,0,30709.5,0.299434,0.299171,1.60525,16,0.0181084,10,0.000480245,-2.79446,-0.0162288,-3.6355,-195.729,0.299171,
2,0,0,1,0,30709.6,0.294196,0.293886,-0.316956,16,0.0181517,10,-9.31488e-05,-3.499,-0.00858405,-6.87321,68.643,0.293886,
2,0,0,1,0,30709.8,0.286701,0.286377,-0.574777,16,0.0180603,10,-0.000164603,-3.2405,-0.0578874,-1.01922,22.8251,0.2863766,
2,0,0,1,0,30710,0.279212,0.278911,-0.708178,16,0.0179355,10,-0.000197518,-3.14986,-0.108761,-0.542472,15.0702,0.278911,
2,0,0,1,0,30710.2,0.271725,0.271437,-0.807347,16,0.0177902,10,-0.000219143,-3.09294,-0.134246,-0.439492,13.7162,0.271437,
2,0,0,1,0,30710.4,0.264228,0.263948,-0.880676,16,0.0176288,10,-0.000232452,-3.05518,-0.224945,-0.262286,8.99481,0.263948,
2,0,0,1,0,30710.6,0.256741,0.256407,-0.942815,16,0.0174548,10,-0.000241744,-3.02557,-0.290815,-0.202878,7.48738,0.256407,
2,0,0,1,0,30710.7,0.249248,0.248983,-1.00441,16,0.0172694,10,-0.00025008,-2.99809,-0.36326,-0.162418,6.32159,0.248983,
2,0,0,1,0,30710.9,0.241756,0.241438,-1.04912,16,0.0170738,10,-0.000253298,-2.97918,-0.425414,-0.138688,5.69761,0.241438,
2,0,0,1,0,30711.1,0.234268,0.233974,-1.09872,16,0.0168689,10,-0.000257071,-2.95911,-0.376357,-0.156766,6.75533,0.233974,
2,0,0,1,0,30711.3,0.226772,0.226477,-1.15445,16,0.0166548,10,-0.000261455,-2.93763,-0.382363,-0.154304,6.88746,0.226477,
2,0,0,1,0,30711.5,0.219284,0.218962,-1.19442,16,0.0164325,10,-0.000261532,-2.92284,-0.385797,-0.15293,7.13205,0.2189617,
2,0,0,1,0,30711.7,0.211796,0.211461,-1.2409,16,0.0162015,10,-0.000262402,-2.90626,-0.595966,-0.0989989,4.77658,0.211461,
2,0,0,1,0,30711.9,0.204301,0.203924,-1.28881,16,0.0159617,10,-0.00026282,-2.88981,-0.680415,-0.0867118,4.34856,0.203924,
2,0,0,1,0,30712.1,0.196812,0.196517,-1.33129,16,0.0157136,10,-0.000261621,-2.87573,-0.458057,-0.128805,6.71683,0.196517,
2,0,0,1,0,30712.2,0.189321,0.188988,-1.38546,16,0.0154561,10,-0.000261835,-2.85841,-0.394122,-0.1497,8.07963,0.188988,
2,0,0,1,0,30712.4,0.181828,0.181478,-1.4461,16,0.0151883,10,-0.000262437,-2.8398,-0.406491,-0.145145,8.16462,0.181478,
2,0,0,1,0,30712.6,0.174341,0.174013,-1.50975,16,0.0149086,10,-0.000262716,-2.82109,-0.288307,-0.204643,12.1074,0.174013,
2,0,0,1,0,30712.8,0.166848,0.166543,-1.60995,16,0.0146138,10,-0.000268126,-2.79319,-0.259035,-0.227769,14.2206,0.166543,
2,0,0,1,0,30713,0.159357,0.159021,-1.73329,16,0.0142989,10,-0.00027563,-2.76113,-0.204753,-0.288153,19.4896,0.159021,
2,0,0,1,0,30713.2,0.151868,0.151524,-1.92255,16,0.0139546,10,-0.000291311,-2.71612,-0.137381,-0.429463,32.3839,0.1515235,
2,0,0,1,0,30713.4,0.144373,0.144068,-2.2468,16,0.0135628,10,-0.000323692,-2.64843,-0.0926029,-0.637129,56.0058,0.144068,
2,0,0,1,0,30713.6,0.136884,0.136547,-2.73878,16,0.0130948,10,-0.000373972,-2.56244,-0.0858075,-0.687585,73.5798,0.136547,
2,0,0,1,0,30713.7,0.129393,0.129071,-3.31572,16,0.0125243,10,-0.000427965,-2.47942,-0.101456,-0.581535,75.1287,0.129071,
2,0,0,1,0,30713.9,0.1219,0.121556,-3.82387,16,0.0118506,10,-0.000464814,-2.4175,-0.155677,-0.378989,56.372,0.121556,
2,0,0,1,0,30714.1,0.114413,0.114056,-4.1733,16,0.0110962,10,-0.000475989,-2.37952,-0.274476,-0.214955,34.9969,0.114056,
2,0,0,1,0,30714.3,0.10692,0.106559,-4.34097,16,0.0102922,10,-0.00046257,-2.36241,-0.996438,-0.0592109,10.0121,0.106559,
2,0,0,1,0,30714.5,0.0994284,0.0991634,-4.32732,16,0.00947421,10,-0.000429112,-2.36378,0.790243,0.0746606,-12.5959,0.0991634,
2,0,0,1,0,30714.7,0.0919401,0.0916288,-4.17926,16,0.00867295,10,-0.000382941,-2.3789,0.449139,0.131362,-21.4633,0.09162885,
2,0,0,1,0,30714.9,0.0844447,0.0841219,-4.02207,16,0.00790154,10,-0.000338344,-2.39555,0.446969,0.132,-20.6881,0.08412192,
2,0,0,1,0,30715,0.0769565,0.0766438,-3.88299,16,0.00715963,10,-0.000297607,-2.41083,0.535958,0.110083,-16.6853,0.07664378,
2,0,0,1,0,30715.2,0.0694682,0.0691356,-3.77794,16,0.00643921,10,-0.00026119,-2.42275,0.569292,0.103637,-15.296,0.0691356,
2,0,0,1,0,30715.4,0.0619728,0.0617115,-3.68299,16,0.00573674,10,-0.000227283,-2.4338,0.619542,0.0952316,-13.6704,0.0617115,
2,0,0,1,0,30715.6,0.0544836,0.0541529,-3.57702,16,0.00505395,10,-0.000193706,-2.44648,0.717654,0.0822123,-11.4903,0.0541529,
2,0,0,1,0,30715.8,0.0469927,0.0466581,-3.46885,16,0.00439045,10,-0.00016185,-2.45981,0.556005,0.106114,-14.3561,0.0466581,
2,0,0,1,0,30716,0.0394999,0.0391212,-3.35429,16,0.00374844,10,-0.000131224,-2.4744,0.474952,0.124223,-16.2285,0.0391212,
2,0,0,1,0,30716.2,0.0320125,0.0316988,-3.21819,16,0.00313003,10,-0.000102013,-2.49239,0.407382,0.144827,-18.2038,0.0316988,
2,0,0,1,0,30716.4,0.0245198,0.0242263,-3.08285,16,0.00253653,10,-7.46862e-05,-2.51105,0.38333,0.153914,-18.5078,0.0242263,
2,0,0,1,0,30716.5,0.0170289,0.0166518,-2.96156,16,0.00196751,10,-4.93154e-05,-2.52848,0.494282,0.119365,-13.8076,0.0166518,
2,0,0,1,0,30716.7,0.0095397,0.0092243,-2.86085,16,0.00141933,10,-2.63894e-05,-2.5435,0.727478,0.0811021,-9.07263,0.0092243,
2,0,0,1,0,30716.9,0.00204518,0.00167356,-2.83976,16,0.000885366,10,-4.75252e-06,-2.54672,1.65086,0.0357389,-3.91474,0.00167356,
2,0,0,1,0,30717,0.000177222,-0.000209654,-2.79905,16,0.000752883,10,5.86832e-07,-2.55299, , , ,-0.000209654,