Folder: Figs_alphaMnO2_OER_Tafel_sleope/Figure_codes/Fig_3-5/rawdata_trumpetplot_data/after 10th (part 186)

File: 20221101_1-115_003_TrumpetPlot_ParaChange_from10_every3_12_CV_C01_24.csv
mode,ox/red,error,control changes,counter inc.,time/s,control/V,Ewe/V,<I>/mA,cycle number,(Q-Qo)/C,I Range,P/W,log(|I|),Tafel slope mV/dec,alpha_eff,dI/d(E-IR),E-IR/V,
2,1,0,1,0,48479.7,2.44065e-05,-0.000325324,14.972,25,0.0000000E+000,10,-4.87075e-06,-1.82472, , , ,-0.000325324,
2,1,0,1,0,48479.7,0.0104008,0.0100518,18.0492,25,0.000286915,10,0.000181427,-1.74354,0.1891,0.312004,218.514,0.0100518,
2,1,0,1,0,48479.7,0.0212099,0.0209284,20.0837,25,0.000630921,10,0.00042032,-1.69716,0.278462,0.211878,165.542,0.0209284,
2,1,0,1,0,48479.7,0.0320052,0.0317074,21.7112,25,0.00100756,10,0.000688405,-1.66332,0.353458,0.166922,141.204,0.0317074,
2,1,0,1,0,48479.7,0.0428033,0.042478,23.1268,25,0.00141145,10,0.000982379,-1.63588,0.421793,0.139879,126.188,0.04247798,
2,1,0,1,0,48479.7,0.0535986,0.0532326,24.4244,25,0.00183974,10,0.00130018,-1.61218,0.474592,0.124317,118.523,0.0532326,
2,1,0,1,0,48479.8,0.0644077,0.0640456,25.6976,25,0.00229114,10,0.00164582,-1.59011,0.499647,0.118083,118.456,0.0640456,
2,1,0,1,0,48479.8,0.075203,0.0748702,26.9792,25,0.00276544,10,0.00201994,-1.56897,0.518219,0.113851,119.915,0.0748702,
2,1,0,1,0,48479.8,0.0860011,0.0856577,28.292,25,0.003263,10,0.00242343,-1.54834,0.532049,0.110892,122.454,0.0856577,
2,1,0,1,0,48479.8,0.0968075,0.0964145,29.643,25,0.00378451,10,0.00285802,-1.52808,0.550427,0.107189,123.95,0.0964145,
2,1,0,1,0,48479.8,0.107606,0.107219,31.0343,25,0.00433053,10,0.00332746,-1.50816,0.544439,0.108368,131.166,0.107219,
2,1,0,1,0,48479.8,0.118401,0.118005,32.4249,25,0.00490167,10,0.00382632,-1.48912,0.574977,0.102613,129.801,0.118005,
2,1,0,1,0,48479.9,0.129207,0.128833,33.9187,25,0.00549836,10,0.00436986,-1.46956,0.533544,0.110581,146.363,0.128833,
2,1,0,1,0,48479.9,0.140005,0.139621,35.5399,25,0.00612354,10,0.00496211,-1.44928,0.528101,0.111721,154.956,0.139621,
2,1,0,1,0,48479.9,0.150803,0.15044,37.2313,25,0.00677866,10,0.00560108,-1.42909,0.547768,0.10771,156.518,0.1504401,
2,1,0,1,0,48479.9,0.161604,0.16128,38.8736,25,0.00746403,10,0.00626951,-1.41035,0.619933,0.0951716,144.34,0.16128,
2,1,0,1,0,48479.9,0.172405,0.172034,40.337,25,0.00817754,10,0.00693934,-1.3943,0.759774,0.0776547,122.139,0.1720342,
2,1,0,1,0,48480,0.183203,0.182872,41.4439,25,0.00891441,10,0.00757892,-1.38254,1.23449,0.047793,77.1817,0.182872,
2,1,0,1,0,48480,0.194001,0.19364,41.9178,25,0.00966584,10,0.00811696,-1.3776,13.1036,0.00450259,7.35248,0.19364,
2,1,0,1,0,48480,0.204808,0.204456,41.6079,25,0.0104188,10,0.00850699,-1.38082,-1.43312,-0.0411688,-66.7107,0.204456,
2,1,0,1,0,48480,0.215603,0.215271,40.4731,25,0.0111585,10,0.00871269,-1.39283,-0.663531,-0.0889183,-140.171,0.215271,
2,1,0,1,0,48480,0.226401,0.226083,38.5979,25,0.0118709,10,0.00872634,-1.41344,-0.446781,-0.132056,-198.629,0.226083,
2,1,0,1,0,48480,0.237207,0.236869,36.2552,25,0.0125448,10,0.00858772,-1.44063,-0.363728,-0.162209,-229.296,0.236869,
2,1,0,1,0,48480.1,0.248005,0.247712,33.7455,25,0.0131745,10,0.00835917,-1.47178,-0.339362,-0.173856,-228.958,0.247712,
2,1,0,1,0,48480.1,0.258801,0.258522,31.3424,25,0.0137596,10,0.0081027,-1.50387,-0.341917,-0.172556,-211.213,0.258522,
2,1,0,1,0,48480.1,0.26961,0.269276,29.2141,25,0.014304,10,0.00786666,-1.53441,-0.367549,-0.160523,-183.116,0.269276,
2,1,0,1,0,48480.1,0.280405,0.280087,27.377,25,0.0148127,10,0.00766795,-1.56261,-0.407586,-0.144755,-154.8,0.280087,
2,1,0,1,0,48480.1,0.291203,0.29085,25.841,25,0.0152911,10,0.00751583,-1.58769,-0.453705,-0.13004,-131.265,0.2908496,
2,1,0,0,0,48480.2,0.300012,0.29967,24.7745,25,0.0156629,10,0.00742419,-1.60599,0.00343882,17.157,14971.8,0.29967,
2,1,0,1,0,48480.2,0.290842,0.290535,13.8254,25,0.015945,10,0.00401677,-1.85932,0.0373906,1.57794,856.078,0.290535,
2,1,0,1,0,48480.2,0.280047,0.2798,6.50961,25,0.0161226,10,0.00182139,-2.18644,0.0265162,2.22506,551.421,0.2798,
2,1,0,1,0,48480.2,0.269244,0.268932,1.47033,25,0.0161914,10,0.000395419,-2.83258,0.00882727,6.68383,394.663,0.268932,
2,0,0,1,0,48480.2,0.258443,0.258161,-2.19851,25,0.0161829,10,-0.000567571,-2.65787,-0.0136923,-4.30899,293.396,0.258161,
2,0,0,1,0,48480.2,0.247645,0.247347,-4.985,25,0.0161169,10,-0.00123303,-2.30233,-0.0488715,-1.20725,228.255,0.247347,
2,0,0,1,0,48480.3,0.236849,0.236524,-7.17726,25,0.0160065,10,-0.00169759,-2.14404,-0.0894035,-0.65993,182.667,0.2365239,
2,0,0,1,0,48480.3,0.22604,0.225709,-8.94706,25,0.0158608,10,-0.00201943,-2.04832,-0.137861,-0.427967,148.442,0.2257088,
2,0,0,1,0,48480.3,0.215245,0.214862,-10.4038,25,0.0156862,10,-0.00223538,-1.98281,-0.190388,-0.309893,125.468,0.214862,
2,0,0,1,0,48480.3,0.204447,0.20413,-11.6586,25,0.0154872,10,-0.00237987,-1.93335,-0.2444,-0.241407,109.67,0.20413,
2,0,0,1,0,48480.3,0.19364,0.193306,-12.7666,25,0.0152671,10,-0.00246785,-1.89393,-0.304393,-0.193828,96.433,0.193306,
2,0,0,1,0,48480.3,0.182842,0.18253,-13.7632,25,0.0150281,10,-0.00251219,-1.86128,-0.349852,-0.168643,90.5744,0.18253,
2,0,0,1,0,48480.4,0.172047,0.171736,-14.7325,25,0.0147715,10,-0.00253011,-1.83172,-0.374022,-0.157745,90.762,0.171736,
2,0,0,1,0,48480.4,0.161241,0.160891,-15.7354,25,0.0144972,10,-0.00253169,-1.80312,-0.383445,-0.153868,94.5181,0.160891,
2,0,0,1,0,48480.4,0.150443,0.150131,-16.8547,25,0.0142042,10,-0.00253042,-1.77328,-0.340626,-0.173211,114.033,0.150131,
2,0,0,1,0,48480.4,0.139645,0.139348,-18.2684,25,0.0138885,10,-0.00254566,-1.7383,-0.277849,-0.212346,151.694,0.139348,
2,0,0,1,0,48480.4,0.128849,0.128512,-20.1698,25,0.0135433,10,-0.00259207,-1.6953,-0.228736,-0.257939,203.475,0.128512,
2,0,0,1,0,48480.5,0.118043,0.117766,-22.6809,25,0.0131584,10,-0.00267104,-1.64434,-0.203122,-0.290466,257.251,0.117766,
2,0,0,1,0,48480.5,0.107245,0.106961,-25.5992,25,0.0127238,10,-0.00273812,-1.59177,-0.210966,-0.279666,279.25,0.1069613,
2,0,0,1,0,48480.5,0.0964468,0.0961218,-28.581,25,0.0122357,10,-0.00274726,-1.54392,-0.246017,-0.239821,266.959,0.0961218,
2,0,0,1,0,48480.5,0.0856404,0.0853258,-31.3695,25,0.0116959,10,-0.00267663,-1.50349,-0.290225,-0.203291,248.319,0.08532583,
2,0,0,1,0,48480.5,0.0748451,0.0745913,-33.8069,25,0.0111084,10,-0.0025217,-1.471,-0.376522,-0.156697,206.406,0.0745913,
2,0,0,1,0,48480.5,0.0640471,0.0637593,-35.7808,25,0.0104811,10,-0.00228136,-1.44635,-0.51604,-0.114332,159.443,0.0637593,
2,0,0,1,0,48480.6,0.0532407,0.0529601,-37.295,25,0.00982273,10,-0.00197515,-1.42835,-0.72919,-0.0809117,117.579,0.0529601,
2,0,0,1,0,48480.6,0.0424426,0.0421132,-38.344,25,0.00914128,10,-0.00161479,-1.4163,-1.14701,-0.051438,76.8802,0.0421132,
2,0,0,1,0,48480.6,0.0316473,0.0313628,-39.0133,25,0.00844463,10,-0.00122357,-1.40879,-1.87672,-0.0314378,47.8198,0.0313628,
2,0,0,1,0,48480.6,0.0208437,0.0205148,-39.3791,25,0.00773885,10,-0.000807855,-1.40473,-4.23553,-0.0139298,21.3866,0.0205148,
2,0,0,1,0,48480.6,0.0100429,0.00969234,-39.4809,25,0.00702883,10,-0.000382663,-1.40361,103.607,0.00056946,-0.876846,0.00969234,
2,0,0,1,0,48480.7,-0.000755208,-0.00112063,-39.3888,25,0.00631876,10,4.41402e-05,-1.40463,4.81368,0.0122567,-18.8222,-0.00112063,
2,0,0,1,0,48480.7,-0.0115505,-0.0118933,-39.011,25,0.00561281,10,0.00046397,-1.40881,1.99445,0.0295821,-45.0244,-0.0118933,
2,0,0,1,0,48480.7,-0.0223597,-0.0227317,-38.4266,25,0.00491555,10,0.000873502,-1.41537,1.37195,0.0430045,-64.4686,-0.0227317,
2,0,0,1,0,48480.7,-0.033155,-0.0334991,-37.6796,25,0.00423042,10,0.00126223,-1.42389,1.22236,0.0482674,-70.9914,-0.0334991,
2,0,0,1,0,48480.7,-0.043953,-0.0443407,-36.8969,25,0.00355929,10,0.00163603,-1.43301,1.18424,0.0498208,-71.7577,-0.0443407,
2,0,0,1,0,48480.7,-0.0547594,-0.0551102,-36.1867,25,0.00290185,10,0.00199425,-1.44145,1.33887,0.044067,-62.2415,-0.0551102,
2,0,0,1,0,48480.8,-0.0655575,-0.0658903,-35.608,25,0.00225607,10,0.00234622,-1.44845,1.84201,0.0320303,-44.5277,-0.0658903,
2,0,0,1,0,48480.8,-0.0763528,-0.0767382,-35.2175,25,0.00161904,10,0.00270253,-1.45324,3.01764,0.0195517,-26.8831,-0.0767382,
2,0,0,1,0,48480.8,-0.0871592,-0.0875396,-35.02,25,0.000987274,10,0.00306563,-1.45568,7.85659,0.00750962,-10.2683,-0.0875396,
2,0,0,1,0,48480.8,-0.0979573,-0.0983515,-35.0014,25,0.000357387,10,0.00344244,-1.45591,23.1073,0.0025533,-3.48409,-0.0983515,
2,0,0,1,1,48480.8,-0.0955546,-0.0959857,-27.5543,25,3.84291e-06,10,0.00264482,-1.55981,-0.046694,-1.26355,1379.21,-0.0959857,
2,0,0,1,1,48480.8,-0.0847538,-0.0851473,-16.5903,25,-0.000385183,10,0.00141262,-1.78015,-0.0454674,-1.29763,838.543,-0.0851473,
2,0,0,1,1,48480.9,-0.0739557,-0.0743513,-8.79483,25,-0.000609869,10,0.000653907,-2.05577,-0.0312391,-1.88866,633.436,-0.0743513,
2,0,0,1,1,48480.9,-0.0631604,-0.0635341,-2.67932,25,-0.000710435,10,0.000170228,-2.57198,-0.00798703,-7.38698,508.222,-0.0635341,
2,1,0,1,1,48480.9,-0.0523512,-0.0527359,2.3347,25,-0.000711501,10,-0.000123123,-2.63177,0.00749996,7.86671,422.312,-0.0527359,
2,1,0,1,1,48480.9,-0.0415559,-0.0420173,6.47806,25,-0.000630707,10,-0.000272191,-2.18856,0.0406616,1.451,355.37,-0.0420173,
2,1,0,1,1,48480.9,-0.0307579,-0.0311641,9.98408,25,-0.000481182,10,-0.000311145,-2.00069,0.0770863,0.765376,294.738,-0.0311641,
2,1,0,1,1,48481,-0.0199515,-0.0203829,12.9407,25,-0.000273818,10,-0.00026377,-1.88804,0.11884,0.496467,248.92,-0.0203829,
2,1,0,1,1,48481,-0.0091534,-0.00956571,15.4096,25,-1.7818e-05,10,-0.000147404,-1.81221,0.169171,0.348759,208.778,-0.009565711,
2,1,0,0,1,48481,-7.54729e-05,-0.000458935,17.1212,25,0.000228473,10,-7.8575e-06,-1.76647, , , ,-0.000458935,

File: 20221101_1-115_003_TrumpetPlot_ParaChange_from10_every3_12_CV_C01_25.csv
mode,ox/red,error,control changes,counter inc.,time/s,control/V,Ewe/V,<I>/mA,cycle number,(Q-Qo)/C,I Range,P/W,log(|I|),Tafel slope mV/dec,alpha_eff,dI/d(E-IR),E-IR/V,
2,1,0,1,0,50449.8,2.44065e-05,-0.000325324,14.9173,26,0.0000000E+000,10,-4.85295e-06,-1.82631, , , ,-0.000325324,
2,1,0,1,0,50449.8,0.0104008,0.0100232,18.0332,26,0.000286631,10,0.00018075,-1.74393,0.189741,0.31095,217.7,0.0100232,
2,1,0,1,0,50449.8,0.0212099,0.0208266,20.0732,26,0.000630604,10,0.000418057,-1.69738,0.28005,0.210676,164.622,0.0208266,
2,1,0,1,0,50449.8,0.0320052,0.0316173,21.7083,26,0.00100723,10,0.000686358,-1.66337,0.355883,0.165785,140.286,0.0316173,
2,1,0,1,0,50449.9,0.0428033,0.042461,23.1428,26,0.00141121,10,0.000982667,-1.63558,0.421914,0.139839,126.171,0.042461,
2,1,0,1,0,50449.9,0.0535986,0.0532188,24.4464,26,0.00183972,10,0.00130101,-1.61178,0.473849,0.124512,118.759,0.0532188,
2,1,0,1,0,50449.9,0.0644077,0.0640085,25.7287,26,0.00229146,10,0.00164685,-1.58958,0.50028,0.117934,118.377,0.0640085,
2,1,0,1,0,50449.9,0.075203,0.0748267,27.0081,26,0.00276617,10,0.00202093,-1.56851,0.513127,0.114981,121.195,0.07482674,
2,1,0,1,0,50449.9,0.0860011,0.0856068,28.3103,26,0.00326411,10,0.00242356,-1.54805,0.535754,0.110125,121.683,0.0856068,
2,1,0,1,0,50449.9,0.0968075,0.0964071,29.6508,26,0.00378591,10,0.00285855,-1.52796,0.54874,0.107519,124.405,0.0964071,
2,1,0,1,0,50450,0.107606,0.107218,31.023,26,0.00433204,10,0.00332622,-1.50832,0.55144,0.106993,129.536,0.107218,
2,1,0,1,0,50450,0.118401,0.118048,32.4128,26,0.00490311,10,0.00382626,-1.48928,0.575201,0.102573,129.759,0.118048,
2,1,0,1,0,50450,0.129207,0.128791,33.9164,26,0.00549979,10,0.00436813,-1.46959,0.523974,0.112601,149.03,0.128791,
2,1,0,1,0,50450,0.140005,0.139659,35.5704,26,0.00612528,10,0.00496773,-1.44891,0.528404,0.111657,155.005,0.139659,
2,1,0,1,0,50450,0.150803,0.150403,37.254,26,0.00678089,10,0.00560311,-1.42883,0.555697,0.106173,154.321,0.150403,
2,1,0,1,0,50450.1,0.161604,0.161289,38.8675,26,0.00746635,10,0.0062689,-1.41041,0.637857,0.0924972,140.196,0.1612891,
2,1,0,1,0,50450.1,0.172405,0.172027,40.2671,26,0.00817912,10,0.00692702,-1.39505,0.814122,0.0724707,113.748,0.172027,
2,1,0,1,0,50450.1,0.183203,0.18285,41.2629,26,0.00891374,10,0.00754493,-1.38444,1.46501,0.0402726,64.7402,0.18285,
2,1,0,1,0,50450.1,0.194001,0.193642,41.5878,26,0.00966052,10,0.00805316,-1.38103,-20.407,-0.00289117,-4.68378,0.193642,
2,1,0,1,0,50450.1,0.204808,0.20445,41.1373,26,0.0104062,10,0.00841051,-1.38576,-1.21791,-0.0484437,-77.6219,0.20445,
2,1,0,1,0,50450.1,0.215603,0.21528,39.8944,26,0.0111366,10,0.00858845,-1.39909,-0.630103,-0.0936354,-145.563,0.2152797,
2,1,0,1,0,50450.2,0.226401,0.226091,37.9762,26,0.0118381,10,0.00858607,-1.42049,-0.433859,-0.135989,-201.356,0.226091,
2,1,0,1,0,50450.2,0.237207,0.236918,35.6552,26,0.0125011,10,0.00844736,-1.44788,-0.362788,-0.162629,-226.208,0.236918,
2,1,0,1,0,50450.2,0.248005,0.247654,33.2423,26,0.0131209,10,0.0082326,-1.47831,-0.350411,-0.168374,-218.423,0.247654,
2,1,0,1,0,50450.2,0.258801,0.25845,30.9597,26,0.013698,10,0.00800152,-1.5092,-0.355762,-0.165841,-200.444,0.25845,
2,1,0,1,0,50450.2,0.26961,0.269323,28.9438,26,0.0142364,10,0.00779524,-1.53844,-0.38083,-0.154925,-175.034,0.269323,
2,1,0,1,0,50450.2,0.280405,0.280067,27.2086,26,0.0147411,10,0.00762025,-1.56529,-0.426814,-0.138233,-146.842,0.280067,
2,1,0,1,0,50450.3,0.291203,0.290834,25.7455,26,0.0152171,10,0.00748767,-1.5893,-0.48024,-0.122855,-123.567,0.290834,
2,1,0,0,0,50450.3,0.300012,0.299632,24.7218,26,0.0155879,10,0.00740743,-1.60692,0.00295302,19.9796,17364.3,0.299632,
2,1,0,1,0,50450.3,0.290843,0.29051,13.7309,26,0.0158684,10,0.00398898,-1.8623,0.0374179,1.57678,850.473,0.29051,
2,1,0,1,0,50450.3,0.280047,0.279793,6.48566,26,0.016045,10,0.00181464,-2.18805,0.0267219,2.20793,545.406,0.279793,
2,1,0,1,0,50450.3,0.269244,0.268909,1.49931,26,0.0161138,10,0.000403177,-2.82411,0.00843515,6.99454,389.754,0.268909,
2,0,0,1,0,50450.4,0.258443,0.258101,-2.13855,26,0.0161061,10,-0.000551961,-2.66988,-0.0132938,-4.43815,291.41,0.258101,
2,0,0,1,0,50450.4,0.247645,0.247296,-4.89843,26,0.0160413,10,-0.00121136,-2.30994,-0.0487066,-1.21133,225.76,0.247296,
2,0,0,1,0,50450.4,0.236849,0.236532,-7.08645,26,0.0159324,10,-0.00167618,-2.14957,-0.0892693,-0.660921,180.755,0.236532,
2,0,0,1,0,50450.4,0.22604,0.225675,-8.85536,26,0.0157883,10,-0.00199843,-2.05279,-0.136646,-0.431771,148.27,0.225675,
2,0,0,1,0,50450.4,0.215245,0.214912,-10.3107,26,0.0156153,10,-0.00221589,-1.98671,-0.187359,-0.314903,126.372,0.214912,
2,0,0,1,0,50450.4,0.204447,0.204107,-11.5781,26,0.015418,10,-0.00236317,-1.93636,-0.243687,-0.242114,109.124,0.204107,
2,0,0,1,0,50450.5,0.19364,0.193293,-12.6889,26,0.0151994,10,-0.00245269,-1.89657,-0.295906,-0.199388,98.5484,0.193293,
2,0,0,1,0,50450.5,0.182842,0.182514,-13.6967,26,0.0149617,10,-0.00249985,-1.86338,-0.340634,-0.173206,92.5199,0.182514,
2,0,0,1,0,50450.5,0.172047,0.171715,-14.6715,26,0.0147063,10,-0.00251932,-1.83352,-0.369566,-0.159647,91.4763,0.171715,
2,0,0,1,0,50450.5,0.161241,0.160856,-15.6885,26,0.014433,10,-0.00252359,-1.80442,-0.374957,-0.157352,96.4011,0.160856,
2,0,0,1,0,50450.5,0.150443,0.1501,-16.8187,26,0.0141406,10,-0.00252448,-1.77421,-0.335063,-0.176086,115.747,0.1501,
2,0,0,1,0,50450.5,0.139645,0.139326,-18.2596,26,0.0138253,10,-0.00254404,-1.73851,-0.273338,-0.21585,154.231,0.139326,
2,0,0,1,0,50450.6,0.128849,0.128524,-20.2036,26,0.0134798,10,-0.00259664,-1.69457,-0.224648,-0.262634,207.565,0.128524,
2,0,0,1,0,50450.6,0.118043,0.117718,-22.7738,26,0.0130937,10,-0.00268088,-1.64257,-0.201666,-0.292563,260.078,0.117718,
2,0,0,1,0,50450.6,0.107245,0.106928,-25.722,26,0.0126572,10,-0.00275041,-1.5897,-0.210965,-0.279668,280.483,0.106928,
2,0,0,1,0,50450.6,0.0964468,0.0961536,-28.7018,26,0.012167,10,-0.00275978,-1.54209,-0.249886,-0.236108,263.909,0.0961536,
2,0,0,1,0,50450.6,0.0856404,0.0853916,-31.466,26,0.0116252,10,-0.00268693,-1.50216,-0.295327,-0.199779,244.749,0.0853916,
2,0,0,1,0,50450.7,0.0748451,0.0745277,-33.8529,26,0.0110364,10,-0.00252298,-1.4704,-0.387498,-0.152259,200.795,0.0745277,
2,0,0,1,0,50450.7,0.0640471,0.063772,-35.7537,26,0.0104091,10,-0.00228009,-1.44668,-0.53207,-0.110888,154.501,0.063772,
2,0,0,1,0,50450.7,0.0532407,0.0529272,-37.1886,26,0.00975185,10,-0.00196829,-1.42959,-0.779223,-0.0757164,109.736,0.05292723,
2,0,0,1,0,50450.7,0.0424426,0.0421217,-38.1616,26,0.00907294,10,-0.00160743,-1.41837,-1.20505,-0.0489607,72.8675,0.04212169,
2,0,0,1,0,50450.7,0.0316473,0.0313427,-38.7713,26,0.00837986,10,-0.00121519,-1.41149,-2.06054,-0.0286333,43.3061,0.0313427,
2,0,0,1,0,50450.7,0.0208437,0.0205042,-39.1057,26,0.00767851,10,-0.000801833,-1.40776,-5.36695,-0.0109932,16.7679,0.0205042,
2,0,0,1,0,50450.8,0.0100429,0.00970718,-39.1896,26,0.00697354,10,-0.000380421,-1.40683,19.6335,0.00300507,-4.59236,0.00970718,
2,0,0,1,0,50450.8,-0.000755207,-0.00114714,-39.0756,26,0.00626899,10,4.48251e-05,-1.40809,4.39465,0.0134254,-20.4491,-0.00114714,
2,0,0,1,0,50450.8,-0.0115505,-0.0119516,-38.6877,26,0.00556892,10,0.000462381,-1.41243,1.89813,0.0310832,-46.8943,-0.0119516,
2,0,0,1,0,50450.8,-0.0223597,-0.0227572,-38.092,26,0.00487777,10,0.000866867,-1.41917,1.39157,0.0423982,-63.0001,-0.0227572,
2,0,0,1,0,50450.8,-0.033155,-0.0335076,-37.3623,26,0.00419864,10,0.00125192,-1.42757,1.28196,0.0460234,-67.1124,-0.0335076,
2,0,0,1,0,50450.9,-0.043953,-0.0443365,-36.615,26,0.00353291,10,0.00162338,-1.43634,1.25737,0.0469234,-67.0857,-0.0443365,
2,0,0,1,0,50450.9,-0.0547594,-0.0551547,-35.9568,26,0.00288,10,0.00198319,-1.44422,1.50092,0.0393093,-55.1755,-0.0551547,
2,0,0,1,0,50450.9,-0.0655575,-0.0659391,-35.4276,26,0.00223778,10,0.00233606,-1.45066,2.06675,0.0285472,-39.5027,-0.0659391,
2,0,0,1,0,50450.9,-0.0763528,-0.0767489,-35.0881,26,0.00160332,10,0.00269297,-1.45484,3.45317,0.0170858,-23.4162,-0.0767489,
2,0,0,1,0,50450.9,-0.0871592,-0.0875226,-34.9462,26,0.000973309,10,0.00305859,-1.4566,10.617,0.00555715,-7.58072,-0.0875226,
2,0,0,1,0,50450.9,-0.0979573,-0.0983451,-34.9551,26,0.000344458,10,0.00343766,-1.45649,27.7224,0.00212824,-2.89978,-0.0983451,
2,0,0,1,1,50451,-0.0955546,-0.0959984,-27.3166,26,-7.5834e-06,10,0.00262235,-1.56357,-0.0460916,-1.28006,1388.25,-0.0959984,
2,0,0,1,1,50451,-0.0847538,-0.0851823,-16.3173,26,-0.000391815,10,0.00138994,-1.78735,-0.0448889,-1.31436,835.864,-0.0851823,
2,0,0,1,1,50451,-0.0739557,-0.0743545,-8.56346,26,-0.000612001,10,0.000636731,-2.06735,-0.0306695,-1.92374,628.345,-0.0743545,
2,0,0,1,1,50451,-0.0631604,-0.0635977,-2.48794,26,-0.000708905,10,0.000158227,-2.60416,-0.00647514,-9.11177,505.082,-0.0635977,
2,1,0,1,1,50451,-0.0523512,-0.0528006,2.47865,26,-0.000707061,10,-0.000130875,-2.60578,0.00904881,6.52019,418.079,-0.0528006,
2,1,0,1,1,50451,-0.0415559,-0.0420226,6.58382,26,-0.000624067,10,-0.000276669,-2.18152,0.041513,1.42124,354.095,-0.0420226,
2,1,0,1,1,50451.1,-0.0307579,-0.0311927,10.0558,26,-0.000472933,10,-0.000313668,-1.99758,0.0779981,0.756429,293.632,-0.0311927,
2,1,0,1,1,50451.1,-0.0199515,-0.0203914,12.9839,26,-0.000264494,10,-0.00026476,-1.8866,0.120558,0.489392,246.387,-0.0203914,
2,1,0,1,1,50451.1,-0.0091534,-0.00951693,15.4231,26,-7.90362e-06,10,-0.00014678,-1.81183,0.171098,0.344831,206.778,-0.00951693,
2,1,0,0,1,50451.1,-7.54729e-05,-0.000439847,17.1237,26,0.000238598,10,-7.53182e-06,-1.7664, , , ,-0.000439847,