Folder: Figs_alphaMnO2_OER_Tafel_sleope/Figure_codes/Fig_3-5/rawdata_trumpetplot_data/after 10th (part 48)

File: 20221101_1-115_003_TrumpetPlot_ParaChange_from10_every3_04_CV_C01_25.csv
mode,ox/red,error,control changes,counter inc.,time/s,control/V,Ewe/V,<I>/mA,cycle number,(Q-Qo)/C,I Range,P/W,log(|I|),Tafel slope mV/dec,alpha_eff,dI/d(E-IR),E-IR/V,
2,0,0,1,0,50313.3,2.44065e-05,-0.000363498,-0.395149,26,0.0000000E+000,10,1.43636e-07,-3.40324, , , ,-0.000363498,
2,1,0,1,0,50314,0.00729063,0.00694058,0.348799,26,0.000170713,10,2.42087e-06,-3.45742,0.0562358,1.04915,14.0466,0.00694058,
2,1,0,1,0,50314.8,0.0147814,0.0144375,0.42149,26,0.000472843,10,6.08526e-06,-3.37521,0.112227,0.52572,8.63765,0.0144375,
2,1,0,1,0,50315.5,0.0222725,0.0219718,0.473261,26,0.000820028,10,1.03984e-05,-3.3249,0.160968,0.366532,6.75936,0.0219718,
2,1,0,1,0,50316.2,0.0297635,0.0294791,0.525823,26,0.00120521,10,1.55008e-05,-3.27916,0.195292,0.302112,6.19103,0.0294791,
2,1,0,1,0,50317,0.0372544,0.0369427,0.574105,26,0.00162793,10,2.1209e-05,-3.24101,0.219072,0.269318,6.04243,0.0369427,
2,1,0,1,0,50317.7,0.0447458,0.0444135,0.62334,26,0.00208813,10,2.76847e-05,-3.20527,0.216167,0.272937,6.64829,0.0444135,
2,1,0,1,0,50318.5,0.0522363,0.0518902,0.669147,26,0.00258421,10,3.47222e-05,-3.17448,0.241033,0.244779,6.39623,0.05189015,
2,1,0,1,0,50319.2,0.0597282,0.0593659,0.710844,26,0.00311301,10,4.21999e-05,-3.14823,0.29151,0.202395,5.61764,0.0593659,
2,1,0,1,0,50320,0.0672182,0.0668663,0.748713,26,0.00367058,10,5.00637e-05,-3.12568,0.394289,0.149637,4.35994,0.0668663,
2,1,0,1,0,50320.7,0.0747092,0.0743846,0.77783,26,0.00425324,10,5.78585e-05,-3.10912,0.561205,0.105131,3.18938,0.0743846,
2,1,0,1,0,50321.5,0.0822001,0.0818795,0.80156,26,0.00485739,10,6.56313e-05,-3.09606,0.543557,0.108544,3.41096,0.0818795,
2,1,0,1,0,50322.2,0.0896911,0.0893395,0.837454,26,0.00548266,10,7.48177e-05,-3.07704,0.334126,0.17658,5.79137,0.0893395,
2,1,0,1,0,50323,0.097182,0.0968684,0.8922,26,0.00614081,10,8.6426e-05,-3.04954,0.207709,0.284052,9.89105,0.0968684,
2,1,0,1,0,50323.7,0.104673,0.104333,0.971654,26,0.00684793,10,0.000101375,-3.01249,0.199284,0.296059,11.1875,0.104333,
2,1,0,1,0,50324.5,0.112164,0.111844,1.04707,26,0.00761513,10,0.000117109,-2.98002,0.299791,0.196804,8.023,0.111844,
2,1,0,1,0,50325.2,0.119655,0.119265,1.0961,26,0.00843045,10,0.000130727,-2.96015,0.571467,0.103243,4.42145,0.119265,
2,1,0,1,0,50326,0.127146,0.126788,1.12231,26,0.00927555,10,0.000142295,-2.94989,0.865554,0.0681644,2.99364,0.126788,
2,1,0,1,0,50326.7,0.134637,0.134299,1.12646,26,0.0101346,10,0.000151282,-2.94828,-0.526815,-0.111994,-4.91671,0.134299,
2,1,0,1,0,50327.5,0.142127,0.141784,1.03659,26,0.0109636,10,0.000146973,-2.98439,-0.120187,-0.490901,-19.7234,0.1417841,
2,1,0,1,0,50328.2,0.149619,0.149305,0.844268,26,0.0116811,10,0.000126054,-3.07352,-0.0742138,-0.795001,-26.18,0.149305,
2,1,0,1,0,50329,0.157109,0.15677,0.686095,26,0.0122593,10,0.000107559,-3.16362,-0.104291,-0.565727,-15.2074,0.1567699,
2,1,0,1,0,50329.7,0.164601,0.164269,0.610141,26,0.0127519,10,0.000100227,-3.21457,-0.197672,-0.298474,-7.10079,0.164269,
2,1,0,1,0,50330.5,0.172091,0.171697,0.570806,26,0.0132034,10,9.80054e-05,-3.24351,-0.390273,-0.151176,-3.38712,0.171697,
2,1,0,1,0,50331.2,0.179582,0.179252,0.551417,26,0.0136341,10,9.88428e-05,-3.25852,-0.745341,-0.0791584,-1.7094,0.179252,
2,1,0,1,0,50332,0.187074,0.186717,0.542184,26,0.0140534,10,0.000101235,-3.26585,-1.53357,-0.0384724,-0.810773,0.186717,
2,1,0,1,0,50332.7,0.194564,0.194204,0.531994,26,0.0144653,10,0.000103315,-3.27409,-1.03677,-0.0569074,-1.18341,0.194204,
2,1,0,1,0,50333.5,0.202056,0.201744,0.525534,26,0.0148717,10,0.000106023,-3.2794,-1.71863,-0.0343297,-0.70395,0.201744,
2,1,0,1,0,50334.2,0.209546,0.209195,0.519438,26,0.0152739,10,0.000108664,-3.28447,-1.12759,-0.0523238,-1.06483,0.209195,
2,1,0,1,0,50335,0.217038,0.216687,0.514607,26,0.0156724,10,0.000111509,-3.28852,-3.23777,-0.0182224,-0.367908,0.216687,
2,1,0,1,0,50335.7,0.224528,0.224213,0.511735,26,0.0160684,10,0.000114737,-3.29095,-2.19278,-0.0269065,-0.538565,0.224213,
2,1,0,1,0,50336.5,0.232019,0.231702,0.510273,26,0.0164615,10,0.000118231,-3.2922,-11.9677,-0.00492995,-0.0981121,0.231702,
2,1,0,1,0,50337.2,0.23951,0.23919,0.506285,26,0.0168521,10,0.000121098,-3.29561,-1.19565,-0.0493456,-0.973941,0.23919,
2,1,0,1,0,50338,0.247001,0.246709,0.504185,26,0.0172401,10,0.000124387,-3.29741,-1.08067,-0.0545957,-1.07004,0.246709,
2,1,0,1,0,50338.7,0.254492,0.254198,0.499657,26,0.0176257,10,0.000127012,-3.30133,-1.80355,-0.0327132,-0.636758,0.254198,
2,1,0,1,0,50339.5,0.261983,0.261584,0.495611,26,0.0180087,10,0.000129644,-3.30486,-1.24828,-0.047265,-0.915827,0.261584,
2,1,0,1,0,50340.2,0.269474,0.269152,0.491783,26,0.0183891,10,0.000132364,-3.30823,-2.93877,-0.0200764,-0.385024,0.269152,
2,1,0,1,0,50341,0.276965,0.276657,0.488008,26,0.0187668,10,0.000135011,-3.31157,-2.43883,-0.024192,-0.461311,0.276657,
2,1,0,1,0,50341.7,0.284456,0.284136,0.485205,26,0.0191417,10,0.000137864,-3.31408,-2.27204,-0.0259679,-0.490954,0.284136,
2,1,0,1,0,50342.5,0.291947,0.291602,0.48082,26,0.0195132,10,0.000140208,-3.31802,-2.47123,-0.0238747,-0.448263,0.291602,
2,1,0,1,0,50343.2,0.299437,0.299101,0.475093,26,0.0198818,10,0.000142101,-3.32322,-0.00292396,-20.1781,-203.29,0.299101,
2,0,0,1,0,50343.9,0.293745,0.293381,-0.0706578,26,0.0199089,10,-2.07296e-05,-4.15084,-0.0133528,-4.41853,11.1942,0.2933808,
2,0,0,1,0,50344.7,0.286253,0.285913,-0.125637,26,0.0198227,10,-3.59212e-05,-3.90088,-0.0466242,-1.26544,6.20452,0.285913,
2,0,0,1,0,50345.4,0.278763,0.278398,-0.162918,26,0.0197033,10,-4.5356e-05,-3.78803,-0.0853435,-0.691324,4.38054,0.278398,
2,0,0,1,0,50346.1,0.271272,0.270931,-0.191292,26,0.0195602,10,-5.18269e-05,-3.7183,-0.11577,-0.50963,3.77172,0.270931,
2,0,0,1,0,50346.9,0.263781,0.263473,-0.214177,26,0.0193972,10,-5.64299e-05,-3.66923,-0.148156,-0.398229,3.33608,0.263473,
2,0,0,1,0,50347.6,0.25629,0.255939,-0.236689,26,0.0192174,10,-6.05778e-05,-3.62582,-0.238223,-0.247667,2.27329,0.255939,
2,0,0,1,0,50348.4,0.248799,0.248426,-0.255475,26,0.0190229,10,-6.34666e-05,-3.59265,-0.254026,-0.23226,2.31336,0.248426,
2,0,0,1,0,50349.1,0.241308,0.240984,-0.272309,26,0.0188154,10,-6.56222e-05,-3.56494,-0.327184,-0.180327,1.91125,0.240984,
2,0,0,1,0,50349.9,0.233817,0.233477,-0.287262,26,0.0185962,10,-6.70692e-05,-3.54172,-0.409513,-0.144073,1.60921,0.233477,
2,0,0,1,0,50350.6,0.226326,0.225972,-0.300854,26,0.0183656,10,-6.79846e-05,-3.52164,-0.391609,-0.150661,1.77352,0.225972,
2,0,0,1,0,50351.4,0.218835,0.218497,-0.315421,26,0.0181239,10,-6.89186e-05,-3.50111,-0.317512,-0.18582,2.29008,0.218497,
2,0,0,1,0,50352.1,0.211344,0.211001,-0.330321,26,0.0178712,10,-6.9698e-05,-3.48106,-0.464407,-0.127044,1.64054,0.211001,
2,0,0,1,0,50352.9,0.203854,0.203517,-0.34421,26,0.017607,10,-7.00527e-05,-3.46318,-0.433837,-0.135996,1.83753,0.203517,
2,0,0,1,0,50353.6,0.196362,0.196006,-0.362364,26,0.0173318,10,-7.10254e-05,-3.44086,-0.427124,-0.138133,1.94424,0.196006,
2,0,0,1,0,50354.4,0.188872,0.188545,-0.377084,26,0.0170446,10,-7.10973e-05,-3.42356,-0.283607,-0.208034,3.06259,0.188545,
2,0,0,1,0,50355.1,0.18138,0.181008,-0.397033,26,0.0167446,10,-7.18664e-05,-3.40117,-0.353892,-0.166717,2.57165,0.181008,
2,0,0,1,0,50355.9,0.17389,0.17353,-0.416592,26,0.01643,10,-7.22914e-05,-3.38029,-0.314925,-0.187346,3.03752,0.17353,
2,0,0,1,0,50356.6,0.166398,0.166031,-0.442377,26,0.0160976,10,-7.34484e-05,-3.35421,-0.274471,-0.214959,3.72589,0.166031,
2,0,0,1,0,50357.4,0.158907,0.15857,-0.478664,26,0.0157418,10,-7.59017e-05,-3.31997,-0.181135,-0.325724,6.11129,0.15857,
2,0,0,1,0,50358.1,0.151417,0.151075,-0.533916,26,0.015352,10,-8.06615e-05,-3.27253,-0.131666,-0.448104,9.39876,0.151075,
2,0,0,1,0,50358.9,0.143925,0.143564,-0.629516,26,0.014907,10,-9.03759e-05,-3.20099,-0.0880588,-0.670007,16.5041,0.143564,
2,0,0,1,0,50359.6,0.136435,0.136104,-0.774813,26,0.0143721,10,-0.000105455,-3.1108,-0.0835761,-0.705943,21.3334,0.136104,
2,0,0,1,0,50360.4,0.128943,0.128607,-0.937233,26,0.013719,10,-0.000120534,-3.02815,-0.106741,-0.552739,20.1638,0.1286068,
2,0,0,1,0,50361.1,0.121453,0.121127,-1.06725,26,0.0129534,10,-0.000129274,-2.97173,-0.184409,-0.319942,13.294,0.121127,
2,0,0,1,0,50361.9,0.113962,0.113624,-1.13409,26,0.0121114,10,-0.00012886,-2.94535,-0.625712,-0.0942926,4.17611,0.113624,
2,0,0,1,0,50362.6,0.106471,0.106108,-1.14007,26,0.011244,10,-0.000120971,-2.94307,2.04463,0.028856,-1.28493,0.106108,
2,0,0,1,0,50363.4,0.0989798,0.0986201,-1.11938,26,0.0103856,10,-0.000110393,-2.95102,0.774406,0.0761874,-3.32236,0.0986201,
2,0,0,1,0,50364.1,0.0914889,0.091174,-1.09278,26,0.00954705,10,-9.96332e-05,-2.96147,0.772089,0.0764161,-3.25025,0.091174,
2,0,0,1,0,50364.9,0.083998,0.0836684,-1.06062,26,0.00872975,10,-8.87405e-05,-2.97444,0.518884,0.113706,-4.70276,0.0836684,
2,0,0,1,0,50365.6,0.076507,0.0761724,-1.03219,26,0.00793438,10,-7.86244e-05,-2.98624,0.666232,0.0885578,-3.5678,0.0761724,
2,0,0,1,0,50366.4,0.069016,0.0687114,-0.999117,26,0.00716153,10,-6.86507e-05,-3.00038,0.580222,0.101685,-3.9794,0.0687114,
2,0,0,1,0,50367.1,0.0615251,0.0612101,-0.972215,26,0.00641083,10,-5.95094e-05,-3.01224,0.603802,0.0977141,-3.71083,0.0612101,
2,0,0,1,0,50367.9,0.0540342,0.0537172,-0.939654,26,0.00568321,10,-5.04756e-05,-3.02703,0.59285,0.0995193,-3.65156,0.0537172,
2,0,0,1,0,50368.6,0.0465441,0.046241,-0.907786,26,0.00497884,10,-4.1977e-05,-3.04202,0.534486,0.110386,-3.91947,0.046241,
2,0,0,1,0,50369.4,0.0390523,0.0387178,-0.878109,26,0.00429897,10,-3.39984e-05,-3.05645,0.399125,0.147823,-5.0464,0.03871778,
2,0,0,1,0,50370.1,0.0315618,0.0312223,-0.843803,26,0.00364418,10,-2.63454e-05,-3.07376,0.373217,0.158085,-5.19833,0.0312223,
2,0,0,1,0,50370.9,0.0240704,0.0237629,-0.809232,26,0.00301365,10,-1.92297e-05,-3.09193,0.476044,0.123938,-3.93118,0.0237629,
2,0,0,1,0,50371.6,0.0165796,0.0162595,-0.788326,26,0.00240396,10,-1.28178e-05,-3.10329,0.910345,0.0648106,-1.99428,0.0162595,
2,0,0,1,0,50372.4,0.00908846,0.00875918,-0.773028,26,0.00180847,10,-6.77109e-06,-3.1118,1.88325,0.0313288,-0.94657,0.00875918,
2,0,0,1,0,50373.1,0.00159728,0.00122041,-0.779092,26,0.00121854,10,-9.5081e-07,-3.10841, , , ,0.00122041,
2,0,0,1,0,50373.3,0.000199195,-0.000182169,-0.773302,26,0.00110793,10,1.40871e-07,-3.11165, , , ,-0.000182169,

File: 20221101_1-115_003_TrumpetPlot_ParaChange_from10_every3_04_CV_C01_26.csv
mode,ox/red,error,control changes,counter inc.,time/s,control/V,Ewe/V,<I>/mA,cycle number,(Q-Qo)/C,I Range,P/W,log(|I|),Tafel slope mV/dec,alpha_eff,dI/d(E-IR),E-IR/V,
2,0,0,1,0,52283.4,2.44065e-05,-0.000382585,-0.401509,27,0.0000000E+000,10,1.53612e-07,-3.3963, , , ,-0.000382585,
2,1,0,1,0,52284.1,0.00729063,0.00692998,0.343844,27,0.000165888,10,2.38283e-06,-3.46364,0.0549701,1.07331,14.206,0.00692998,
2,1,0,1,0,52284.9,0.0147814,0.0144601,0.416861,27,0.000464551,10,6.02785e-06,-3.38001,0.114496,0.5153,8.38337,0.0144601,
2,1,0,1,0,52285.6,0.0222725,0.021975,0.469881,27,0.000808289,10,1.03256e-05,-3.32801,0.154748,0.381264,6.97306,0.021975,
2,1,0,1,0,52286.4,0.0297635,0.0294519,0.520413,27,0.00119001,10,1.53271e-05,-3.28365,0.186837,0.315783,6.40863,0.0294519,
2,1,0,1,0,52287.1,0.0372544,0.0368918,0.568198,27,0.00160898,10,2.09618e-05,-3.2455,0.214626,0.274897,6.11201,0.0368918,
2,1,0,1,0,52287.9,0.0447458,0.0444199,0.618623,27,0.0020649,10,2.74792e-05,-3.20857,0.228124,0.258632,6.2444,0.0444199,
2,1,0,1,0,52288.6,0.0522363,0.0519273,0.663859,27,0.00255671,10,3.44724e-05,-3.17792,0.235508,0.250522,6.48939,0.0519273,
2,1,0,1,0,52289.4,0.0597282,0.0594147,0.705992,27,0.00308111,10,4.19463e-05,-3.1512,0.305248,0.193285,5.32193,0.0594147,
2,1,0,1,0,52290.1,0.0672182,0.0668875,0.742744,27,0.00363432,10,4.96803e-05,-3.12916,0.386878,0.152503,4.40733,0.0668875,
2,1,0,1,0,52290.9,0.0747092,0.0744153,0.774,27,0.00421286,10,5.75974e-05,-3.11126,0.467146,0.126299,3.8062,0.0744153,
2,1,0,1,0,52291.6,0.0822001,0.081888,0.79734,27,0.0048128,10,6.52926e-05,-3.09836,0.602817,0.0978738,3.05654,0.081888,
2,1,0,1,0,52292.4,0.0896911,0.089331,0.832292,27,0.00543314,10,7.43495e-05,-3.07972,0.337854,0.174632,5.67059,0.089331,
2,1,0,1,0,52293.1,0.097182,0.0968556,0.884191,27,0.00608527,10,8.56389e-05,-3.05345,0.218774,0.269684,9.30186,0.0968556,
2,1,0,1,0,52293.9,0.104673,0.10433,0.961183,27,0.00678567,10,0.000100281,-3.01719,0.204276,0.288825,10.8101,0.10433,
2,1,0,1,0,52294.6,0.112164,0.111836,1.03624,27,0.00754515,10,0.000115889,-2.98454,0.268954,0.219368,8.86168,0.111836,
2,1,0,1,0,52295.4,0.119655,0.119293,1.08966,27,0.00835368,10,0.000129988,-2.96271,0.526195,0.112126,4.76246,0.119293,
2,1,0,1,0,52296.1,0.127146,0.126792,1.11497,27,0.00919238,10,0.00014137,-2.95274,1.0118,0.0583117,2.54436,0.126792,
2,1,0,1,0,52296.9,0.134637,0.134293,1.12043,27,0.0100452,10,0.000150467,-2.95061,-0.586179,-0.100652,-4.39537,0.134293,
2,1,0,1,0,52297.6,0.142127,0.141805,1.03359,27,0.0108715,10,0.000146569,-2.98565,-0.128083,-0.460639,-18.5025,0.141805,
2,1,0,1,0,52298.4,0.149619,0.14929,0.846459,27,0.0115902,10,0.000126367,-3.07239,-0.0749712,-0.786969,-25.9994,0.14929,
2,1,0,1,0,52299.1,0.157109,0.156779,0.687339,27,0.0121694,10,0.000107761,-3.16283,-0.099802,-0.591171,-15.9027,0.156779,
2,1,0,1,0,52299.9,0.164601,0.16427,0.608244,27,0.0126608,10,9.99162e-05,-3.21592,-0.204599,-0.288369,-6.83695,0.16427,
2,1,0,1,0,52300.6,0.172091,0.171747,0.568266,27,0.0131102,10,9.75977e-05,-3.24545,-0.357525,-0.165023,-3.67246,0.1717466,
2,1,0,1,0,52301.4,0.179582,0.179234,0.548714,27,0.0135385,10,9.83483e-05,-3.26065,-0.795503,-0.0741669,-1.59077,0.179234,
2,1,0,1,0,52302.1,0.187074,0.186744,0.539004,27,0.0139553,10,0.000100656,-3.26841,-1.49906,-0.0393579,-0.825487,0.186744,
2,1,0,1,0,52302.9,0.194564,0.194241,0.530239,27,0.0143649,10,0.000102994,-3.27553,-3.35103,-0.0176065,-0.364171,0.194241,
2,1,0,1,0,52303.6,0.202056,0.20173,0.5245,27,0.0147692,10,0.000105807,-3.28025,-1.20179,-0.0490935,-1.00189,0.20173,
2,1,0,1,0,52304.4,0.209546,0.209228,0.517925,27,0.0151697,10,0.000108364,-3.28573,-0.78396,-0.075259,-1.52451,0.209228,
2,1,0,1,0,52305.1,0.217038,0.216684,0.513199,27,0.0155664,10,0.000111202,-3.28971,-2.24257,-0.0263091,-0.528855,0.216684,
2,1,0,1,0,52305.9,0.224528,0.224183,0.5114,27,0.0159605,10,0.000114647,-3.29124,-3.82362,-0.0154304,-0.307385,0.224183,
2,1,0,1,0,52306.6,0.232019,0.2317,0.507217,27,0.0163521,10,0.000117522,-3.29481,-4.08089,-0.0144576,-0.286246,0.2317,
2,1,0,1,0,52307.4,0.23951,0.239157,0.503806,27,0.0167416,10,0.000120489,-3.29774,-3.32719,-0.0177327,-0.349455,0.239157,
2,1,0,1,0,52308.1,0.247001,0.246696,0.502896,27,0.0171286,10,0.000124063,-3.29852,-1.69625,-0.0347827,-0.680758,0.246696,
2,1,0,1,0,52308.9,0.254492,0.254178,0.49948,27,0.0175135,10,0.000126957,-3.30148,-2.3143,-0.0254936,-0.497404,0.254178,
2,1,0,1,0,52309.6,0.261983,0.261657,0.49574,27,0.0178956,10,0.000129714,-3.30475,-2.39776,-0.0246063,-0.476094,0.261657,
2,1,0,1,0,52310.4,0.269474,0.269147,0.492139,27,0.0182754,10,0.000132458,-3.30791,3.80592,0.0155022,0.297207,0.269147,
2,1,0,1,0,52311.1,0.276965,0.276619,0.487961,27,0.0186525,10,0.000134979,-3.31162,-18.1394,-0.00325258,-0.0620026,0.2766189,
2,1,0,1,0,52311.8,0.284456,0.284137,0.484383,27,0.0190267,10,0.000137631,-3.31481,-1.50309,-0.0392525,-0.742353,0.284137,
2,1,0,1,0,52312.6,0.291947,0.29161,0.480747,27,0.0193977,10,0.00014019,-3.31808,-1.23089,-0.0479326,-0.89941,0.29161,
2,1,0,1,0,52313.3,0.299437,0.299129,0.475684,27,0.0197658,10,0.000142291,-3.32268,-0.00306978,-19.2196,-196.61,0.2991285,
2,0,0,1,0,52314,0.293745,0.293417,-0.0696713,27,0.0197949,10,-2.04427e-05,-4.15695,-0.0129605,-4.5523,11.1552,0.2934168,
2,0,0,1,0,52314.8,0.286253,0.285969,-0.124187,27,0.0197099,10,-3.55136e-05,-3.90592,-0.0491638,-1.20007,5.85948,0.2859689,
2,0,0,1,0,52315.5,0.278763,0.278435,-0.161481,27,0.0195915,10,-4.4962e-05,-3.79188,-0.0881844,-0.669053,4.22692,0.278435,
2,0,0,1,0,52316.3,0.271272,0.270903,-0.191592,27,0.0194493,10,-5.1903e-05,-3.71762,-0.11863,-0.497346,3.68419,0.270903,
2,0,0,1,0,52317,0.263781,0.263466,-0.21345,27,0.0192874,10,-5.62367e-05,-3.6707,-0.146197,-0.403565,3.37429,0.263466,
2,0,0,1,0,52317.8,0.25629,0.255919,-0.236279,27,0.0191084,10,-6.04683e-05,-3.62657,-0.23016,-0.256344,2.34881,0.255919,
2,0,0,1,0,52318.5,0.248799,0.248471,-0.254721,27,0.018915,10,-6.3291e-05,-3.59393,-0.247124,-0.238747,2.37052,0.248471,
2,0,0,1,0,52319.3,0.241308,0.241008,-0.268788,27,0.0187086,10,-6.478e-05,-3.57059,-0.321187,-0.183694,1.94455,0.241008,
2,0,0,1,0,52320,0.233817,0.233381,-0.285987,27,0.0184901,10,-6.67439e-05,-3.54365,-0.340529,-0.17326,1.93618,0.233381,
2,0,0,1,0,52320.8,0.226326,0.226015,-0.299935,27,0.0182601,10,-6.779e-05,-3.52297,-0.421173,-0.140085,1.64016,0.226015,
2,0,0,1,0,52321.5,0.218835,0.21845,-0.314323,27,0.0180191,10,-6.86639e-05,-3.50262,-0.463728,-0.12723,1.56432,0.21845,
2,0,0,1,0,52322.3,0.211344,0.211014,-0.329464,27,0.017767,10,-6.95214e-05,-3.48219,-0.46275,-0.127499,1.6378,0.211014,
2,0,0,1,0,52323,0.203854,0.203517,-0.343833,27,0.0175035,10,-6.99761e-05,-3.46365,-0.369638,-0.159616,2.14845,0.203517,
2,0,0,1,0,52323.8,0.196362,0.196053,-0.360909,27,0.017229,10,-7.07575e-05,-3.4426,-0.320565,-0.18405,2.5892,0.196053,
2,0,0,1,0,52324.5,0.188872,0.188513,-0.376271,27,0.0169425,10,-7.09322e-05,-3.4245,-0.264144,-0.223363,3.27553,0.188513,
2,0,0,1,0,52325.3,0.18138,0.181061,-0.39441,27,0.0166432,10,-7.14124e-05,-3.40405,-0.330018,-0.178778,2.75845,0.181061,
2,0,0,1,0,52326,0.17389,0.173528,-0.417224,27,0.0163295,10,-7.23999e-05,-3.37963,-0.315821,-0.186814,3.03016,0.1735276,
2,0,0,1,0,52326.8,0.166398,0.166046,-0.442015,27,0.015998,10,-7.33949e-05,-3.35456,-0.330438,-0.178551,3.08846,0.166046,
2,0,0,1,0,52327.5,0.158907,0.158521,-0.477078,27,0.0156433,10,-7.56272e-05,-3.32141,-0.185769,-0.317599,5.93463,0.158521,
2,0,0,1,0,52328.3,0.151417,0.15108,-0.533883,27,0.0152551,10,-8.06588e-05,-3.27255,-0.131985,-0.447022,9.32607,0.15108,
2,0,0,1,0,52329,0.143925,0.143595,-0.627814,27,0.0148125,10,-9.01512e-05,-3.20217,-0.0877135,-0.672644,16.4751,0.143595,
2,0,0,1,0,52329.8,0.136435,0.136108,-0.768897,27,0.0142815,10,-0.000104653,-3.11413,-0.085034,-0.69384,20.7866,0.136108,
2,0,0,1,0,52330.5,0.128943,0.128601,-0.927983,27,0.0136343,10,-0.00011934,-3.03246,-0.105568,-0.558879,20.2005,0.128601,
2,0,0,1,0,52331.3,0.121453,0.121127,-1.05806,27,0.0128758,10,-0.00012816,-2.97549,-0.178638,-0.330276,13.6027,0.121127,
2,0,0,1,0,52332,0.113962,0.11364,-1.12312,27,0.0120415,10,-0.000127631,-2.94957,-0.58716,-0.100484,4.41373,0.11364,
2,0,0,1,0,52332.8,0.106471,0.106159,-1.13061,27,0.0111813,10,-0.000120023,-2.94669,1.8199,0.0324193,-1.43423,0.106159,
2,0,0,1,0,52333.5,0.0989798,0.0986456,-1.11117,27,0.0103294,10,-0.000109612,-2.95422,0.980583,0.0601683,-2.6035,0.0986456,
2,0,0,1,0,52334.3,0.0914889,0.0911517,-1.08552,27,0.00949652,10,-9.89468e-05,-2.96436,0.728408,0.0809985,-3.42108,0.0911517,
2,0,0,1,0,52335,0.083998,0.0836493,-1.05722,27,0.0086838,10,-8.84357e-05,-2.97583,0.480455,0.1228,-5.0589,0.0836493,
2,0,0,1,0,52335.8,0.076507,0.0761173,-1.02804,27,0.00789211,10,-7.8252e-05,-2.98799,0.547277,0.107807,-4.32808,0.0761173,
2,0,0,1,0,52336.5,0.069016,0.0687146,-0.995604,27,0.0071227,10,-6.84125e-05,-3.00191,0.521495,0.113136,-4.41313,0.0687146,
2,0,0,1,0,52337.3,0.0615251,0.0611761,-0.968125,27,0.00637499,10,-5.92262e-05,-3.01407,0.559917,0.105373,-3.98653,0.0611761,
2,0,0,1,0,52338,0.0540342,0.0536822,-0.937955,27,0.00564989,10,-5.03515e-05,-3.02782,0.546658,0.107928,-3.95115,0.0536822,
2,0,0,1,0,52338.8,0.0465441,0.0462422,-0.907077,27,0.00494785,10,-4.19453e-05,-3.04236,0.532051,0.110892,-3.92768,0.0462422,
2,0,0,1,0,52339.5,0.0390523,0.038686,-0.875067,27,0.00427027,10,-3.38528e-05,-3.05796,0.406823,0.145026,-4.9388,0.038686,
2,0,0,1,0,52340.3,0.0315618,0.0311999,-0.842598,27,0.00361744,10,-2.6289e-05,-3.07438,0.473622,0.124572,-4.08677,0.0311999,
2,0,0,1,0,52341,0.0240704,0.0237427,-0.807027,27,0.0029886,10,-1.9161e-05,-3.09311,0.512226,0.115184,-3.64223,0.0237427,
2,0,0,1,0,52341.7,0.0165796,0.016252,-0.787309,27,0.00238024,10,-1.27953e-05,-3.10385,0.729688,0.0808564,-2.48614,0.016252,
2,0,0,1,0,52342.5,0.00908846,0.00873691,-0.772478,27,0.00178579,10,-6.74907e-06,-3.11211,1.58428,0.0372408,-1.12352,0.00873691,
2,0,0,1,0,52343.2,0.00159728,0.00124802,-0.778425,27,0.00119692,10,-9.71488e-07,-3.10878, , , ,0.00124802,
2,0,0,1,0,52343.4,0.000199195,-0.000218435,-0.772035,27,0.00108648,10,1.68639e-07,-3.11236, , , ,-0.000218435,