Folder: Figs_alphaMnO2_OER_Tafel_sleope/Figure_codes/Fig_3-5/rawdata_trumpetplot_data/after 10th (part 145)

File: 20221101_1-115_003_TrumpetPlot_ParaChange_from10_every3_10_CV_C01_11.csv
mode,ox/red,error,control changes,counter inc.,time/s,control/V,Ewe/V,<I>/mA,cycle number,(Q-Qo)/C,I Range,P/W,log(|I|),Tafel slope mV/dec,alpha_eff,dI/d(E-IR),E-IR/V,
2,1,0,0,0,22862,-2.44065e-05,-0.000363498,5.33423,12,0.0000000E+000,10,-1.93898e-06,-2.27293, , , ,-0.000363498,
2,1,0,1,0,22862,0.00977853,0.0094283,8.28936,12,0.000348526,10,7.81545e-05,-2.08148,0.11379,0.5185,166.919,0.0094283,
2,1,0,1,0,22862.1,0.0197755,0.0194118,9.47987,12,0.000795904,10,0.000184022,-2.0232,0.242389,0.24341,90.0908,0.01941183,
2,1,0,1,0,22862.1,0.0297726,0.0295272,10.2579,12,0.00129024,10,0.000302886,-1.98894,0.34961,0.168759,67.4572,0.0295272,
2,1,0,1,0,22862.2,0.0397514,0.0394232,10.9309,12,0.00181904,10,0.000430933,-1.96134,0.349568,0.16878,72.0741,0.03942322,
2,1,0,1,0,22862.2,0.0497393,0.0494197,11.6545,12,0.00238217,10,0.000575961,-1.93351,0.369188,0.15981,72.54,0.0494197,
2,1,0,1,0,22862.3,0.0597364,0.0593998,12.3751,12,0.00298259,10,0.00073508,-1.90745,0.369506,0.159673,77.14,0.0593998,
2,1,0,1,0,22862.3,0.0697152,0.0693792,13.1146,12,0.00361897,10,0.000909877,-1.88225,0.417099,0.141453,72.4388,0.0693792,
2,1,0,1,0,22862.4,0.0796941,0.0793764,13.8615,12,0.00429255,10,0.00110028,-1.85819,0.459134,0.128503,69.5298,0.0793764,
2,1,0,1,0,22862.4,0.0896911,0.0893669,14.5366,12,0.00500299,10,0.00129909,-1.83754,0.504948,0.116844,66.306,0.0893669,
2,1,0,1,0,22862.5,0.099679,0.0993248,15.1857,12,0.00574458,10,0.00150831,-1.81857,0.516415,0.114249,67.6942,0.0993248,
2,1,0,1,0,22862.5,0.109658,0.109364,15.9428,12,0.00652012,10,0.00174357,-1.79744,0.41524,0.142086,88.4158,0.109364,
2,1,0,1,0,22862.6,0.119655,0.119336,16.9685,12,0.0073418,10,0.00202495,-1.77036,0.345125,0.170952,113.253,0.119336,
2,1,0,1,0,22862.6,0.129652,0.129321,18.1649,12,0.00822019,10,0.00234911,-1.74077,0.351416,0.167892,118.936,0.129321,
2,1,0,1,0,22862.7,0.139631,0.139337,19.2261,12,0.00915441,10,0.00267892,-1.71611,0.47433,0.124386,93.3414,0.139337,
2,1,0,1,0,22862.7,0.149619,0.149322,20.0216,12,0.010135,10,0.00298966,-1.6985,0.807628,0.0730534,56.9953,0.149322,
2,1,0,1,0,22862.8,0.159616,0.15929,20.1387,12,0.0111431,10,0.00320789,-1.69597,-0.970091,-0.060819,-47.7715,0.15929,
2,1,0,1,0,22862.8,0.169595,0.169265,18.8444,12,0.0121229,10,0.00318971,-1.72482,-0.194901,-0.302717,-222.017,0.169265,
2,1,0,1,0,22862.9,0.179573,0.17927,15.9779,12,0.0129951,10,0.00286436,-1.79648,-0.116801,-0.505131,-315.053,0.17927,
2,1,0,1,0,22862.9,0.18957,0.189283,13.1218,12,0.0137191,10,0.00248374,-1.88201,-0.123913,-0.476142,-243.971,0.189283,
2,1,0,1,0,22863,0.199558,0.199234,11.2137,12,0.0143219,10,0.00223416,-1.95025,-0.181151,-0.325695,-142.608,0.199234,
2,1,0,1,0,22863,0.209537,0.209208,10.0705,12,0.0148501,10,0.00210682,-1.99695,-0.24247,-0.243329,-95.6743,0.209208,
2,1,0,1,0,22863.1,0.219534,0.219226,9.33305,12,0.0153338,10,0.00204604,-2.02998,-0.380294,-0.155143,-56.593,0.219226,
2,1,0,1,0,22863.1,0.229531,0.229232,8.8436,12,0.0157878,10,0.00202724,-2.05337,-0.492242,-0.11986,-41.3888,0.229232,
2,1,0,1,0,22863.2,0.23951,0.239172,8.49676,12,0.0162203,10,0.00203219,-2.07075,-0.694816,-0.0849145,-28.1882,0.239172,
2,1,0,1,0,22863.2,0.249498,0.249181,8.24026,12,0.0166376,10,0.00205331,-2.08406,-0.830911,-0.0710064,-22.8181,0.2491806,
2,1,0,1,0,22863.3,0.259495,0.25921,8.03261,12,0.017044,10,0.00208213,-2.09514,-0.88764,-0.0664684,-20.8229,0.25921,
2,1,0,1,0,22863.3,0.269474,0.269172,7.85666,12,0.0174402,10,0.0021148,-2.10476,-1.27642,-0.0462229,-14.1724,0.269172,
2,1,0,1,0,22863.4,0.279453,0.27917,7.7042,12,0.0178286,10,0.00215078,-2.11327,-1.38609,-0.0425658,-12.8096,0.27917,
2,1,0,1,0,22863.4,0.28945,0.289105,7.56998,12,0.0182105,10,0.00218852,-2.12091,-1.62804,-0.0362399,-10.7028,0.289105,
2,1,0,1,0,22863.5,0.299438,0.29916,7.44942,12,0.0185852,10,0.00222857,-2.12788,-0.0550524,-1.07171,-297.769,0.29916,
2,0,0,1,0,22863.5,0.291747,0.291444,-0.215239,12,0.0187092,10,-6.27301e-05,-3.66708,-0.0353165,-1.67061,397.985,0.291444,
2,0,0,1,0,22863.5,0.28175,0.281462,-2.46529,12,0.0186313,10,-0.000693884,-2.60813,-0.0427575,-1.37987,131.605,0.2814616,
2,0,0,1,0,22863.6,0.27178,0.271457,-3.40946,12,0.0184824,10,-0.000925523,-2.46731,-0.108798,-0.542289,71.7057,0.271457,
2,0,0,1,0,22863.6,0.261783,0.261462,-3.96017,12,0.0182972,10,-0.00103543,-2.40229,-0.199049,-0.29641,45.8344,0.261462,
2,0,0,1,0,22863.7,0.251786,0.251437,-4.37737,12,0.018088,10,-0.00110063,-2.35879,-0.28207,-0.209168,35.6996,0.251437,
2,0,0,1,0,22863.7,0.241807,0.241501,-4.70992,12,0.0178607,10,-0.00113745,-2.32699,-0.336875,-0.175139,32.2944,0.241501,
2,0,0,1,0,22863.8,0.231824,0.231488,-5.02059,12,0.0176179,10,-0.0011622,-2.29925,-0.399855,-0.147554,28.8225,0.231488,
2,0,0,1,0,22863.8,0.221822,0.221502,-5.27467,12,0.0173604,10,-0.00116835,-2.2778,-0.447724,-0.131778,27.1534,0.221502,
2,0,0,1,0,22863.9,0.211843,0.211587,-5.54245,12,0.0170903,10,-0.00117271,-2.2563,-0.524773,-0.11243,24.2989,0.211587,
2,0,0,1,0,22863.9,0.201865,0.201547,-5.79675,12,0.0168074,10,-0.00116831,-2.23682,-0.541381,-0.108981,24.6964,0.201547,
2,0,0,1,0,22864,0.191868,0.191589,-6.07184,12,0.0165106,10,-0.0011633,-2.21668,-0.490609,-0.120259,28.5095,0.191589,
2,0,0,1,0,22864,0.18188,0.181514,-6.38772,12,0.0162,10,-0.00115946,-2.19465,-0.389776,-0.151369,37.7159,0.181514,
2,0,0,1,0,22864.1,0.171901,0.171577,-6.76882,12,0.0158724,10,-0.00116137,-2.16949,-0.364384,-0.161917,42.7113,0.171577,
2,0,0,1,0,22864.1,0.161904,0.161588,-7.27456,12,0.0155222,10,-0.00117548,-2.13819,-0.269406,-0.219001,62.2595,0.161588,
2,0,0,1,0,22864.2,0.151907,0.151587,-8.052,12,0.0151402,10,-0.00122058,-2.0941,-0.193445,-0.304996,95.9747,0.151587,
2,0,0,1,0,22864.2,0.141928,0.141637,-9.34348,12,0.0147085,10,-0.00132339,-2.02949,-0.12969,-0.454932,166.188,0.1416374,
2,0,0,1,0,22864.3,0.13194,0.131619,-11.3548,12,0.0141948,10,-0.00149451,-1.94482,-0.115133,-0.512449,226.981,0.131619,
2,0,0,1,0,22864.3,0.121943,0.121635,-13.7531,12,0.013567,10,-0.00167286,-1.8616,-0.13644,-0.432426,231.931,0.121635,
2,0,0,1,0,22864.4,0.111964,0.111669,-15.9916,12,0.0128232,10,-0.00178576,-1.79611,-0.183274,-0.321922,200.667,0.111669,
2,0,0,1,0,22864.4,0.101985,0.101695,-17.6877,12,0.0119802,10,-0.00179874,-1.75233,-0.293592,-0.200959,138.627,0.101695,
2,0,0,1,0,22864.5,0.0919883,0.0916868,-18.7543,12,0.0110659,10,-0.00171952,-1.7269,-0.588719,-0.100218,73.3104,0.0916868,
2,0,0,1,0,22864.5,0.0820004,0.0817271,-19.032,12,0.0101194,10,-0.00155543,-1.72052,3.62348,0.0162827,-12.0876,0.0817271,
2,0,0,1,0,22864.6,0.0720215,0.071692,-18.608,12,0.00917832,10,-0.00133404,-1.7303,0.664348,0.0888089,-64.44,0.07169199,
2,0,0,1,0,22864.6,0.0620245,0.0617388,-17.9133,12,0.00826536,10,-0.00110594,-1.74683,0.592748,0.0995363,-69.6238,0.0617388,
2,0,0,1,0,22864.7,0.0520275,0.051692,-17.3353,12,0.0073848,10,-0.000896097,-1.76107,0.7069,0.083463,-56.4185,0.051692,
2,0,0,1,0,22864.7,0.0420486,0.0416898,-16.8084,12,0.00653306,10,-0.00070074,-1.77447,0.792574,0.074441,-48.8771,0.0416898,
2,0,0,1,0,22864.8,0.0320607,0.0317379,-16.3136,12,0.00570654,10,-0.00051776,-1.78745,0.688849,0.0856501,-54.4646,0.0317379,
2,0,0,1,0,22864.8,0.0220637,0.0217787,-15.696,12,0.00490597,10,-0.000341838,-1.80421,0.522231,0.112977,-69.2233,0.0217787,
2,0,0,1,0,22864.9,0.0120848,0.0117546,-14.9635,12,0.00414056,10,-0.000175889,-1.82497,0.418712,0.140908,-82.2461,0.0117546,
2,0,0,1,0,22864.9,0.00210598,0.00173611,-14.1952,12,0.00341453,10,-2.46444e-05,-1.84786,0.492083,0.119898,-66.3093,0.00173611,
2,0,0,1,0,22865,-0.00789103,-0.00823095,-13.4579,12,0.00272408,10,0.000110772,-1.87102,0.515808,0.114384,-60.1319,-0.00823095,
2,0,0,1,0,22865,-0.017879,-0.0182435,-13.0088,12,0.00206467,10,0.000237327,-1.88576,0.945505,0.0624005,-31.6868,-0.0182435,
2,0,0,1,0,22865.1,-0.0278578,-0.0282371,-12.7893,12,0.00142221,10,0.000361132,-1.89315,2.0861,0.0282824,-14.1133,-0.0282371,
2,0,0,1,0,22865.1,-0.0378549,-0.0382388,-12.7702,12,0.00078398,10,0.000488319,-1.8938,-5.82919,-0.0101215,5.0468,-0.0382388,
2,0,0,1,0,22865.2,-0.0478519,-0.0482571,-12.9079,12,0.000142505,10,0.000622898,-1.88914,-1.28722,-0.0458351,23.0932,-0.0482571,
2,0,0,1,0,22865.2,-0.0578126,-0.0581799,-13.1564,12,-0.000506347,10,0.000765436,-1.88086,-1.04562,-0.0564257,28.9956,-0.05817987,
2,0,0,1,0,22865.3,-0.0678187,-0.0681756,-13.5237,12,-0.00117308,10,0.000921988,-1.8689,-0.788202,-0.0748539,39.4983,-0.0681756,
2,0,0,1,0,22865.3,-0.0778157,-0.0781661,-13.9712,12,-0.00186024,10,0.00109207,-1.85477,-0.643713,-0.0916558,50.0273,-0.0781661,
2,0,0,1,0,22865.4,-0.0877945,-0.0881747,-14.5537,12,-0.00257149,10,0.00128327,-1.83703,-0.537628,-0.109741,62.3046,-0.0881747,
2,0,0,1,0,22865.4,-0.0977734,-0.0981453,-15.2091,12,-0.0033137,10,0.0014927,-1.8179,-0.486255,-0.121335,72.0353,-0.0981453,
2,0,0,1,1,22865.5,-0.0936874,-0.0941045,-6.31883,12,-0.00380072,10,0.000594631,-2.19936,-0.0151604,-3.89172,955.721,-0.0941045,
2,1,0,1,1,22865.5,-0.0837086,-0.0840961,0.388486,12,-0.0039295,10,-3.26702e-05,-3.41062,0.0121341,4.86234,492.836,-0.0840961,
2,1,0,1,1,22865.6,-0.0737025,-0.0740779,4.25349,12,-0.0038052,10,-0.00031509,-2.37125,0.0319674,1.84563,300.956,-0.0740779,
2,1,0,1,1,22865.6,-0.0637236,-0.0641319,6.66156,12,-0.00352832,10,-0.000427218,-2.17642,0.080817,0.730045,189.345,-0.0641319,
2,1,0,1,1,22865.7,-0.0537447,-0.0541091,8.21548,12,-0.00315414,10,-0.000444532,-2.08537,0.158679,0.37182,118.796,-0.05410907,
2,1,0,1,1,22865.7,-0.0437477,-0.0441316,9.18466,12,-0.00271713,10,-0.000405334,-2.03694,0.276279,0.213552,76.5318,-0.0441316,
2,1,0,1,1,22865.8,-0.0337507,-0.034063,9.7984,12,-0.00224114,10,-0.000333763,-2.00884,0.506257,0.116542,44.5041,-0.034063,
2,1,0,1,1,22865.8,-0.0237809,-0.0241246,10.1273,12,-0.00174421,10,-0.000244318,-1.9945,0.9207,0.0640817,25.3281,-0.0241246,
2,1,0,1,1,22865.9,-0.0137839,-0.0141324,10.2911,12,-0.0012331,10,-0.000145438,-1.98754,3.02938,0.0194759,7.82014,-0.0141324,
2,1,0,1,1,22865.9,-0.0037869,-0.00411329,10.3513,12,-0.00071667,10,-4.25779e-05,-1.985,6.1193,0.00964163,3.89685,-0.00411329,
2,1,0,1,1,22866,-2.55332e-05,-0.000229887,10.3462,12,-0.000522913,10,-2.37845e-06,-1.98522, , , ,-0.000229887,

File: 20221101_1-115_003_TrumpetPlot_ParaChange_from10_every3_10_CV_C01_12.csv
mode,ox/red,error,control changes,counter inc.,time/s,control/V,Ewe/V,<I>/mA,cycle number,(Q-Qo)/C,I Range,P/W,log(|I|),Tafel slope mV/dec,alpha_eff,dI/d(E-IR),E-IR/V,
2,1,0,0,0,24832.1,-2.44065e-05,-0.000325324,5.22038,13,0.0000000E+000,10,-1.69831e-06,-2.2823, , , ,-0.000325324,
2,1,0,1,0,24832.1,0.00977853,0.00945172,8.05845,13,0.000339092,10,7.61662e-05,-2.09375,0.114031,0.517401,161.74,0.00945172,
2,1,0,1,0,24832.2,0.0197755,0.0194257,9.21927,13,0.000773824,10,0.000179091,-2.0353,0.247128,0.238742,85.9189,0.0194257,
2,1,0,1,0,24832.2,0.0297726,0.0293945,9.99025,13,0.00125498,10,0.000293658,-2.00042,0.336629,0.175267,68.2442,0.0293945,
2,1,0,1,0,24832.3,0.0397514,0.0394192,10.6521,13,0.00177028,10,0.000419898,-1.97256,0.342582,0.172222,71.7039,0.0394192,
2,1,0,1,0,24832.3,0.0497393,0.0493893,11.3552,13,0.00231921,10,0.000560826,-1.9448,0.372014,0.158596,70.1613,0.0493893,
2,1,0,1,0,24832.4,0.0597364,0.0594067,12.059,13,0.00290409,10,0.000716384,-1.91869,0.361597,0.163165,76.7879,0.0594067,
2,1,0,1,0,24832.4,0.0697152,0.0693283,12.7894,13,0.00352424,10,0.00088667,-1.89315,0.433265,0.136175,67.9508,0.0693283,
2,1,0,1,0,24832.5,0.0796941,0.079392,13.4987,13,0.00418019,10,0.00107169,-1.86971,0.431119,0.136853,72.1432,0.079392,
2,1,0,1,0,24832.5,0.0896911,0.0893356,14.1608,13,0.00487237,10,0.00126506,-1.84891,0.491833,0.119959,66.3144,0.0893356,
2,1,0,1,0,24832.6,0.099679,0.0993645,14.7957,13,0.00559496,10,0.00147017,-1.82986,0.549998,0.107273,61.9289,0.0993645,
2,1,0,1,0,24832.6,0.109658,0.10935,15.5167,13,0.00635023,10,0.00169675,-1.8092,0.433451,0.136117,82.4139,0.1093504,
2,1,0,1,0,24832.7,0.119655,0.119329,16.4805,13,0.00714913,10,0.0019666,-1.78303,0.362057,0.162958,104.877,0.119329,
2,1,0,1,0,24832.7,0.129652,0.129343,17.6176,13,0.00800165,10,0.0022787,-1.75405,0.353365,0.166966,114.74,0.129343,
2,1,0,1,0,24832.8,0.139631,0.139301,18.6373,13,0.00890758,10,0.00259618,-1.72962,0.473786,0.124529,90.6345,0.139301,
2,1,0,1,0,24832.8,0.149619,0.149292,19.4237,13,0.00985858,10,0.00289981,-1.71167,0.782674,0.0753826,57.048,0.149292,
2,1,0,1,0,24832.9,0.159616,0.159326,19.5892,13,0.0108375,10,0.00312108,-1.70798,-1.19313,-0.0494496,-37.7763,0.159326,
2,1,0,1,0,24832.9,0.169595,0.169283,18.4704,13,0.0117936,10,0.00312673,-1.73352,-0.214557,-0.274985,-197.665,0.169283,
2,1,0,1,0,24833,0.179573,0.179264,15.8659,13,0.012654,10,0.00284418,-1.79954,-0.125173,-0.471347,-291.956,0.179264,
2,1,0,1,0,24833,0.18957,0.18926,13.1618,13,0.013377,10,0.00249101,-1.88068,-0.130753,-0.451233,-231.797,0.18926,
2,1,0,1,0,24833.1,0.199558,0.199286,11.2633,13,0.0139825,10,0.00224461,-1.94834,-0.176683,-0.333932,-146.914,0.199286,
2,1,0,1,0,24833.1,0.209537,0.209256,10.1014,13,0.0145129,10,0.00211378,-1.99562,-0.242812,-0.242986,-95.7642,0.209256,
2,1,0,1,0,24833.2,0.219534,0.219188,9.33117,13,0.0149972,10,0.00204528,-2.03006,-0.367992,-0.160329,-58.4775,0.219188,
2,1,0,1,0,24833.2,0.229531,0.2292,8.82173,13,0.0154505,10,0.00202194,-2.05445,-0.469062,-0.125783,-43.3116,0.2292,
2,1,0,1,0,24833.3,0.23951,0.239192,8.4595,13,0.0158813,10,0.00202344,-2.07266,-0.63911,-0.0923159,-30.5195,0.239192,
2,1,0,1,0,24833.3,0.249498,0.249168,8.19117,13,0.0162965,10,0.00204098,-2.08665,-0.801419,-0.0736194,-23.5213,0.249168,
2,1,0,1,0,24833.4,0.259495,0.259232,7.9776,13,0.0167004,10,0.00206805,-2.09813,-0.872429,-0.0676273,-21.0554,0.259232,
2,1,0,1,0,24833.4,0.269474,0.269154,7.80771,13,0.017094,10,0.00210148,-2.10748,-1.05946,-0.0556885,-16.9514,0.269154,
2,1,0,1,0,24833.5,0.279453,0.279097,7.64937,13,0.0174796,10,0.00213491,-2.11637,-1.23388,-0.0478168,-14.2876,0.279097,
2,1,0,1,0,24833.5,0.28945,0.28913,7.51654,13,0.0178587,10,0.00217326,-2.12398,-1.49044,-0.0395856,-11.6063,0.28913,
2,1,0,1,0,24833.6,0.299438,0.29912,7.39311,13,0.0182306,10,0.00221143,-2.13117,-0.0589873,-1.00021,-276.33,0.29912,
2,1,0,1,0,24833.6,0.291747,0.291417,0.0472113,13,0.018362,10,1.37582e-05,-4.32595,0.0229695,2.56862,401.433,0.291417,
2,0,0,1,0,24833.7,0.28175,0.281429,-2.24456,13,0.0182967,10,-0.000631682,-2.64887,-0.0370023,-1.5945,138.056,0.281429,
2,0,0,1,0,24833.7,0.27178,0.271442,-3.22588,13,0.0181577,10,-0.000875641,-2.49135,-0.0992983,-0.594169,74.3197,0.271442,
2,0,0,1,0,24833.8,0.261783,0.261461,-3.80836,13,0.017981,10,-0.000995736,-2.41926,-0.1886,-0.312831,46.469,0.261461,
2,0,0,1,0,24833.8,0.251786,0.251478,-4.23456,13,0.0177794,10,-0.0010649,-2.37319,-0.267865,-0.22026,36.3703,0.251478,
2,0,0,1,0,24833.9,0.241807,0.241494,-4.57145,13,0.0175591,10,-0.00110398,-2.33995,-0.326368,-0.180777,32.3634,0.241494,
2,0,0,1,0,24833.9,0.231824,0.231539,-4.88895,13,0.017323,10,-0.00113198,-2.31078,-0.391836,-0.150573,28.6338,0.231539,
2,0,0,1,0,24834,0.221822,0.221533,-5.14352,13,0.0170723,10,-0.00113946,-2.28874,-0.431985,-0.136579,27.4313,0.221533,
2,0,0,1,0,24834,0.211843,0.211544,-5.41019,13,0.016809,10,-0.00114449,-2.26679,-0.523382,-0.112728,23.7468,0.2115439,
2,0,0,1,0,24834.1,0.201865,0.201591,-5.65357,13,0.0165329,10,-0.00113971,-2.24768,-0.55379,-0.106539,23.5506,0.201591,
2,0,0,1,0,24834.1,0.191868,0.191546,-5.92786,13,0.0162432,10,-0.00113546,-2.2271,-0.502466,-0.117421,27.1631,0.191546,
2,0,0,1,0,24834.2,0.18188,0.181524,-6.2317,13,0.0159402,10,-0.0011312,-2.20539,-0.408787,-0.144329,35.0803,0.181524,
2,0,0,1,0,24834.2,0.171901,0.171569,-6.59481,13,0.0156208,10,-0.00113147,-2.1808,-0.381564,-0.154627,39.7101,0.171569,
2,0,0,1,0,24834.3,0.161904,0.161576,-7.06397,13,0.0152802,10,-0.00114137,-2.15095,-0.289718,-0.203646,56.2321,0.161576,
2,0,0,1,0,24834.3,0.151907,0.15155,-7.78775,13,0.0149099,10,-0.00118023,-2.10859,-0.195993,-0.301031,91.5893,0.15155,
2,0,0,1,0,24834.4,0.141928,0.141592,-8.98322,13,0.0144937,10,-0.00127195,-2.04657,-0.132807,-0.444254,156.058,0.141592,
2,0,0,1,0,24834.4,0.13194,0.131599,-10.8627,13,0.0140013,10,-0.00142953,-1.96406,-0.115421,-0.511172,216.508,0.131599,
2,0,0,1,0,24834.5,0.121943,0.121684,-13.1097,13,0.0134018,10,-0.00159524,-1.88241,-0.134625,-0.438255,224.571,0.121684,
2,0,0,1,0,24834.5,0.111964,0.111674,-15.2962,13,0.0126911,10,-0.00170819,-1.81542,-0.183647,-0.321269,191.394,0.111674,
2,0,0,1,0,24834.6,0.101985,0.101697,-16.9512,13,0.0118842,10,-0.00172389,-1.7708,-0.282969,-0.208503,137.887,0.101697,
2,0,0,1,0,24834.6,0.0919883,0.0916712,-18.0569,13,0.011006,10,-0.0016553,-1.74336,-0.522277,-0.112967,79.5316,0.0916712,
2,0,0,1,0,24834.7,0.0820004,0.0816809,-18.4226,13,0.0100924,10,-0.00150477,-1.73465,50.1607,0.00117622,-0.845281,0.0816809,
2,0,0,1,0,24834.7,0.0720215,0.0716703,-18.1164,13,0.00917877,10,-0.0012984,-1.74193,0.776825,0.0759502,-53.6626,0.0716703,
2,0,0,1,0,24834.8,0.0620245,0.0616972,-17.5191,13,0.00828789,10,-0.00108088,-1.75649,0.654188,0.0901881,-61.6845,0.0616972,
2,0,0,1,0,24834.8,0.0520275,0.0516807,-17.0003,13,0.00742546,10,-0.000878586,-1.76954,0.773983,0.0762291,-50.543,0.0516807,
2,0,0,1,0,24834.9,0.0420486,0.0417113,-16.5249,13,0.00658918,10,-0.000689274,-1.78186,0.875151,0.0674169,-43.5232,0.0417113,
2,0,0,1,0,24834.9,0.0320607,0.0317431,-16.0692,13,0.00577561,10,-0.000510086,-1.79401,0.742139,0.0794999,-49.8072,0.0317431,
2,0,0,1,0,24835,0.0220637,0.0217561,-15.5056,13,0.00498594,10,-0.000337341,-1.80951,0.579966,0.10173,-61.5787,0.0217561,
2,0,0,1,0,24835,0.0120848,0.0117609,-14.8256,13,0.00422871,10,-0.000174362,-1.82899,0.429488,0.137373,-79.412,0.0117609,
2,0,0,1,0,24835.1,0.00210598,0.00171268,-14.0952,13,0.00350862,10,-2.41406e-05,-1.85093,0.487458,0.121036,-66.4423,0.00171268,
2,0,0,1,0,24835.1,-0.00789103,-0.00825003,-13.3747,13,0.00282273,10,0.000110342,-1.87372,0.524924,0.112397,-58.7013,-0.00825003,
2,0,0,1,0,24835.2,-0.017879,-0.0182531,-12.9174,13,0.00216776,10,0.000235782,-1.88883,0.914437,0.0645205,-32.5252,-0.0182531,
2,0,0,1,0,24835.2,-0.0278578,-0.0282301,-12.6703,13,0.00153041,10,0.000357685,-1.89721,1.77858,0.0331725,-16.4069,-0.0282301,
2,0,0,1,0,24835.3,-0.0378549,-0.0382466,-12.6283,13,0.000898647,10,0.000482989,-1.89866,-23.8086,-0.0024781,1.22173,-0.0382466,
2,0,0,1,0,24835.3,-0.0478519,-0.048166,-12.7405,13,0.000264859,10,0.000613657,-1.89481,-1.31892,-0.0447336,22.2429,-0.04816597,
2,0,0,1,0,24835.4,-0.0578126,-0.0582007,-12.9651,13,-0.000374934,10,0.000754577,-1.88722,-1.03086,-0.0572336,28.9857,-0.0582007,
2,0,0,1,0,24835.4,-0.0678187,-0.0681747,-13.3016,13,-0.00103133,10,0.000906834,-1.8761,-0.785627,-0.0750992,38.9639,-0.0681747,
2,0,0,1,0,24835.5,-0.0778157,-0.0782077,-13.7162,13,-0.00170662,10,0.00107271,-1.86277,-0.698016,-0.0845252,45.2927,-0.0782077,
2,0,0,1,0,24835.5,-0.0877945,-0.088158,-14.271,13,-0.00240455,10,0.0012581,-1.84555,-0.546234,-0.108012,60.1047,-0.088158,
2,0,0,1,0,24835.6,-0.0977734,-0.0981418,-14.8774,13,-0.00313165,10,0.0014601,-1.82747,-0.491515,-0.120037,69.7935,-0.0981418,
2,0,0,1,1,24835.6,-0.0936874,-0.0940536,-6.47597,13,-0.0036137,10,0.000609089,-2.1887,-0.0166244,-3.549,893.665,-0.0940536,
2,0,0,1,1,24835.7,-0.0837086,-0.0840796,-0.0087595,13,-0.00375795,10,7.36495e-07,-5.05752,-0.0737131,-0.800401,483.511,-0.0840796,
2,1,0,1,1,24835.7,-0.0737025,-0.0741291,3.76391,13,-0.00365634,10,-0.000279015,-2.42436,0.0285061,2.06974,298.955,-0.0741291,
2,1,0,1,1,24835.8,-0.0637236,-0.0641287,6.17991,13,-0.00340384,10,-0.000396309,-2.20902,0.0731402,0.80667,193.812,-0.0641287,
2,1,0,1,1,24835.8,-0.0537448,-0.05409,7.76362,13,-0.00305287,10,-0.000419934,-2.10994,0.141517,0.416912,126.042,-0.05409,
2,1,0,1,1,24835.9,-0.0437477,-0.0441542,8.78656,13,-0.00263715,10,-0.000387963,-2.05618,0.251276,0.234801,80.4233,-0.0441542,
2,1,0,1,1,24835.9,-0.0337507,-0.0341168,9.43104,13,-0.00218012,10,-0.000321757,-2.02544,0.428749,0.13761,50.6764,-0.0341168,
2,1,0,1,1,24836,-0.0237809,-0.0241524,9.82184,13,-0.0016999,10,-0.000237221,-2.00781,0.743617,0.0793419,30.3704,-0.0241524,
2,1,0,1,1,24836,-0.0137839,-0.0141558,10.0131,13,-0.00120355,10,-0.000141744,-1.99943,2.18141,0.0270467,10.5706,-0.0141558,
2,1,0,1,1,24836.1,-0.0037869,-0.00414366,10.1088,13,-0.000700201,10,-4.18873e-05,-1.9953,3.05082,0.019339,7.62581,-0.00414366,
2,1,0,1,1,24836.1,-2.55332e-05,-0.000401673,10.1191,13,-0.000510973,10,-4.06457e-06,-1.99486, , , ,-0.000401673,