Folder: Figs_alphaMnO2_OER_Tafel_sleope/Figure_codes/Fig_3-5/rawdata_trumpetplot_data/after 10th (part 108)

File: 20221101_1-115_003_TrumpetPlot_ParaChange_from10_every3_08_CV_C01_7.csv
mode,ox/red,error,control changes,counter inc.,time/s,control/V,Ewe/V,<I>/mA,cycle number,(Q-Qo)/C,I Range,P/W,log(|I|),Tafel slope mV/dec,alpha_eff,dI/d(E-IR),E-IR/V,
2,0,0,0,0,14965.9,2.44065e-05,-0.000248974,-4.01481,8,0.0000000E+000,10,9.99583e-07,-2.39634, , , ,-0.000248974,
2,1,0,1,0,14966,0.0072942,0.00699603,1.63474,8,-1.88621e-05,10,1.14367e-05,-2.78655,0.0122492,4.81662,276.293,0.00699603,
2,1,0,1,0,14966.1,0.0147816,0.0144953,2.78581,8,0.000199101,10,4.03812e-05,-2.55505,0.0688819,0.856539,92.2786,0.0144953,
2,1,0,1,0,14966.2,0.0222707,0.0219826,3.29445,8,0.000486446,10,7.24207e-05,-2.48222,0.126821,0.465223,59.7214,0.0219826,
2,1,0,1,0,14966.3,0.0297581,0.0294376,3.67651,8,0.000814173,10,0.000108228,-2.43456,0.179365,0.328938,47.1067,0.0294376,
2,1,0,1,0,14966.4,0.0372544,0.0369479,4.03692,8,0.00117655,10,0.000149156,-2.39395,0.203406,0.29006,45.6274,0.0369479,
2,1,0,1,0,14966.5,0.0447507,0.0444334,4.37345,8,0.00157199,10,0.000194327,-2.35918,0.210751,0.279951,47.8443,0.0444334,
2,1,0,1,0,14966.6,0.0522381,0.0519545,4.70932,8,0.00199876,10,0.000244671,-2.32704,0.250193,0.235818,43.3881,0.0519545,
2,1,0,1,0,14966.7,0.0597273,0.0593999,5.03664,8,0.00245616,10,0.000299176,-2.29786,0.280481,0.210353,41.2719,0.0593999,
2,1,0,1,0,14966.8,0.0672147,0.0669026,5.33176,8,0.0029421,10,0.000356708,-2.27313,0.287604,0.205143,42.6166,0.0669026,
2,1,0,1,0,14966.9,0.0747038,0.0744111,5.59041,8,0.00345458,10,0.000415988,-2.25256,0.404643,0.145807,31.8133,0.0744111,
2,1,0,1,0,14967,0.0822055,0.0819066,5.83604,8,0.00399187,10,0.00047801,-2.23388,0.482228,0.122349,27.8348,0.0819066,
2,1,0,1,0,14967.1,0.0896946,0.0893571,6.05968,8,0.00454918,10,0.000541476,-2.21755,0.402869,0.14645,34.636,0.0893571,
2,1,0,1,0,14967.1,0.097182,0.0968336,6.34287,8,0.00513044,10,0.000614203,-2.19771,0.324039,0.182077,45.1396,0.0968336,
2,1,0,1,0,14967.2,0.104671,0.104336,6.78074,8,0.00574417,10,0.000707473,-2.16872,0.230919,0.255501,67.5718,0.104336,
2,1,0,1,0,14967.3,0.112159,0.111829,7.3257,8,0.00640444,10,0.000819228,-2.13515,0.220941,0.26704,76.2646,0.111829,
2,1,0,1,0,14967.4,0.119655,0.119349,7.85983,8,0.0071174,10,0.000938064,-2.10459,0.288284,0.20466,62.7143,0.119349,
2,1,0,1,0,14967.5,0.127149,0.126831,8.26027,8,0.00787493,10,0.00104766,-2.08301,0.425496,0.138662,44.695,0.126831,
2,1,0,1,0,14967.6,0.134639,0.134339,8.57169,8,0.00866448,10,0.00115152,-2.06693,0.555174,0.106273,35.5293,0.134339,
2,1,0,1,0,14967.7,0.142126,0.141822,8.75195,8,0.00947804,10,0.00124122,-2.0579,2.08029,0.0283615,9.67728,0.141822,
2,1,0,1,0,14967.8,0.149615,0.149283,8.50587,8,0.0102928,10,0.00126978,-2.07028,-0.225822,-0.261268,-86.4024,0.149283,
2,1,0,1,0,14967.9,0.157103,0.156769,7.44062,8,0.0110461,10,0.00116646,-2.12839,-0.0917502,-0.64305,-186.018,0.156769,
2,1,0,1,0,14968,0.164606,0.164307,5.96002,8,0.0116748,10,0.000979274,-2.22475,-0.07763,-0.760015,-177.225,0.164307,
2,1,0,1,0,14968.1,0.172095,0.171786,4.90787,8,0.0121804,10,0.000843104,-2.30911,-0.10175,-0.579852,-111.417,0.171786,
2,1,0,1,0,14968.2,0.179582,0.179201,4.30676,8,0.0126101,10,0.000771776,-2.36585,-0.169061,-0.348987,-58.8021,0.179201,
2,1,0,1,0,14968.3,0.18707,0.186713,3.94041,8,0.0129959,10,0.000735728,-2.40446,-0.267157,-0.220844,-34.0203,0.186713,
2,1,0,1,0,14968.4,0.194559,0.194264,3.71344,8,0.0133545,10,0.000721388,-2.43022,-0.316843,-0.186212,-26.9908,0.194264,
2,1,0,1,0,14968.5,0.202062,0.201766,3.55984,8,0.013696,10,0.000718255,-2.44857,-0.495092,-0.11917,-16.5108,0.201766,
2,1,0,1,0,14968.6,0.20955,0.209258,3.44564,8,0.0140245,10,0.000721028,-2.46273,-0.581964,-0.101381,-13.6434,0.209258,
2,1,0,1,0,14968.6,0.217039,0.216743,3.35764,8,0.014344,10,0.000727744,-2.47397,-0.711782,-0.0828906,-10.8897,0.216743,
2,1,0,1,0,14968.7,0.224526,0.224239,3.30354,8,0.0146569,10,0.000740784,-2.48102,-1.09808,-0.05373,-6.92115,0.224239,
2,1,0,1,0,14968.8,0.232016,0.231705,3.252,8,0.0149646,10,0.000753505,-2.48785,-2.62821,-0.0224488,-2.84971,0.2317052,
2,1,0,1,0,14968.9,0.23951,0.239192,3.21366,8,0.0152686,10,0.000768681,-2.493,-1.38078,-0.0427295,-5.35906,0.239192,
2,1,0,1,0,14969,0.247006,0.246747,3.18551,8,0.0155692,10,0.000786013,-2.49682,-1.36875,-0.043105,-5.34392,0.246747,
2,1,0,1,0,14969.1,0.254494,0.254191,3.14519,8,0.0158664,10,0.000799481,-2.50235,-2.40468,-0.0245355,-3.01411,0.254191,
2,1,0,1,0,14969.2,0.261983,0.261674,3.11768,8,0.0161609,10,0.000815817,-2.50617,-1.30102,-0.0453491,-5.52687,0.261674,
2,1,0,1,0,14969.3,0.26947,0.269164,3.09743,8,0.0164529,10,0.000833715,-2.509,-1.26915,-0.046488,-5.61867,0.269164,
2,1,0,1,0,14969.4,0.276959,0.276695,3.06986,8,0.0167425,10,0.000849417,-2.51288,-7.38896,-0.00798489,-0.956862,0.2766954,
2,1,0,1,0,14969.5,0.284461,0.284195,3.03761,8,0.0170301,10,0.000863271,-2.51747,-3.17125,-0.0186047,-2.20635,0.284195,
2,1,0,1,0,14969.6,0.29195,0.291686,3.0105,8,0.0173143,10,0.000878121,-2.52136,-1.04534,-0.0564409,-6.62703,0.291686,
2,1,0,1,0,14969.7,0.299438,0.299158,2.98257,8,0.017596,10,0.00089226,-2.52541,-0.0228917,-2.57735,-268.324,0.299158,
2,0,0,1,0,14969.8,0.29424,0.29391,-0.715323,8,0.0176385,10,-0.00021024,-3.1455,-0.00873143,-6.7572,151.253,0.29391,
2,0,0,1,0,14969.8,0.286753,0.286435,-1.24189,8,0.0175408,10,-0.000355722,-2.90592,-0.0674383,-0.874874,42.1277,0.286435,
2,0,0,1,0,14969.9,0.279264,0.278935,-1.47444,8,0.0174119,10,-0.000411275,-2.83137,-0.125893,-0.468651,26.9508,0.278935,
2,0,0,1,0,14970,0.271776,0.271423,-1.63746,8,0.0172646,10,-0.000444443,-2.78583,-0.182217,-0.32379,20.7364,0.271423,
2,0,0,1,0,14970.1,0.26428,0.263977,-1.78487,8,0.0171031,10,-0.000471165,-2.74839,-0.225327,-0.261841,18.157,0.263977,
2,0,0,1,0,14970.2,0.256786,0.256498,-1.89471,8,0.0169301,10,-0.000485988,-2.72246,-0.272428,-0.216571,15.9822,0.256498,
2,0,0,1,0,14970.3,0.249296,0.248983,-1.99032,8,0.0167471,10,-0.000495554,-2.70108,-0.464628,-0.126983,9.88902,0.248983,
2,0,0,1,0,14970.4,0.241809,0.24151,-2.08522,8,0.0165551,10,-0.000503601,-2.68085,-0.423283,-0.139387,11.3515,0.24151,
2,0,0,1,0,14970.5,0.23432,0.234004,-2.16691,8,0.0163548,10,-0.000507065,-2.66416,-0.384719,-0.153359,13.0262,0.234004,
2,0,0,1,0,14970.6,0.226833,0.22654,-2.25261,8,0.0161465,10,-0.000510308,-2.64731,-0.468658,-0.125891,11.0782,0.22654,
2,0,0,1,0,14970.7,0.219329,0.219054,-2.3481,8,0.0159299,10,-0.000514359,-2.62928,-0.509693,-0.115756,10.5642,0.219054,
2,0,0,1,0,14970.8,0.21184,0.211521,-2.42057,8,0.0157062,10,-0.000512002,-2.61608,-0.449632,-0.131218,12.3922,0.211521,
2,0,0,1,0,14970.9,0.204353,0.204044,-2.50306,8,0.0154746,10,-0.000510735,-2.60153,-0.667358,-0.0884083,8.65866,0.204044,
2,0,0,1,0,14971,0.196863,0.196551,-2.60173,8,0.0152349,10,-0.000511373,-2.58474,-0.481586,-0.122512,12.4041,0.196551,
2,0,0,1,0,14971.1,0.189376,0.189067,-2.69615,8,0.0149864,10,-0.000509753,-2.56926,-0.402754,-0.146492,15.4232,0.189067,
2,0,0,1,0,14971.2,0.18188,0.181571,-2.81093,8,0.0147274,10,-0.000510383,-2.55115,-0.351165,-0.168012,18.4597,0.181571,
2,0,0,1,0,14971.3,0.174385,0.174042,-2.96305,8,0.0144563,10,-0.000515697,-2.52826,-0.306261,-0.192646,22.2414,0.174042,
2,0,0,1,0,14971.3,0.166896,0.166545,-3.15733,8,0.0141699,10,-0.000525837,-2.50068,-0.224054,-0.263329,32.3732,0.166545,
2,0,0,1,0,14971.4,0.159409,0.15909,-3.42569,8,0.013862,10,-0.000544993,-2.46525,-0.186899,-0.315679,42.2312,0.15909,
2,0,0,1,0,14971.5,0.151919,0.151592,-3.8393,8,0.0135227,10,-0.000582005,-2.41575,-0.134752,-0.437842,65.7213,0.151592,
2,0,0,1,0,14971.6,0.144425,0.144109,-4.50183,8,0.0131336,10,-0.000648755,-2.34661,-0.092554,-0.637465,112.181,0.1441094,
2,0,0,1,0,14971.7,0.136929,0.136611,-5.46913,8,0.0126675,10,-0.00074714,-2.26208,-0.0846215,-0.697222,149.025,0.136611,
2,0,0,1,0,14971.8,0.129441,0.129074,-6.63213,8,0.0121005,10,-0.000856034,-2.17835,-0.0982534,-0.600488,155.047,0.129074,
2,0,0,1,0,14971.9,0.121952,0.121621,-7.67938,8,0.0114282,10,-0.000933972,-2.11467,-0.146393,-0.403025,120.409,0.121621,
2,0,0,1,0,14972,0.114465,0.114125,-8.41263,8,0.0106715,10,-0.000960091,-2.07507,-0.249587,-0.236391,77.5692,0.114125,
2,0,0,1,0,14972.1,0.106976,0.10664,-8.83169,8,0.00986058,10,-0.000941811,-2.05396,-0.688643,-0.0856757,29.4924,0.10664,
2,0,0,1,0,14972.2,0.0994721,0.0991264,-8.90337,8,0.00902508,10,-0.000882559,-2.05045,1.99553,0.0295661,-10.2599,0.0991264,
2,0,0,1,0,14972.3,0.0919847,0.0916861,-8.64842,8,0.00820035,10,-0.00079294,-2.06306,0.40481,0.145747,-49.1792,0.0916861,
2,0,0,1,0,14972.4,0.0844973,0.0841701,-8.19705,8,0.00741023,10,-0.000689947,-2.08634,0.294277,0.200492,-64.1645,0.0841701,
2,0,0,1,0,14972.5,0.0770082,0.0766944,-7.77646,8,0.0066631,10,-0.000596411,-2.10922,0.371565,0.158788,-48.1754,0.0766944,
2,0,0,1,0,14972.6,0.0695208,0.0691985,-7.46736,8,0.00594968,10,-0.000516731,-2.12683,0.564322,0.10455,-30.5174,0.0691985,
2,0,0,1,0,14972.7,0.0620245,0.0616956,-7.26681,8,0.00525855,10,-0.00044833,-2.13866,0.57394,0.102798,-29.1461,0.0616956,
2,0,0,1,0,14972.7,0.0545282,0.0542065,-7.08212,8,0.00458575,10,-0.000383897,-2.14984,0.712993,0.0827498,-22.8574,0.0542065,
2,0,0,1,0,14972.8,0.0470408,0.046714,-6.87663,8,0.00393145,10,-0.000321235,-2.16262,0.674446,0.0874791,-23.487,0.046714,
2,0,0,1,0,14972.9,0.0395517,0.0392512,-6.67609,8,0.00329599,10,-0.000262045,-2.17548,0.483763,0.121961,-31.7599,0.0392512,
2,0,0,1,0,14973,0.0320643,0.0317114,-6.43765,8,0.00268152,10,-0.000204147,-2.19127,0.398467,0.148068,-37.1402,0.0317114,
2,0,0,1,0,14973.1,0.0245751,0.0242523,-6.15005,8,0.0020915,10,-0.000149153,-2.21112,0.387624,0.15221,-36.5642,0.0242523,
2,0,0,1,0,14973.2,0.0170735,0.0167214,-5.8717,8,0.00152665,10,-9.81827e-05,-2.23124,0.364141,0.162025,-37.1673,0.0167214,
2,0,0,1,0,14973.3,0.00958429,0.0092756,-5.63966,8,0.000987293,10,-5.23112e-05,-2.24875,0.478739,0.12324,-27.125,0.0092756,
2,0,0,1,0,14973.4,0.0020969,0.00172418,-5.5191,8,0.000467126,10,-9.51591e-06,-2.25813,1.29668,0.0455007,-9.73251,0.001724177,
2,0,0,1,0,14973.4,0.000199195,-0.000216526,-5.46121,8,0.000336872,10,1.18249e-06,-2.26271, , , ,-0.000216526,

File: 20221101_1-115_003_TrumpetPlot_ParaChange_from10_every3_08_CV_C01_8.csv
mode,ox/red,error,control changes,counter inc.,time/s,control/V,Ewe/V,<I>/mA,cycle number,(Q-Qo)/C,I Range,P/W,log(|I|),Tafel slope mV/dec,alpha_eff,dI/d(E-IR),E-IR/V,
2,0,0,0,0,16936.1,2.44065e-05,-0.000229887,-4.03961,9,0.0000000E+000,10,9.28654e-07,-2.39366, , , ,-0.000229887,
2,1,0,1,0,16936.2,0.0072942,0.00699126,1.72169,9,-1.41403e-05,10,1.20368e-05,-2.76405,0.0127535,4.62619,280.055,0.00699126,
2,1,0,1,0,16936.2,0.0147816,0.0144772,2.88747,9,0.000212787,10,4.18026e-05,-2.53948,0.0697664,0.845679,94.4435,0.0144772,
2,1,0,1,0,16936.3,0.0222707,0.0220191,3.3951,9,0.000510112,10,7.4757e-05,-2.46915,0.141252,0.417694,55.3622,0.0220191,
2,1,0,1,0,16936.4,0.0297581,0.0294492,3.78237,9,0.000847507,10,0.000111388,-2.42224,0.186001,0.317203,46.7492,0.0294492,
2,1,0,1,0,16936.5,0.0372544,0.0369282,4.13788,9,0.0012195,10,0.000152804,-2.38322,0.202349,0.291576,47.0267,0.0369282,
2,1,0,1,0,16936.6,0.0447507,0.044443,4.47027,9,0.00162419,10,0.000198672,-2.34967,0.222618,0.265028,46.3074,0.044443,
2,1,0,1,0,16936.7,0.0522381,0.0519279,4.8076,9,0.00206024,10,0.000249649,-2.31807,0.260236,0.226718,42.5631,0.0519279,
2,1,0,1,0,16936.8,0.0597273,0.0594074,5.1298,9,0.00252682,10,0.000304748,-2.2899,0.269637,0.218813,43.7732,0.0594074,
2,1,0,1,0,16936.9,0.0672147,0.0669391,5.42844,9,0.00302198,10,0.000363375,-2.26533,0.313677,0.188091,39.7873,0.0669391,
2,1,0,1,0,16937,0.0747038,0.074423,5.70085,9,0.00354361,10,0.000424275,-2.24406,0.429057,0.137511,30.5405,0.074423,
2,1,0,1,0,16937.1,0.0822055,0.0818821,5.92989,9,0.00408997,10,0.000485552,-2.22695,0.45174,0.130606,30.2028,0.0818821,
2,1,0,1,0,16937.2,0.0896946,0.0893598,6.14659,9,0.00465615,10,0.000549258,-2.21137,0.424821,0.138882,33.3706,0.0893598,
2,1,0,1,0,16937.3,0.097182,0.0968295,6.43186,9,0.00524591,10,0.000622794,-2.19166,0.343201,0.171911,43.1924,0.0968295,
2,1,0,1,0,16937.4,0.104671,0.104326,6.87441,9,0.00586784,10,0.000717182,-2.16276,0.235061,0.250999,67.221,0.104326,
2,1,0,1,0,16937.5,0.112159,0.111851,7.40596,9,0.00653633,10,0.000828365,-2.13042,0.216897,0.272018,78.6246,0.111851,
2,1,0,1,0,16937.6,0.119655,0.119319,7.95549,9,0.00725795,10,0.000949243,-2.09933,0.296161,0.199216,61.7878,0.119319,
2,1,0,1,0,16937.7,0.127149,0.126804,8.36468,9,0.00802488,10,0.00106068,-2.07755,0.450755,0.130891,42.7112,0.126804,
2,1,0,1,0,16937.7,0.134639,0.134314,8.66167,9,0.0088236,10,0.00116339,-2.0624,0.565198,0.104388,35.3159,0.134314,
2,1,0,1,0,16937.8,0.142126,0.141866,8.84051,9,0.00964585,10,0.00125417,-2.05352,3.30673,0.0178424,6.14923,0.141866,
2,1,0,1,0,16937.9,0.149615,0.149288,8.59082,9,0.0104682,10,0.00128251,-2.06597,-0.222107,-0.265638,-88.6447,0.149288,
2,1,0,1,0,16938,0.157103,0.156791,7.48347,9,0.0112275,10,0.00117334,-2.1259,-0.0901651,-0.654355,-190.436,0.156791,
2,1,0,1,0,16938.1,0.164606,0.164284,5.98148,9,0.0118593,10,0.00098266,-2.22319,-0.0747479,-0.78932,-184.658,0.164284,
2,1,0,1,0,16938.2,0.172095,0.171762,4.91387,9,0.0123657,10,0.000844016,-2.30858,-0.105756,-0.557889,-107.244,0.171762,
2,1,0,1,0,16938.3,0.179582,0.179282,4.30547,9,0.0127951,10,0.000771892,-2.36598,-0.170577,-0.345885,-58.2042,0.179282,
2,1,0,1,0,16938.4,0.18707,0.186735,3.9372,9,0.0131808,10,0.000735215,-2.40481,-0.248689,-0.237244,-36.5639,0.186735,
2,1,0,1,0,16938.5,0.194559,0.194298,3.72525,9,0.0135397,10,0.00072381,-2.42884,-0.350172,-0.168488,-24.455,0.194298,
2,1,0,1,0,16938.6,0.202062,0.201768,3.56682,9,0.0138818,10,0.00071967,-2.44772,-0.524554,-0.112476,-15.6224,0.201768,
2,1,0,1,0,16938.7,0.20955,0.209283,3.45224,9,0.0142113,10,0.000722495,-2.4619,-0.504337,-0.116985,-15.798,0.209283,
2,1,0,1,0,16938.8,0.217039,0.216773,3.3726,9,0.014532,10,0.000731087,-2.47204,-0.687787,-0.0857824,-11.3034,0.216773,
2,1,0,1,0,16938.9,0.224526,0.224237,3.319,9,0.0148463,10,0.000744241,-2.47899,-1.15889,-0.0509107,-6.59075,0.224237,
2,1,0,1,0,16939,0.232016,0.231694,3.26863,9,0.0151555,10,0.000757324,-2.48563,-2.01896,-0.029223,-3.72654,0.231694,
2,1,0,1,0,16939.1,0.23951,0.239155,3.22983,9,0.015461,10,0.000772429,-2.49082,-1.47487,-0.0400034,-5.04799,0.239155,
2,1,0,1,0,16939.1,0.247006,0.246686,3.19966,9,0.0157631,10,0.000789313,-2.4949,-1.43965,-0.0409821,-5.10357,0.246686,
2,1,0,1,0,16939.2,0.254494,0.25422,3.16013,9,0.0160618,10,0.000803369,-2.5003,-2.51029,-0.0235032,-2.90084,0.25422,
2,1,0,1,0,16939.3,0.261983,0.26168,3.13623,9,0.0163578,10,0.00082069,-2.50359,-1.01721,-0.0580015,-7.09542,0.26168,
2,1,0,1,0,16939.4,0.26947,0.269164,3.11247,9,0.0166511,10,0.000837764,-2.50689,-14.0194,-0.00420847,-0.510799,0.269164,
2,1,0,1,0,16939.5,0.276959,0.276635,3.07836,9,0.016942,10,0.000851581,-2.51168,-3.67155,-0.0160695,-1.93328,0.276635,
2,1,0,1,0,16939.6,0.284461,0.284176,3.05009,9,0.0172307,10,0.000866764,-2.51569,-1.6626,-0.0354865,-4.22527,0.2841762,
2,1,0,1,0,16939.7,0.29195,0.291645,3.0255,9,0.017516,10,0.000882372,-2.5192,-1.77575,-0.0332253,-3.91841,0.2916452,
2,1,0,1,0,16939.8,0.299438,0.2991,2.98329,9,0.0177986,10,0.000892301,-2.5253,-0.0230427,-2.56046,-267.692,0.2991,
2,0,0,1,0,16939.9,0.29424,0.29393,-0.765609,9,0.0178393,10,-0.000225035,-3.11599,-0.00903044,-6.53346,157.101,0.29393,
2,0,0,1,0,16940,0.286753,0.286433,-1.30202,9,0.0177361,10,-0.000372942,-2.88538,-0.0713709,-0.826668,41.8777,0.286433,
2,0,0,1,0,16940.1,0.279264,0.278939,-1.53341,9,0.0176014,10,-0.000427729,-2.81434,-0.141438,-0.417143,25.0368,0.278939,
2,0,0,1,0,16940.2,0.271776,0.271447,-1.7036,9,0.0174486,10,-0.000462436,-2.76863,-0.194056,-0.304036,20.1764,0.271447,
2,0,0,1,0,16940.3,0.26428,0.263929,-1.84032,9,0.0172817,10,-0.000485712,-2.73511,-0.217442,-0.271337,19.4163,0.263929,
2,0,0,1,0,16940.4,0.256786,0.256483,-1.94611,9,0.0171033,10,-0.000499144,-2.71083,-0.316025,-0.186694,14.1601,0.256483,
2,0,0,1,0,16940.4,0.249296,0.248995,-2.05397,9,0.0169152,10,-0.000511427,-2.68741,-0.529817,-0.111359,8.90435,0.2489949,
2,0,0,1,0,16940.5,0.241809,0.241518,-2.13953,9,0.0167181,10,-0.000516734,-2.66968,-0.419286,-0.140715,11.7594,0.241518,
2,0,0,1,0,16940.6,0.23432,0.234007,-2.22245,9,0.0165128,10,-0.000520069,-2.65317,-0.418643,-0.140932,12.2596,0.234007,
2,0,0,1,0,16940.7,0.226833,0.226527,-2.31188,9,0.0162996,10,-0.000523704,-2.63603,-0.453945,-0.129972,11.7078,0.226527,
2,0,0,1,0,16940.8,0.219329,0.218994,-2.39409,9,0.0160784,10,-0.000524293,-2.62086,-0.434838,-0.135683,12.6475,0.218994,
2,0,0,1,0,16940.9,0.21184,0.211521,-2.46628,9,0.01585,10,-0.000521671,-2.60796,-0.522542,-0.11291,10.8736,0.211521,
2,0,0,1,0,16941,0.204353,0.203972,-2.55896,9,0.0156138,10,-0.000521956,-2.59194,-0.971958,-0.0607022,6.05732,0.203972,
2,0,0,1,0,16941.1,0.196863,0.196547,-2.64827,9,0.0153696,10,-0.000520509,-2.57704,-0.424544,-0.138973,14.3521,0.196547,
2,0,0,1,0,16941.2,0.189376,0.18908,-2.73939,9,0.0151165,10,-0.000517963,-2.56235,-0.428798,-0.137594,14.7554,0.18908,
2,0,0,1,0,16941.3,0.18188,0.181598,-2.85938,9,0.0148532,10,-0.000519259,-2.54373,-0.382858,-0.154104,17.2039,0.1815985,
2,0,0,1,0,16941.4,0.174385,0.174026,-3.00667,9,0.0145777,10,-0.000523238,-2.52191,-0.30175,-0.195526,22.946,0.174026,
2,0,0,1,0,16941.5,0.166896,0.16658,-3.19882,9,0.014287,10,-0.000532859,-2.49501,-0.239719,-0.246122,30.7072,0.16658,
2,0,0,1,0,16941.6,0.159409,0.159049,-3.4668,9,0.0139749,10,-0.000551389,-2.46007,-0.190365,-0.30993,41.9723,0.159049,
2,0,0,1,0,16941.7,0.151919,0.15153,-3.88561,9,0.0136313,10,-0.000588785,-2.41054,-0.135043,-0.436898,66.3896,0.15153,
2,0,0,1,0,16941.8,0.144425,0.144153,-4.54494,9,0.0132378,10,-0.00065517,-2.34247,-0.0930123,-0.634325,112.877,0.144153,
2,0,0,1,0,16941.8,0.136929,0.136618,-5.5215,9,0.0127668,10,-0.000754337,-2.25794,-0.0858616,-0.687152,148.373,0.136618,
2,0,0,1,0,16941.9,0.129441,0.129147,-6.69603,9,0.0121944,10,-0.000864775,-2.17418,-0.0990178,-0.595853,155.347,0.129147,
2,0,0,1,0,16942,0.121952,0.121671,-7.74682,9,0.0115158,10,-0.00094256,-2.11088,-0.144445,-0.408461,123.178,0.121671,
2,0,0,1,0,16942.1,0.114465,0.114157,-8.49866,9,0.0107518,10,-0.000970178,-2.07065,-0.25628,-0.230217,76.31,0.114157,
2,0,0,1,0,16942.2,0.106976,0.106671,-8.92927,9,0.00993247,10,-0.000952494,-2.04918,-0.710836,-0.0830008,28.8759,0.106671,
2,0,0,1,0,16942.3,0.0994721,0.0991462,-8.99749,9,0.00908782,10,-0.000892067,-2.04588,2.04377,0.0288682,-10.1299,0.0991462,
2,0,0,1,0,16942.4,0.0919847,0.0916851,-8.7336,9,0.00825417,10,-0.000800741,-2.05881,0.396928,0.148641,-50.6802,0.0916851,
2,0,0,1,0,16942.5,0.0844974,0.0841357,-8.28349,9,0.00745585,10,-0.000696937,-2.08179,0.29508,0.199946,-64.603,0.0841357,
2,0,0,1,0,16942.6,0.0770082,0.0767043,-7.85192,9,0.00670128,10,-0.000602276,-2.10502,0.368273,0.160207,-49.0941,0.0767043,
2,0,0,1,0,16942.7,0.0695208,0.0692214,-7.54326,9,0.00598093,10,-0.000522155,-2.12244,0.528097,0.111722,-32.9329,0.06922137,
2,0,0,1,0,16942.8,0.0620245,0.0616854,-7.33369,9,0.00528315,10,-0.000452382,-2.13468,0.576696,0.102307,-29.3004,0.0616854,
2,0,0,1,0,16942.9,0.0545282,0.0541829,-7.14059,9,0.00460421,10,-0.000386898,-2.14627,0.788556,0.0748203,-20.8551,0.0541829,
2,0,0,1,0,16943,0.0470408,0.0467501,-6.93775,9,0.00394431,10,-0.000324341,-2.15878,0.583948,0.101036,-27.3382,0.0467501,
2,0,0,1,0,16943.1,0.0395517,0.0392348,-6.7246,9,0.00330411,10,-0.000263839,-2.17233,0.480386,0.122818,-32.199,0.0392348,
2,0,0,1,0,16943.2,0.0320643,0.0317216,-6.47159,9,0.00268575,10,-0.000205289,-2.18899,0.418629,0.140936,-35.5649,0.0317216,
2,0,0,1,0,16943.3,0.0245751,0.0242441,-6.17592,9,0.00209276,10,-0.00014973,-2.2093,0.356365,0.165561,-39.9378,0.0242441,
2,0,0,1,0,16943.3,0.0170735,0.0167268,-5.89205,9,0.00152583,10,-9.85553e-05,-2.22973,0.360102,0.163843,-37.7031,0.01672681,
2,0,0,1,0,16943.4,0.00958429,0.00927696,-5.65956,9,0.000984904,10,-5.25035e-05,-2.24722,0.483445,0.122041,-26.9381,0.009276961,
2,0,0,1,0,16943.5,0.0020969,0.001716,-5.53224,9,0.000463352,10,-9.49331e-06,-2.2571,1.68451,0.035025,-7.51167,0.001715997,
2,0,0,1,0,16943.6,0.000199195,-0.000166899,-5.48054,9,0.000332674,10,9.14696e-07,-2.26118, , , ,-0.000166899,