Folder: Figs_alphaMnO2_OER_Tafel_sleope/Figure_codes/Fig_3-5/rawdata_trumpetplot_data/after 10th (part 16)

File: 20221101_1-115_003_TrumpetPlot_ParaChange_from10_every3_02_CV_C01_31.csv
mode,ox/red,error,control changes,counter inc.,time/s,control/V,Ewe/V,<I>/mA,cycle number,(Q-Qo)/C,I Range,P/W,log(|I|),Tafel slope mV/dec,alpha_eff,dI/d(E-IR),E-IR/V,
2,0,0,1,0,61414.1,2.44065e-05,-0.000325324,-0.393877,32,0.0000000E+000,10,1.28137e-07,-3.40464, , , ,-0.000325324,
2,0,0,1,0,61421.3,0.00729061,0.00701905,-0.0949947,32,-0.000983559,10,-6.66773e-07,-4.0223,-0.0293455,-2.01053,7.59542,0.00701905,
2,0,0,1,0,61428.8,0.0147815,0.0144185,-0.058129,32,-0.00147567,10,-8.38131e-07,-4.23561,-0.0413485,-1.4269,3.26303,0.0144185,
2,0,0,1,0,61436.3,0.0222725,0.0219029,-0.03759,32,-0.0017664,10,-8.2333e-07,-4.42493,-0.0362666,-1.62684,2.38416,0.0219029,
2,0,0,1,0,61443.8,0.0297635,0.0293915,-0.0221134,32,-0.00192493,10,-6.49945e-07,-4.65535,-0.0291896,-2.02127,1.74488,0.0293915,
2,0,0,1,0,61451.3,0.0372544,0.036914,-0.00978598,32,-0.00197975,10,-3.61239e-07,-5.0094,-0.0120907,-4.87977,1.72493,0.036914,
2,1,0,1,0,61458.8,0.0447454,0.044392,0.00182596,32,-0.00194333,10,8.10579e-08,-5.73851,0.00831777,7.09325,1.25673,0.044392,
2,1,0,1,0,61466.3,0.0522363,0.0519156,0.0114843,32,-0.00182822,10,5.96212e-07,-4.9399,0.0162882,3.62226,1.55767,0.0519156,
2,1,0,1,0,61473.8,0.0597273,0.0593692,0.020138,32,-0.0016399,10,1.19558e-06,-4.69598,0.0413025,1.42848,1.12931,0.0593692,
2,1,0,1,0,61481.3,0.0672183,0.0668515,0.028447,32,-0.00139077,10,1.90173e-06,-4.54596,0.0518369,1.13819,1.23563,0.0668515,
2,1,0,1,0,61488.8,0.0747092,0.0743984,0.0349677,32,-0.0010821,10,2.60154e-06,-4.45633,0.119651,0.493103,0.684464,0.0743984,
2,1,0,1,0,61496.2,0.0822001,0.0818636,0.0420572,32,-0.000722329,10,3.44295e-06,-4.37616,0.0897788,0.657171,1.10333,0.08186356,
2,1,0,1,0,61503.7,0.0896911,0.0893353,0.0507634,32,-0.000303209,10,4.53496e-06,-4.29445,0.0959194,0.6151,1.22254,0.08933527,
2,1,0,1,0,61511.2,0.0971821,0.0968567,0.0604215,32,0.000181562,10,5.85223e-06,-4.21881,0.0818857,0.720516,1.69404,0.0968567,
2,1,0,1,0,61518.7,0.104673,0.104378,0.0713528,32,0.000743869,10,7.44768e-06,-4.14659,0.130234,0.453031,1.24393,0.104378,
2,1,0,1,0,61526.2,0.112164,0.111835,0.0796901,32,0.00137885,10,8.91213e-06,-4.0986,0.253623,0.232629,0.717903,0.111835,
2,1,0,1,0,61533.7,0.119655,0.119313,0.0868838,32,0.00207508,10,1.03664e-05,-4.06106,0.267518,0.220546,0.749742,0.119313,
2,1,0,1,0,61541.2,0.127146,0.126787,0.0914669,32,0.00281893,10,1.15968e-05,-4.03874,0.564282,0.104558,0.374409,0.126787,
2,1,0,1,0,61548.7,0.134637,0.134319,0.0889715,32,0.00357676,10,1.19505e-05,-4.05075,-0.17219,-0.342646,-1.19182,0.134319,
2,1,0,1,0,61556.2,0.142128,0.141764,0.0751038,32,0.00426513,10,1.0647e-05,-4.12434,-0.0740917,-0.796311,-2.31594,0.141764,
2,1,0,1,0,61563.7,0.149619,0.149285,0.0589286,32,0.00482941,10,8.79718e-06,-4.22967,-0.0886373,-0.665634,-1.54531,0.149285,
2,1,0,1,0,61571.2,0.15711,0.156788,0.0525156,32,0.00530921,10,8.23379e-06,-4.27971,-0.22653,-0.260451,-0.536518,0.156788,
2,1,0,1,0,61578.6,0.164601,0.164251,0.0506588,32,0.00575782,10,8.32075e-06,-4.29534,-0.729438,-0.0808842,-0.159018,0.164251,
2,1,0,1,0,61586.1,0.172091,0.171727,0.0505543,32,0.00619757,10,8.68152e-06,-4.29624,2.0444,0.0288594,0.0570385,0.171727,
2,1,0,1,0,61593.6,0.179582,0.179239,0.0510254,32,0.0066387,10,9.14573e-06,-4.29221,1.30484,0.0452164,0.089813,0.179239,
2,1,0,1,0,61601.1,0.187073,0.186696,0.0517437,32,0.00708366,10,9.66036e-06,-4.28614,2.0947,0.0281663,0.0568987,0.1866965,
2,1,0,1,0,61608.6,0.194564,0.194199,0.0524822,32,0.00753334,10,1.0192e-05,-4.27999,1.47728,0.0399381,0.0817405,0.194199,
2,1,0,1,0,61616.1,0.202055,0.201696,0.0533367,32,0.00798827,10,1.07578e-05,-4.27297,1.13475,0.0519937,0.108104,0.201696,
2,1,0,1,0,61623.6,0.209546,0.209201,0.053661,32,0.00844868,10,1.1226e-05,-4.27034,-6.82728,-0.00864181,-0.0181034,0.209201,
2,1,0,1,0,61631.1,0.217037,0.216666,0.0549134,32,0.00891419,10,1.18978e-05,-4.26032,1.91803,0.0307607,0.0660404,0.216666,
2,1,0,1,0,61638.6,0.224528,0.224211,0.055443,32,0.00938555,10,1.24309e-05,-4.25615,0.819005,0.0720387,0.155854,0.224211,
2,1,0,1,0,61646.1,0.232019,0.231683,0.056641,32,0.00986398,10,1.31228e-05,-4.24687,-2.16252,-0.0272829,-0.0602124,0.231683,
2,1,0,1,0,61653.6,0.23951,0.239123,0.0572508,32,0.0103458,10,1.369e-05,-4.24222,0.608864,0.0969018,0.215546,0.239123,
2,1,0,1,0,61661,0.247001,0.246644,0.0588135,32,0.010836,10,1.4506e-05,-4.23052,1.21841,0.0484236,0.110521,0.246644,
2,1,0,1,0,61668.5,0.254492,0.254169,0.0596577,32,0.0113336,10,1.51631e-05,-4.22433,1.1471,0.051434,0.119632,0.254169,
2,1,0,1,0,61676,0.261983,0.261658,0.0606893,32,0.0118395,10,1.58798e-05,-4.21689,1.25893,0.0468651,0.110942,0.2616576,
2,1,0,1,0,61683.5,0.269474,0.269107,0.061624,32,0.0123523,10,1.65835e-05,-4.21025,0.63115,0.0934801,0.224842,0.269107,
2,1,0,1,0,61691,0.276965,0.276638,0.062416,32,0.0128714,10,1.72666e-05,-4.2047,28.3708,0.0020796,0.00507791,0.276638,
2,1,0,1,0,61698.5,0.284456,0.284166,0.0635573,32,0.0133956,10,1.80608e-05,-4.19683,1.10397,0.0534437,0.132324,0.284166,
2,1,0,1,0,61706,0.291947,0.291606,0.0641231,32,0.0139278,10,1.86987e-05,-4.19299,-3.15813,-0.0186819,-0.0469734,0.291606,
2,1,0,1,0,61713.5,0.299438,0.299125,0.0644086,32,0.0144624,10,1.92662e-05,-4.19106,-0.00414347,-14.2393,-22.6675,0.2991249,
2,1,0,1,0,61720.3,0.293745,0.293402,0.0068509,32,0.0145561,10,2.01007e-06,-5.16425,0.00979087,6.02602,1.66468,0.293402,
2,1,0,1,0,61727.8,0.286254,0.285883,-0.00120154,32,0.0145235,10,-3.43499e-07,-5.92026,-0.00484461,-12.1785,0.801976,0.285883,
2,1,0,1,0,61735.3,0.278763,0.278438,-0.00707471,32,0.0144396,10,-1.96987e-06,-5.15029,-0.0231645,-2.547,0.673347,0.278438,
2,0,0,1,0,61742.8,0.271272,0.270925,-0.0116534,32,0.0143181,10,-3.15721e-06,-4.93355,-0.0389484,-1.51483,0.692783,0.270925,
2,0,0,1,0,61750.3,0.263781,0.263459,-0.0149511,32,0.0141622,10,-3.93899e-06,-4.82533,-0.0785884,-0.750747,0.457214,0.263459,
2,0,0,1,0,61757.8,0.25629,0.255961,-0.0192154,32,0.0139803,10,-4.91839e-06,-4.71635,-0.0872734,-0.676036,0.492665,0.255961,
2,0,0,1,0,61765.3,0.248799,0.248479,-0.022126,32,0.013773,10,-5.49783e-06,-4.6551,-0.0958737,-0.615393,0.536946,0.248479,
2,0,0,1,0,61772.8,0.241308,0.240956,-0.0249283,32,0.0135407,10,-6.00665e-06,-4.60331,-0.130157,-0.453297,0.440575,0.240956,
2,0,0,1,0,61780.3,0.233817,0.233473,-0.0277845,32,0.013288,10,-6.48692e-06,-4.5562,-0.116896,-0.504722,0.541186,0.233473,
2,0,0,1,0,61787.7,0.226326,0.22599,-0.0305961,32,0.0130134,10,-6.9144e-06,-4.51433,-0.211277,-0.279254,0.334275,0.22599,
2,0,0,1,0,61795.2,0.218835,0.218471,-0.0337013,32,0.0127165,10,-7.36278e-06,-4.47235,-0.190034,-0.31047,0.405103,0.218471,
2,0,0,1,0,61802.7,0.211344,0.210989,-0.0362304,32,0.0123966,10,-7.64423e-06,-4.44093,-0.292143,-0.201956,0.285747,0.2109894,
2,0,0,1,0,61810.2,0.203853,0.203456,-0.0385948,32,0.0120577,10,-7.85235e-06,-4.41347,-0.164454,-0.358763,0.545874,0.203456,
2,0,0,1,0,61817.7,0.196362,0.196008,-0.0424893,32,0.0116948,10,-8.32824e-06,-4.37172,-0.287183,-0.205444,0.336121,0.196008,
2,0,0,1,0,61825.2,0.188871,0.188514,-0.0445782,32,0.0113098,10,-8.40361e-06,-4.35088,-0.256514,-0.230007,0.399631,0.188514,
2,0,0,1,0,61832.7,0.18138,0.181022,-0.0485834,32,0.0109004,10,-8.79468e-06,-4.31351,-0.228192,-0.258554,0.488533,0.181022,
2,0,0,1,0,61840.2,0.173889,0.173503,-0.05177,32,0.0104645,10,-8.98224e-06,-4.28592,-0.254016,-0.232269,0.466134,0.173503,
2,0,0,1,0,61847.7,0.166398,0.16601,-0.0560168,32,0.00999903,10,-9.29934e-06,-4.25168,-0.237129,-0.24881,0.548318,0.16601,
2,0,0,1,0,61855.2,0.158907,0.158549,-0.0615092,32,0.00949428,10,-9.75223e-06,-4.21106,-0.171019,-0.344991,0.834269,0.158549,
2,0,0,1,0,61862.7,0.151417,0.151069,-0.0697655,32,0.00893673,10,-1.05394e-05,-4.15636,-0.150171,-0.392886,1.07548,0.1510689,
2,0,0,1,0,61870.1,0.143926,0.143603,-0.0812358,32,0.00830721,10,-1.16657e-05,-4.09025,-0.0889582,-0.663233,2.10373,0.143603,
2,0,0,1,0,61877.6,0.136435,0.136056,-0.0990783,32,0.00756553,10,-1.34802e-05,-4.00402,-0.0807912,-0.730278,2.81431,0.136056,
2,0,0,1,0,61885.1,0.128944,0.128556,-0.1194,32,0.00667409,10,-1.53496e-05,-3.923,-0.118964,-0.495947,2.30068,0.1285564,
2,0,0,1,0,61892.6,0.121453,0.12105,-0.132553,32,0.00565279,10,-1.60455e-05,-3.87761,-0.322859,-0.182742,0.941385,0.12105,
2,0,0,1,0,61900.1,0.113962,0.113556,-0.135484,32,0.00457171,10,-1.5385e-05,-3.86811,-2.55301,-0.02311,0.122922,0.113556,
2,0,0,1,0,61907.6,0.106471,0.106101,-0.136775,32,0.00347659,10,-1.4512e-05,-3.86399,-6.12404,-0.00963417,0.0515362,0.106101,
2,0,0,1,0,61915.1,0.0989798,0.0986169,-0.135798,32,0.00238188,10,-1.3392e-05,-3.86711,1.79945,0.0327877,-0.173862,0.0986169,
2,0,0,1,0,61922.6,0.0914889,0.0911305,-0.133872,32,0.00130098,10,-1.21999e-05,-3.87331,0.62075,0.0950463,-0.494813,0.0911305,
2,0,0,1,0,61930.1,0.083998,0.0835974,-0.129689,32,0.000245634,10,-1.08416e-05,-3.8871,0.410082,0.143874,-0.726247,0.0835974,
2,0,0,1,0,61937.6,0.076507,0.0761268,-0.125495,32,-0.000780294,10,-9.55356e-06,-3.90137,0.42004,0.140463,-0.68624,0.0761268,
2,0,0,1,0,61945.1,0.069016,0.0686286,-0.121834,32,-0.00177612,10,-8.36131e-06,-3.91423,0.5211,0.113222,-0.538991,0.0686286,
2,0,0,1,0,61952.5,0.0615251,0.0611836,-0.11872,32,-0.00274865,10,-7.26373e-06,-3.92548,0.682408,0.0864585,-0.401521,0.0611836,
2,0,0,1,0,61960,0.0540342,0.0537046,-0.115552,32,-0.00369669,10,-6.20569e-06,-3.93722,0.851965,0.0692517,-0.313236,0.0537046,
2,0,0,1,0,61967.5,0.0465432,0.0461926,-0.112933,32,-0.00462334,10,-5.21667e-06,-3.94718,0.906717,0.0650699,-0.286664,0.0461926,
2,0,0,1,0,61975,0.0390522,0.0386934,-0.1106,32,-0.00552821,10,-4.27949e-06,-3.95624,1.03418,0.05705,-0.245017,0.0386934,
2,0,0,1,0,61982.5,0.0315613,0.0311773,-0.107846,32,-0.0064137,10,-3.36234e-06,-3.9672,0.710122,0.0830844,-0.349848,0.0311773,
2,0,0,1,0,61990,0.0240703,0.0237226,-0.10609,32,-0.00728128,10,-2.51673e-06,-3.97433,1.31288,0.0449395,-0.186185,0.0237226,
2,0,0,1,0,61997.5,0.0165794,0.0162287,-0.105918,32,-0.00813982,10,-1.71891e-06,-3.97503,-2.55279,-0.023112,0.0950101,0.0162287,
2,0,0,1,0,62005,0.00908843,0.00870612,-0.106179,32,-0.00899914,10,-9.24412e-07,-3.97396,-1.39113,-0.0424115,0.176256,0.00870612,
2,0,0,1,0,62012.5,0.00159744,0.00116447,-0.110225,32,-0.00987409,10,-1.28354e-07,-3.95772, , , ,0.00116447,
2,0,0,1,0,62013.9,0.000199235,-0.000151627,-0.110632,32,-0.0100402,10,1.67749e-08,-3.95612, , , ,-0.000151627,

File: 20221101_1-115_003_TrumpetPlot_ParaChange_from10_every3_02_CV_C01_32.csv
mode,ox/red,error,control changes,counter inc.,time/s,control/V,Ewe/V,<I>/mA,cycle number,(Q-Qo)/C,I Range,P/W,log(|I|),Tafel slope mV/dec,alpha_eff,dI/d(E-IR),E-IR/V,
2,0,0,1,0,63384.2,2.44065e-05,-0.000439847,-0.393877,33,0.0000000E+000,10,1.73246e-07,-3.40464, , , ,-0.000439847,
2,0,0,1,0,63391.5,0.00729061,0.00692784,-0.0952409,33,-0.00097495,10,-6.59813e-07,-4.02118,-0.0296875,-1.98737,7.50902,0.00692784,
2,0,0,1,0,63399,0.0147815,0.0144058,-0.0592997,33,-0.00146557,10,-8.54257e-07,-4.22695,-0.0414812,-1.42233,3.29245,0.0144058,
2,0,0,1,0,63406.5,0.0222725,0.0219071,-0.037688,33,-0.00175577,10,-8.25636e-07,-4.4238,-0.0405251,-1.45589,2.1735,0.0219071,
2,0,0,1,0,63413.9,0.0297635,0.0294615,-0.0229444,33,-0.00191435,10,-6.75976e-07,-4.63932,-0.0271613,-2.17221,1.92808,0.0294615,
2,0,0,1,0,63421.4,0.0372544,0.0369013,-0.00961922,33,-0.00196488,10,-3.54962e-07,-5.01686,-0.0148239,-3.98007,1.47503,0.0369013,
2,0,0,1,0,63428.9,0.0447454,0.0444642,0.000269823,33,-0.00192641,10,1.19975e-08,-6.56892,0.013959,4.22668,1.30799,0.0444642,
2,1,0,1,0,63436.4,0.0522363,0.051906,0.0105324,33,-0.0018098,10,5.46694e-07,-4.97747,0.0179021,3.29571,1.30841,0.051906,
2,1,0,1,0,63443.9,0.0597273,0.0593777,0.0198002,33,-0.00162401,10,1.17569e-06,-4.70333,0.0384125,1.53596,1.14919,0.0593777,
2,1,0,1,0,63451.4,0.0672183,0.0669215,0.0276711,33,-0.00137211,10,1.85179e-06,-4.55797,0.0650833,0.906531,0.972967,0.0669215,
2,1,0,1,0,63458.9,0.0747092,0.0743867,0.034969,33,-0.00106226,10,2.60123e-06,-4.45632,0.0841791,0.700887,0.963454,0.0743867,
2,1,0,1,0,63466.4,0.0822001,0.0818731,0.042394,33,-0.000696619,10,3.47093e-06,-4.3727,0.100242,0.588573,0.975111,0.0818731,
2,1,0,1,0,63473.9,0.0896911,0.0893915,0.0506382,33,-0.00027425,10,4.52662e-06,-4.29552,0.0851421,0.692959,1.37927,0.08939147,
2,1,0,1,0,63481.4,0.0971821,0.0968165,0.0598893,33,0.000216185,10,5.79827e-06,-4.22265,0.0983381,0.599971,1.40219,0.0968165,
2,1,0,1,0,63488.9,0.104673,0.104349,0.0701707,33,0.000777002,10,7.32228e-06,-4.15384,0.121804,0.484386,1.31141,0.1043495,
2,1,0,1,0,63496.3,0.112164,0.111782,0.0788715,33,0.00140958,10,8.81641e-06,-4.10308,0.217896,0.270772,0.827259,0.111782,
2,1,0,1,0,63503.8,0.119655,0.119286,0.086338,33,0.00210546,10,1.0299e-05,-4.0638,0.234692,0.251393,0.847763,0.1192864,
2,1,0,1,0,63511.3,0.127146,0.126799,0.0906032,33,0.00285101,10,1.14884e-05,-4.04286,1.75361,0.0336449,0.119435,0.126799,
2,1,0,1,0,63518.8,0.134637,0.134306,0.0877435,33,0.00360517,10,1.17845e-05,-4.05679,-0.170073,-0.34691,-1.18919,0.134306,
2,1,0,1,0,63526.3,0.142128,0.14181,0.0731711,33,0.00428771,10,1.03764e-05,-4.13566,-0.072639,-0.812236,-2.31477,0.1418104,
2,1,0,1,0,63533.8,0.149619,0.149272,0.0580459,33,0.00484687,10,8.66461e-06,-4.23623,-0.105734,-0.558006,-1.28448,0.149272,
2,1,0,1,0,63541.3,0.15711,0.156731,0.0518858,33,0.0053264,10,8.13214e-06,-4.28495,-0.187109,-0.315324,-0.64163,0.1567315,
2,1,0,1,0,63548.8,0.164601,0.164252,0.0501791,33,0.00577383,10,8.24201e-06,-4.29948,0.92551,0.0637487,0.124552,0.164252,
2,1,0,1,0,63556.3,0.172091,0.171718,0.0496868,33,0.00621416,10,8.53213e-06,-4.30376,-2.58827,-0.0227952,-0.0445477,0.171718,
2,1,0,1,0,63563.8,0.179582,0.179251,0.0507029,33,0.00665694,10,9.08856e-06,-4.29497,4.29817,0.0137268,0.0271809,0.179251,
2,1,0,1,0,63571.3,0.187073,0.186703,0.0512904,33,0.00710417,10,9.57606e-06,-4.28996,1.75372,0.0336428,0.0675016,0.186703,
2,1,0,1,0,63578.7,0.194564,0.194183,0.0517875,33,0.00755516,10,1.00562e-05,-4.28578,0.650457,0.0907055,0.184506,0.194183,
2,1,0,1,0,63586.2,0.202055,0.201699,0.0534534,33,0.00801285,10,1.07815e-05,-4.27203,4.13641,0.0142636,0.0295309,0.201699,
2,1,0,1,0,63593.7,0.209546,0.209221,0.0542418,33,0.00847791,10,1.13485e-05,-4.26567,5.145,0.0114674,0.0242178,0.2092205,
2,1,0,1,0,63601.2,0.217037,0.216688,0.054535,33,0.0089482,10,1.18171e-05,-4.26332,1.16429,0.0506748,0.109228,0.216688,
2,1,0,1,0,63608.7,0.224528,0.224165,0.05618,33,0.00942456,10,1.25936e-05,-4.25042,0.344488,0.171268,0.372871,0.224165,
2,1,0,1,0,63616.2,0.232019,0.231677,0.0567991,33,0.00990903,10,1.3159e-05,-4.24566,0.983736,0.0599754,0.133603,0.231677,
2,1,0,1,0,63623.7,0.23951,0.239146,0.0581636,33,0.0103993,10,1.39096e-05,-4.23535,3.81916,0.0154484,0.0348821,0.239146,
2,1,0,1,0,63631.2,0.247001,0.246684,0.058886,33,0.0108952,10,1.45262e-05,-4.22999,0.876124,0.0673421,0.153422,0.2466836,
2,1,0,1,0,63638.7,0.254492,0.254153,0.0599747,33,0.0113959,10,1.52428e-05,-4.22203,0.761247,0.0775044,0.180694,0.254153,
2,1,0,1,0,63646.2,0.261983,0.261671,0.060701,33,0.0119051,10,1.58837e-05,-4.2168,2.65497,0.0222224,0.0525851,0.261671,
2,1,0,1,0,63653.7,0.269474,0.269128,0.0609009,33,0.0124197,10,1.63901e-05,-4.21538,0.966714,0.0610315,0.146469,0.2691282,
2,1,0,1,0,63661.1,0.276965,0.276632,0.0620534,33,0.01294,10,1.71659e-05,-4.20723,1.10802,0.0532482,0.129795,0.276632,
2,1,0,1,0,63668.6,0.284456,0.284139,0.0635266,33,0.0134684,10,1.80504e-05,-4.19704,-5.35102,-0.0110259,-0.0274467,0.284139,
2,1,0,1,0,63676.1,0.291947,0.291604,0.0640431,33,0.0140029,10,1.86752e-05,-4.19353,5.98438,0.009859,0.0248376,0.291604,
2,1,0,1,0,63683.6,0.299438,0.299115,0.0648582,33,0.0145428,10,1.94001e-05,-4.18804,-0.00422553,-13.9628,-22.5053,0.299115,
2,1,0,1,0,63690.5,0.293745,0.293374,0.00794119,33,0.0146399,10,2.32974e-06,-5.10011,0.0128971,4.57469,1.4782,0.293374,
2,1,0,1,0,63697.9,0.286254,0.285901,-0.000782752,33,0.0146116,10,-2.23789e-07,-6.10638,-0.017387,-3.39334,1.10434,0.285901,
2,1,0,1,0,63705.4,0.278763,0.27843,-0.00693549,33,0.0145275,10,-1.93105e-06,-5.15892,-0.0233657,-2.52507,0.647081,0.2784301,
2,0,0,1,0,63712.9,0.271272,0.27093,-0.0115672,33,0.0144042,10,-3.13389e-06,-4.93677,-0.0390288,-1.51171,0.668598,0.27093,
2,0,0,1,0,63720.4,0.263781,0.263428,-0.0149046,33,0.0142489,10,-3.92629e-06,-4.82668,-0.0790927,-0.74596,0.43924,0.263428,
2,0,0,1,0,63727.9,0.25629,0.255932,-0.0183737,33,0.0140674,10,-4.70244e-06,-4.7358,-0.10242,-0.576059,0.418569,0.255932,
2,0,0,1,0,63735.4,0.248799,0.24843,-0.0218551,33,0.013859,10,-5.42945e-06,-4.66045,-0.134374,-0.439072,0.369528,0.24843,
2,0,0,1,0,63742.9,0.241308,0.240984,-0.0246345,33,0.013627,10,-5.93651e-06,-4.60846,-0.243824,-0.241978,0.23111,0.240984,
2,0,0,1,0,63750.4,0.233817,0.233443,-0.0272798,33,0.0133742,10,-6.36829e-06,-4.56416,-0.218207,-0.270386,0.288091,0.233443,
2,0,0,1,0,63757.9,0.226326,0.226031,-0.0301618,33,0.013099,10,-6.8175e-06,-4.52054,-0.25447,-0.231854,0.272755,0.226031,
2,0,0,1,0,63765.4,0.218835,0.218479,-0.0329962,33,0.0128036,10,-7.20898e-06,-4.48154,-0.176302,-0.334652,0.427091,0.218479,
2,0,0,1,0,63772.9,0.211344,0.210984,-0.0350849,33,0.0124874,10,-7.40236e-06,-4.45488,-0.312904,-0.188556,0.259014,0.210984,
2,0,0,1,0,63780.3,0.203853,0.203486,-0.0378137,33,0.0121521,10,-7.69456e-06,-4.42235,-0.278252,-0.212038,0.31215,0.203486,
2,0,0,1,0,63787.8,0.196362,0.196039,-0.041092,33,0.0117942,10,-8.05562e-06,-4.38624,-0.254362,-0.231953,0.370136,0.1960386,
2,0,0,1,0,63795.3,0.188871,0.188548,-0.0438472,33,0.0114142,10,-8.26729e-06,-4.35806,-0.240055,-0.245777,0.419718,0.188548,
2,0,0,1,0,63802.8,0.18138,0.181062,-0.0470913,33,0.0110095,10,-8.52647e-06,-4.32706,-0.288494,-0.204511,0.375179,0.181062,
2,0,0,1,0,63810.3,0.173889,0.173498,-0.0507844,33,0.0105801,10,-8.81097e-06,-4.29427,-0.184404,-0.31995,0.630016,0.1734976,
2,0,0,1,0,63817.8,0.166398,0.16606,-0.0547584,33,0.0101176,10,-9.09318e-06,-4.26155,-0.182297,-0.323647,0.698801,0.16606,
2,0,0,1,0,63825.3,0.158907,0.158562,-0.0605512,33,0.00961479,10,-9.60109e-06,-4.21788,-0.156394,-0.377253,0.903458,0.158562,
2,0,0,1,0,63832.8,0.151417,0.15103,-0.0684564,33,0.00905996,10,-1.03389e-05,-4.16459,-0.115219,-0.51207,1.37385,0.15103,
2,0,0,1,0,63840.3,0.143926,0.143556,-0.0799084,33,0.00843307,10,-1.14713e-05,-4.09741,-0.0833935,-0.707489,2.21207,0.143556,
2,0,0,1,0,63847.8,0.136435,0.136075,-0.09832,33,0.00769428,10,-1.33789e-05,-4.00736,-0.076116,-0.775133,2.96387,0.136075,
2,0,0,1,0,63855.3,0.128944,0.128599,-0.118752,33,0.00680326,10,-1.52714e-05,-3.92536,-0.118463,-0.498045,2.2989,0.128599,
2,0,0,1,0,63862.8,0.121453,0.121086,-0.131851,33,0.00578142,10,-1.59653e-05,-3.87992,-0.37414,-0.157695,0.80676,0.1210859,
2,0,0,1,0,63870.2,0.113962,0.113609,-0.134011,33,0.00470111,10,-1.52248e-05,-3.87286,-1.97954,-0.029805,0.157153,0.113609,
2,0,0,1,0,63877.7,0.106471,0.106102,-0.135601,33,0.00360834,10,-1.43876e-05,-3.86774,-4.35995,-0.0135323,0.0718994,0.106102,
2,0,0,1,0,63885.2,0.0989798,0.0986392,-0.135339,33,0.0025148,10,-1.33497e-05,-3.86858,1.03204,0.0571683,-0.300817,0.0986392,
2,0,0,1,0,63892.7,0.0914889,0.0911983,-0.132525,33,0.00143735,10,-1.20861e-05,-3.8777,0.863204,0.06835,-0.352156,0.0911983,
2,0,0,1,0,63900.2,0.083998,0.0836409,-0.128628,33,0.000384129,10,-1.07586e-05,-3.89066,0.341546,0.172744,-0.864088,0.0836409,
2,0,0,1,0,63907.7,0.076507,0.0761374,-0.125098,33,-0.000640524,10,-9.52466e-06,-3.90275,0.690917,0.0853938,-0.415088,0.0761374,
2,0,0,1,0,63915.2,0.069016,0.0686732,-0.121907,33,-0.00163809,10,-8.37174e-06,-3.91397,0.693978,0.0850171,-0.403798,0.0686732,
2,0,0,1,0,63922.7,0.0615251,0.0611878,-0.118826,33,-0.0026137,10,-7.27071e-06,-3.92509,0.535024,0.110275,-0.509744,0.0611878,
2,0,0,1,0,63930.2,0.0540342,0.0536908,-0.116037,33,-0.00356465,10,-6.23012e-06,-3.9354,0.66341,0.0889344,-0.400134,0.0536908,
2,0,0,1,0,63937.7,0.0465432,0.0461438,-0.112218,33,-0.00449273,10,-5.17817e-06,-3.94994,0.871191,0.0677234,-0.298137,0.0461438,
2,0,0,1,0,63945.2,0.0390522,0.0387114,-0.110188,33,-0.00540077,10,-4.26551e-06,-3.95787,0.632963,0.0932124,-0.399781,0.03871138,
2,0,0,1,0,63952.6,0.0315613,0.03119,-0.10769,33,-0.00628963,10,-3.35886e-06,-3.96782,1.43486,0.0411191,-0.173668,0.03119,
2,0,0,1,0,63960.1,0.0240703,0.0237278,-0.106755,33,-0.007164,10,-2.53306e-06,-3.97161,1.90614,0.0309526,-0.129067,0.0237278,
2,0,0,1,0,63967.6,0.0165794,0.0162298,-0.106371,33,-0.00803158,10,-1.72637e-06,-3.97318,166.663,0.000354007,-0.00146335,0.0162298,
2,0,0,1,0,63975.1,0.00908843,0.00874533,-0.107166,33,-0.0089004,10,-9.372e-07,-3.96994,-1.48747,-0.0396646,0.165919,0.008745335,
2,0,0,1,0,63982.6,0.00159744,0.00118568,-0.110395,33,-0.00978366,10,-1.30893e-07,-3.95705, , , ,0.00118568,
2,0,0,1,0,63984,0.000199235,-0.000212656,-0.110675,33,-0.00995122,10,2.35358e-08,-3.95595, , , ,-0.000212656,