Folder: Figs_alphaMnO2_OER_Tafel_sleope/Figure_codes/Fig_3-5/rawdata_trumpetplot_data/after 10th (part 44)

File: 20221101_1-115_003_TrumpetPlot_ParaChange_from10_every3_04_CV_C01_17.csv
mode,ox/red,error,control changes,counter inc.,time/s,control/V,Ewe/V,<I>/mA,cycle number,(Q-Qo)/C,I Range,P/W,log(|I|),Tafel slope mV/dec,alpha_eff,dI/d(E-IR),E-IR/V,
2,0,0,1,0,34552.2,2.44065e-05,-0.000363498,-0.387516,18,0.0000000E+000,10,1.40862e-07,-3.41171, , , ,-0.000363498,
2,1,0,1,0,34553,0.00729063,0.00698406,0.349556,18,0.000176856,10,2.44132e-06,-3.45648,0.057335,1.02904,13.8858,0.00698406,
2,1,0,1,0,34553.7,0.0147814,0.0144576,0.423072,18,0.000481146,10,6.11661e-06,-3.37359,0.121234,0.486662,8.05741,0.0144576,
2,1,0,1,0,34554.5,0.0222725,0.0219782,0.481762,18,0.00083249,10,1.05883e-05,-3.31717,0.149939,0.393494,7.38804,0.0219782,
2,1,0,1,0,34555.2,0.0297635,0.0294648,0.53357,18,0.00122433,10,1.57215e-05,-3.27281,0.176918,0.333488,6.94918,0.0294648,
2,1,0,1,0,34556,0.0372544,0.0369501,0.586504,18,0.00165503,10,2.16714e-05,-3.23173,0.199892,0.295159,6.73456,0.0369501,
2,1,0,1,0,34556.7,0.0447458,0.0444605,0.636835,18,0.00212467,10,2.8314e-05,-3.19597,0.217753,0.270949,6.72882,0.0444605,
2,1,0,1,0,34557.5,0.0522363,0.051887,0.684029,18,0.00263151,10,3.54922e-05,-3.16493,0.223352,0.264157,7.03926,0.051887,
2,1,0,1,0,34558.2,0.0597282,0.0594113,0.725823,18,0.00317155,10,4.31221e-05,-3.13917,0.308555,0.191214,5.42119,0.0594113,
2,1,0,1,0,34559,0.0672182,0.0669246,0.765332,18,0.00374176,10,5.12196e-05,-3.11615,0.352356,0.167444,4.98657,0.0669246,
2,1,0,1,0,34559.7,0.0747092,0.0743962,0.797023,18,0.0043382,10,5.92955e-05,-3.09853,0.531604,0.110985,3.44504,0.0743962,
2,1,0,1,0,34560.5,0.0822001,0.0818763,0.821203,18,0.00495655,10,6.72371e-05,-3.08555,0.500385,0.117909,3.79171,0.08187633,
2,1,0,1,0,34561.2,0.0896911,0.0893776,0.858626,18,0.00559716,10,7.6742e-05,-3.0662,0.297243,0.198491,6.6606,0.0893776,
2,1,0,1,0,34561.9,0.097182,0.0968535,0.912945,18,0.00627212,10,8.84219e-05,-3.03956,0.211538,0.278909,9.95027,0.0968535,
2,1,0,1,0,34562.7,0.104673,0.104373,0.997534,18,0.00699809,10,0.000104115,-3.00107,0.188749,0.312584,12.1186,0.104373,
2,1,0,1,0,34563.4,0.112164,0.111842,1.07317,18,0.00778551,10,0.000120025,-2.96933,0.291093,0.202685,8.45818,0.111842,
2,1,0,1,0,34564.2,0.119655,0.119293,1.12441,18,0.00862154,10,0.000134134,-2.94908,0.559871,0.105381,4.62312,0.119293,
2,1,0,1,0,34564.9,0.127146,0.126827,1.15487,18,0.00948964,10,0.000146469,-2.93747,0.775445,0.0760853,3.43926,0.126827,
2,1,0,1,0,34565.7,0.134637,0.134314,1.16928,18,0.0103776,10,0.000157051,-2.93208,-0.721317,-0.0817948,-3.72939,0.134314,
2,1,0,1,0,34566.4,0.142127,0.141803,1.08303,18,0.0112417,10,0.000153578,-2.96536,-0.130243,-0.453,-19.0415,0.141803,
2,1,0,1,0,34567.2,0.149619,0.149288,0.885881,18,0.0119937,10,0.000132252,-3.05262,-0.07325,-0.80546,-27.8512,0.149288,
2,1,0,1,0,34567.9,0.157109,0.156799,0.716488,18,0.0125999,10,0.000112345,-3.14479,-0.0996274,-0.592207,-16.5917,0.156799,
2,1,0,1,0,34568.7,0.164601,0.164336,0.630161,18,0.0131116,10,0.000103558,-3.20055,-0.180875,-0.326191,-8.02213,0.164336,
2,1,0,1,0,34569.4,0.172091,0.171756,0.585296,18,0.0135768,10,0.000100528,-3.23262,-0.325941,-0.181014,-4.15395,0.171756,
2,1,0,1,0,34570.2,0.179582,0.179241,0.562624,18,0.014018,10,0.000100845,-3.24978,-0.482733,-0.122221,-2.69155,0.179241,
2,1,0,1,0,34570.9,0.187074,0.186762,0.551319,18,0.0144455,10,0.000102966,-3.2586,-1.31388,-0.0449051,-0.961412,0.186762,
2,1,0,1,0,34571.7,0.194564,0.194256,0.539986,18,0.0148644,10,0.000104896,-3.26762,-1.03305,-0.0571124,-1.2035,0.194256,
2,1,0,1,0,34572.4,0.202056,0.201728,0.532305,18,0.0152768,10,0.000107381,-3.27384,-0.915998,-0.0644106,-1.3339,0.201728,
2,1,0,1,0,34573.2,0.209546,0.209245,0.52627,18,0.0156842,10,0.000110119,-3.27879,-1.44792,-0.0407481,-0.836681,0.209245,
2,1,0,1,0,34573.9,0.217038,0.216736,0.519484,18,0.0160869,10,0.000112591,-3.28443,-1.76508,-0.0334262,-0.680478,0.216736,
2,1,0,1,0,34574.7,0.224528,0.224195,0.516473,18,0.0164862,10,0.00011579,-3.28695,-2.689,-0.0219412,-0.441896,0.224195,
2,1,0,1,0,34575.4,0.232019,0.231662,0.512617,18,0.0168821,10,0.000118754,-3.29021,-2.40916,-0.0244898,-0.48908,0.231662,
2,1,0,1,0,34576.2,0.23951,0.239164,0.508847,18,0.0172749,10,0.000121698,-3.29341,-3.46649,-0.0170201,-0.337453,0.239164,
2,1,0,1,0,34576.9,0.247001,0.246684,0.503585,18,0.0176646,10,0.000124226,-3.29793,-1.25609,-0.0469712,-0.920884,0.246684,
2,1,0,1,0,34577.7,0.254492,0.254144,0.500325,18,0.0180516,10,0.000127154,-3.30075,-1.84529,-0.0319733,-0.625608,0.2541436,
2,1,0,1,0,34578.4,0.261983,0.261651,0.496373,18,0.0184355,10,0.000129877,-3.30419,-2.98643,-0.019756,-0.381763,0.261651,
2,1,0,1,0,34579.2,0.269474,0.269188,0.492684,18,0.0188167,10,0.000132624,-3.30743,-73.7075,-0.000800461,-0.0153809,0.2691876,
2,1,0,1,0,34579.9,0.276965,0.276655,0.487708,18,0.019195,10,0.000134927,-3.31184,-2.62179,-0.0225037,-0.428709,0.276655,
2,1,0,1,0,34580.7,0.284456,0.284166,0.485284,18,0.0195701,10,0.000137901,-3.314,-1.19572,-0.0493425,-0.931932,0.2841658,
2,1,0,1,0,34581.4,0.291947,0.291648,0.479404,18,0.0199417,10,0.000139817,-3.3193,-0.825354,-0.0714845,-1.33881,0.291648,
2,1,0,1,0,34582.2,0.299437,0.299147,0.474919,18,0.0203102,10,0.000142071,-3.32338,-0.00264377,-22.3166,-210.519,0.299147,
2,0,0,1,0,34582.9,0.293745,0.293416,-0.0699157,18,0.0203341,10,-2.05144e-05,-4.15543,-0.0136574,-4.32001,10.6599,0.293416,
2,0,0,1,0,34583.6,0.286253,0.285942,-0.125163,18,0.0202479,10,-3.57895e-05,-3.90252,-0.0508519,-1.16023,5.69073,0.285942,
2,0,0,1,0,34584.4,0.278763,0.278499,-0.162482,18,0.0201283,10,-4.52511e-05,-3.78919,-0.0928061,-0.635734,4.01024,0.278499,
2,0,0,1,0,34585.1,0.271272,0.270957,-0.190297,18,0.0199847,10,-5.15623e-05,-3.72057,-0.122583,-0.481307,3.57247,0.270957,
2,0,0,1,0,34585.9,0.263781,0.263444,-0.214245,18,0.0198213,10,-5.64416e-05,-3.66909,-0.184888,-0.319113,2.68541,0.263444,
2,0,0,1,0,34586.6,0.25629,0.255929,-0.236409,18,0.0196413,10,-6.0504e-05,-3.62634,-0.231537,-0.254818,2.33372,0.255929,
2,0,0,1,0,34587.4,0.248799,0.24847,-0.25332,18,0.0194468,10,-6.29424e-05,-3.59633,-0.242137,-0.243664,2.42014,0.24847,
2,0,0,1,0,34588.1,0.241308,0.24101,-0.269568,18,0.0192393,10,-6.49687e-05,-3.56933,-0.32395,-0.182127,1.92054,0.24101,
2,0,0,1,0,34588.9,0.233817,0.2335,-0.286261,18,0.0190196,10,-6.68418e-05,-3.54324,-0.267523,-0.220542,2.46223,0.2334996,
2,0,0,1,0,34589.6,0.226326,0.226019,-0.300536,18,0.0187884,10,-6.7927e-05,-3.5221,-0.413723,-0.142608,1.68156,0.226019,
2,0,0,1,0,34590.3,0.218835,0.218539,-0.316098,18,0.0185459,10,-6.908e-05,-3.50018,-0.345987,-0.170527,2.09854,0.2185394,
2,0,0,1,0,34591.1,0.211344,0.211039,-0.331881,18,0.0182926,10,-7.004e-05,-3.47902,-0.437914,-0.13473,1.73525,0.211039,
2,0,0,1,0,34591.8,0.203854,0.203513,-0.345189,18,0.0180273,10,-7.02504e-05,-3.46194,-0.39316,-0.150066,2.03576,0.203513,
2,0,0,1,0,34592.6,0.196362,0.196055,-0.362013,18,0.0177511,10,-7.09744e-05,-3.44128,-0.364812,-0.161727,2.2746,0.196055,
2,0,0,1,0,34593.3,0.188872,0.188546,-0.379402,18,0.0174621,10,-7.15346e-05,-3.4209,-0.266021,-0.221787,3.27667,0.188546,
2,0,0,1,0,34594.1,0.18138,0.181074,-0.398391,18,0.0171598,10,-7.21383e-05,-3.39969,-0.330446,-0.178546,2.7776,0.181074,
2,0,0,1,0,34594.8,0.17389,0.173547,-0.422391,18,0.0168419,10,-7.33046e-05,-3.37428,-0.260448,-0.226533,3.72235,0.173547,
2,0,0,1,0,34595.6,0.166398,0.16608,-0.449768,18,0.0165044,10,-7.46975e-05,-3.34701,-0.25282,-0.233368,4.11289,0.16608,
2,0,0,1,0,34596.3,0.158907,0.158561,-0.491099,18,0.0161405,10,-7.78689e-05,-3.30883,-0.166412,-0.354541,6.82627,0.158561,
2,0,0,1,0,34597.1,0.151417,0.151067,-0.557464,18,0.0157373,10,-8.42142e-05,-3.25378,-0.111546,-0.52893,11.5533,0.151067,
2,0,0,1,0,34597.8,0.143925,0.143587,-0.668405,18,0.0152699,10,-9.59742e-05,-3.17496,-0.077213,-0.76412,19.9452,0.143587,
2,0,0,1,0,34598.6,0.136435,0.136059,-0.834344,18,0.0146983,10,-0.00011352,-3.07866,-0.0785774,-0.750852,24.343,0.136059,
2,0,0,1,0,34599.3,0.128943,0.128614,-1.0066,18,0.0139958,10,-0.000129463,-2.99714,-0.110428,-0.534283,20.9145,0.128614,
2,0,0,1,0,34600.1,0.121453,0.121123,-1.13477,18,0.013177,10,-0.000137446,-2.94509,-0.231555,-0.254799,11.2475,0.121123,
2,0,0,1,0,34600.8,0.113962,0.113609,-1.18309,18,0.0122907,10,-0.000134409,-2.92698,-1.92161,-0.0307033,1.41913,0.113609,
2,0,0,1,0,34601.6,0.106471,0.106142,-1.17705,18,0.0113893,10,-0.000124934,-2.92921,0.982629,0.060043,-2.76563,0.1061416,
2,0,0,1,0,34602.3,0.0989798,0.0986244,-1.14861,18,0.0105044,10,-0.000113281,-2.93983,0.687546,0.0858124,-3.84225,0.0986244,
2,0,0,1,0,34603.1,0.0914889,0.0911379,-1.11718,18,0.00964433,10,-0.000101818,-2.95188,0.606712,0.0972455,-4.23115,0.0911379,
2,0,0,1,0,34603.8,0.083998,0.0836461,-1.0818,18,0.00881027,10,-9.04885e-05,-2.96585,0.393136,0.150075,-6.31924,0.0836461,
2,0,0,1,0,34604.6,0.076507,0.0761851,-1.0487,18,0.00800121,10,-7.98952e-05,-2.97935,0.58706,0.100501,-4.11073,0.0761851,
2,0,0,1,0,34605.3,0.069016,0.0687135,-1.01098,18,0.00721713,10,-6.94678e-05,-2.99526,0.544035,0.108449,-4.29742,0.0687135,
2,0,0,1,0,34606.1,0.0615251,0.0612291,-0.984783,18,0.00645594,10,-6.02974e-05,-3.00666,0.58584,0.10071,-3.87558,0.0612291,
2,0,0,1,0,34606.8,0.0540342,0.0536897,-0.953938,18,0.0057178,10,-5.12166e-05,-3.02048,0.555554,0.1062,-3.949,0.0536897,
2,0,0,1,0,34607.6,0.0465441,0.0462295,-0.920357,18,0.00500358,10,-4.25477e-05,-3.03604,0.482379,0.12231,-4.39865,0.0462295,
2,0,0,1,0,34608.3,0.0390523,0.0386955,-0.886669,18,0.0043147,10,-3.43101e-05,-3.05224,0.379362,0.155524,-5.3802,0.0386955,
2,0,0,1,0,34609.1,0.0315618,0.031214,-0.854152,18,0.00365131,10,-2.66615e-05,-3.06846,0.473345,0.124645,-4.15155,0.031214,
2,0,0,1,0,34609.8,0.0240704,0.0237565,-0.81935,18,0.00301268,10,-1.94649e-05,-3.08653,0.431618,0.136695,-4.38478,0.0237565,
2,0,0,1,0,34610.6,0.0165796,0.0162546,-0.796219,18,0.00239592,10,-1.29422e-05,-3.09897,0.801911,0.0735742,-2.28863,0.0162546,
2,0,0,1,0,34611.3,0.00908846,0.00874539,-0.777381,18,0.00179476,10,-6.7985e-06,-3.10937,1.57132,0.0375481,-1.14272,0.00874539,
2,0,0,1,0,34612.1,0.00159728,0.00121202,-0.784564,18,0.00120031,10,-9.50903e-07,-3.10537, , , ,0.00121202,
2,0,0,1,0,34612.2,0.000199195,-0.000155446,-0.777012,18,0.00108905,10,1.20784e-07,-3.10957, , , ,-0.0001554464,

File: 20221101_1-115_003_TrumpetPlot_ParaChange_from10_every3_04_CV_C01_18.csv
mode,ox/red,error,control changes,counter inc.,time/s,control/V,Ewe/V,<I>/mA,cycle number,(Q-Qo)/C,I Range,P/W,log(|I|),Tafel slope mV/dec,alpha_eff,dI/d(E-IR),E-IR/V,
2,0,0,1,0,36522.4,2.44065e-05,-0.000325324,-0.390061,19,0.0000000E+000,10,1.26896e-07,-3.40887, , , ,-0.000325324,
2,1,0,1,0,36523.1,0.00729063,0.00696391,0.354338,19,0.000176462,10,2.46758e-06,-3.45058,0.0576208,1.02394,13.9904,0.00696391,
2,1,0,1,0,36523.8,0.0147814,0.0144408,0.42849,19,0.000483528,10,6.18774e-06,-3.36806,0.120192,0.490883,8.21158,0.0144408,
2,1,0,1,0,36524.6,0.0222725,0.0219591,0.485602,19,0.000837757,10,1.06634e-05,-3.31372,0.158532,0.372166,7.04343,0.0219591,
2,1,0,1,0,36525.3,0.0297635,0.0294453,0.537476,19,0.00123177,10,1.58262e-05,-3.26964,0.182743,0.322858,6.75233,0.0294453,
2,1,0,1,0,36526.1,0.0372544,0.0369522,0.588215,19,0.00166415,10,2.17358e-05,-3.23046,0.198529,0.297186,6.83132,0.0369522,
2,1,0,1,0,36526.8,0.0447458,0.0444147,0.639492,19,0.00213545,10,2.84029e-05,-3.19416,0.228754,0.257919,6.42806,0.0444147,
2,1,0,1,0,36527.6,0.0522363,0.0519495,0.686406,19,0.00264338,10,3.56585e-05,-3.16342,0.247286,0.23859,6.38292,0.0519495,
2,1,0,1,0,36528.3,0.0597282,0.0593996,0.727503,19,0.00318446,10,4.32134e-05,-3.13817,0.313931,0.18794,5.33542,0.0593996,
2,1,0,1,0,36529.1,0.0672182,0.0669119,0.766575,19,0.00375564,10,5.1293e-05,-3.11545,0.334309,0.176483,5.26877,0.0669119,
2,1,0,1,0,36529.8,0.0747092,0.0743835,0.79801,19,0.004353,10,5.93588e-05,-3.09799,0.53206,0.11089,3.45617,0.0743835,
2,1,0,1,0,36530.6,0.0822001,0.081818,0.821642,19,0.00497217,10,6.72251e-05,-3.08532,0.557337,0.105861,3.40807,0.081818,
2,1,0,1,0,36531.3,0.0896911,0.0893628,0.859589,19,0.00561309,10,7.68153e-05,-3.06571,0.370616,0.159194,5.34798,0.0893628,
2,1,0,1,0,36532.1,0.097182,0.0968896,0.915666,19,0.00628807,10,8.87184e-05,-3.03826,0.205251,0.287453,10.2822,0.0968896,
2,1,0,1,0,36532.8,0.104673,0.104348,0.99878,19,0.00701407,10,0.000104221,-3.00053,0.189732,0.310965,12.076,0.104348,
2,1,0,1,0,36533.6,0.112164,0.111853,1.07315,19,0.00780176,10,0.000120035,-2.96934,0.299604,0.196926,8.23617,0.111853,
2,1,0,1,0,36534.3,0.119655,0.119356,1.12794,19,0.00863938,10,0.000134626,-2.94772,0.543397,0.108576,4.78274,0.119356,
2,1,0,1,0,36535.1,0.127146,0.126849,1.16023,19,0.00950983,10,0.000147174,-2.93546,0.662253,0.0890898,4.04505,0.126849,
2,1,0,1,0,36535.8,0.134637,0.134347,1.1745,19,0.0104008,10,0.000157791,-2.93015,-0.732634,-0.0805313,-3.68831,0.134347,
2,1,0,1,0,36536.6,0.142127,0.141788,1.08706,19,0.0112682,10,0.000154132,-2.96375,-0.128847,-0.457908,-19.3396,0.141788,
2,1,0,1,0,36537.3,0.149619,0.149286,0.88781,19,0.0120223,10,0.000132538,-3.05168,-0.0717914,-0.821826,-28.4743,0.149286,
2,1,0,1,0,36538.1,0.157109,0.156826,0.714285,19,0.0126276,10,0.000112019,-3.14613,-0.0980819,-0.601538,-16.828,0.156826,
2,1,0,1,0,36538.8,0.164601,0.164246,0.629975,19,0.0131379,10,0.000103471,-3.20068,-0.189209,-0.311824,-7.66366,0.164246,
2,1,0,1,0,36539.6,0.172091,0.171814,0.585845,19,0.0136023,10,0.000100656,-3.23222,-0.367232,-0.160661,-3.68047,0.171814,
2,1,0,1,0,36540.3,0.179582,0.17923,0.562977,19,0.0140428,10,0.000100902,-3.24951,-0.580774,-0.101589,-2.23829,0.17923,
2,1,0,1,0,36541.1,0.187074,0.186757,0.55078,19,0.0144698,10,0.000102862,-3.25902,-1.20309,-0.0490404,-1.05218,0.186757,
2,1,0,1,0,36541.8,0.194564,0.194274,0.539497,19,0.014888,10,0.00010481,-3.26801,-1.50494,-0.0392043,-0.826703,0.1942741,
2,1,0,1,0,36542.6,0.202056,0.201773,0.532498,19,0.0152997,10,0.000107444,-3.27368,-1.06882,-0.055201,-1.14277,0.201773,
2,1,0,1,0,36543.3,0.209546,0.209222,0.526025,19,0.0157063,10,0.000110056,-3.27899,-0.830454,-0.0710455,-1.46,0.2092216,
2,1,0,1,0,36544.1,0.217038,0.216692,0.519142,19,0.0161083,10,0.000112494,-3.28471,-6.53727,-0.00902518,-0.183695,0.216692,
2,1,0,1,0,36544.8,0.224528,0.224207,0.515725,19,0.0165072,10,0.000115629,-3.28758,-1.94202,-0.0303807,-0.611876,0.224207,
2,1,0,1,0,36545.6,0.232019,0.231721,0.512826,19,0.0169024,10,0.000118833,-3.29003,-3.62834,-0.0162609,-0.324671,0.231721,
2,1,0,1,0,36546.3,0.23951,0.239231,0.507392,19,0.0172948,10,0.000121384,-3.29466,-2.53199,-0.0233019,-0.461727,0.239231,
2,1,0,1,0,36547.1,0.247001,0.246729,0.504913,19,0.0176843,10,0.000124577,-3.29678,-1.54108,-0.0382848,-0.751968,0.246729,
2,1,0,1,0,36547.8,0.254492,0.254183,0.499409,19,0.018071,10,0.000126941,-3.30154,-2.90585,-0.0203039,-0.396562,0.254183,
2,1,0,1,0,36548.6,0.261983,0.26168,0.496736,19,0.0184546,10,0.000129986,-3.30387,57.8095,0.00102059,0.0198108,0.26168,
2,1,0,1,0,36549.3,0.269474,0.269218,0.492407,19,0.0188356,10,0.000132565,-3.30768,-2.12209,-0.0278028,-0.533942,0.2692183,
2,1,0,1,0,36550.1,0.276965,0.276633,0.488249,19,0.0192136,10,0.000135066,-3.31136,-1.12758,-0.0523245,-0.998591,0.2766327,
2,1,0,1,0,36550.8,0.284456,0.284168,0.485163,19,0.0195884,10,0.000137868,-3.31411,-5.05321,-0.0116758,-0.220501,0.284168,
2,1,0,1,0,36551.6,0.291947,0.291633,0.479572,19,0.01996,10,0.000139859,-3.31915,-1.46545,-0.0402606,-0.754618,0.291633,
2,1,0,1,0,36552.3,0.299437,0.299111,0.476323,19,0.0203285,10,0.000142473,-3.3221,-0.00283828,-20.7872,-199.494,0.299111,
2,0,0,1,0,36553,0.293745,0.293384,-0.0741353,19,0.0203518,10,-2.17501e-05,-4.12997,-0.0142026,-4.15417,10.9943,0.293384,
2,0,0,1,0,36553.7,0.286253,0.285956,-0.130035,19,0.0202631,10,-3.71844e-05,-3.88594,-0.0498868,-1.18268,5.97039,0.285956,
2,0,0,1,0,36554.5,0.278763,0.278415,-0.164755,19,0.0201409,10,-4.58703e-05,-3.78316,-0.0929923,-0.634461,4.1221,0.278415,
2,0,0,1,0,36555.2,0.271272,0.270969,-0.195773,19,0.0199948,10,-5.30486e-05,-3.70825,-0.114277,-0.51629,3.9332,0.270969,
2,0,0,1,0,36556,0.263781,0.263507,-0.218579,19,0.019829,10,-5.75972e-05,-3.66039,-0.176535,-0.334211,2.85114,0.263507,
2,0,0,1,0,36556.7,0.25629,0.255985,-0.238906,19,0.0196469,10,-6.11564e-05,-3.62177,-0.26886,-0.219445,2.042,0.2559855,
2,0,0,1,0,36557.5,0.248799,0.248464,-0.25652,19,0.0194506,10,-6.37361e-05,-3.59088,-0.256681,-0.229858,2.29762,0.248464,
2,0,0,1,0,36558.2,0.241308,0.241045,-0.273045,19,0.0192414,10,-6.58164e-05,-3.56377,-0.363969,-0.162102,1.73413,0.241045,
2,0,0,1,0,36559,0.233817,0.233499,-0.289759,19,0.0190202,10,-6.76583e-05,-3.53796,-0.338006,-0.174553,1.96426,0.233499,
2,0,0,1,0,36559.7,0.226326,0.226003,-0.303342,19,0.0187877,10,-6.85561e-05,-3.51807,-0.343011,-0.172006,2.04197,0.226003,
2,0,0,1,0,36560.5,0.218835,0.218539,-0.319576,19,0.0185436,10,-6.98399e-05,-3.49543,-0.29966,-0.19689,2.45476,0.218539,
2,0,0,1,0,36561.2,0.211344,0.211077,-0.335277,19,0.0182886,10,-7.07693e-05,-3.4746,-0.423438,-0.139336,1.81057,0.211077,
2,0,0,1,0,36562,0.203854,0.203526,-0.347587,19,0.018022,10,-7.07429e-05,-3.45894,-0.354205,-0.16657,2.26994,0.203526,
2,0,0,1,0,36562.7,0.196362,0.196036,-0.365629,19,0.0177441,10,-7.16767e-05,-3.43696,-0.402852,-0.146456,2.07881,0.196036,
2,0,0,1,0,36563.5,0.188872,0.18852,-0.38232,19,0.0174538,10,-7.20748e-05,-3.41757,-0.281891,-0.209301,3.11809,0.18852,
2,0,0,1,0,36564.2,0.18138,0.181042,-0.401456,19,0.01715,10,-7.26806e-05,-3.39636,-0.35275,-0.167257,2.61863,0.181042,
2,0,0,1,0,36565,0.17389,0.173576,-0.423122,19,0.0168307,10,-7.3444e-05,-3.37353,-0.266871,-0.22108,3.65982,0.173576,
2,0,0,1,0,36565.7,0.166398,0.166098,-0.45301,19,0.0164918,10,-7.52441e-05,-3.34389,-0.26107,-0.225993,4.0051,0.166098,
2,0,0,1,0,36566.5,0.158907,0.158532,-0.493402,19,0.0161266,10,-7.82199e-05,-3.3068,-0.173517,-0.340024,6.56102,0.158532,
2,0,0,1,0,36567.2,0.151417,0.151077,-0.558359,19,0.0157226,10,-8.43554e-05,-3.25309,-0.117551,-0.50191,10.9779,0.151077,
2,0,0,1,0,36568,0.143925,0.143615,-0.66845,19,0.0152544,10,-9.59993e-05,-3.17493,-0.078161,-0.754852,19.7359,0.143615,
2,0,0,1,0,36568.7,0.136435,0.136165,-0.832904,19,0.0146828,10,-0.000113412,-3.07941,-0.0785154,-0.751445,24.3915,0.136165,
2,0,0,1,0,36569.5,0.128943,0.128625,-1.00848,19,0.0139808,10,-0.000129715,-2.99633,-0.112826,-0.522927,20.4818,0.1286245,
2,0,0,1,0,36570.2,0.121453,0.121159,-1.13598,19,0.0131627,10,-0.000137634,-2.94463,-0.225497,-0.261644,11.5553,0.121159,
2,0,0,1,0,36571,0.113962,0.113632,-1.18711,19,0.0122755,10,-0.000134894,-2.92551,-1.16847,-0.0504936,2.33919,0.113632,
2,0,0,1,0,36571.7,0.106471,0.10616,-1.18202,19,0.0113725,10,-0.000125483,-2.92737,0.970192,0.0608127,-2.80867,0.10616,
2,0,0,1,0,36572.5,0.0989798,0.098653,-1.15276,19,0.0104859,10,-0.000113723,-2.93826,0.686948,0.0858872,-3.85462,0.098653,
2,0,0,1,0,36573.2,0.0914889,0.0911549,-1.11778,19,0.00962507,10,-0.000101891,-2.95164,0.681896,0.0865235,-3.76852,0.0911549,
2,0,0,1,0,36574,0.083998,0.0836599,-1.08309,19,0.00879024,10,-9.06111e-05,-2.96534,0.461814,0.127757,-5.39119,0.0836599,
2,0,0,1,0,36574.7,0.076507,0.0761576,-1.04901,19,0.00798035,10,-7.98901e-05,-2.97922,0.562822,0.104829,-4.29309,0.0761576,
2,0,0,1,0,36575.5,0.069016,0.0687474,-1.01583,19,0.0071956,10,-6.9836e-05,-2.99318,0.534614,0.11036,-4.38504,0.0687474,
2,0,0,1,0,36576.2,0.0615251,0.0611793,-0.986605,19,0.00643367,10,-6.03598e-05,-3.00586,0.52898,0.111535,-4.29254,0.06117931,
2,0,0,1,0,36577,0.0540342,0.0537162,-0.955843,19,0.00569553,10,-5.13442e-05,-3.01961,0.586228,0.100643,-3.74953,0.0537162,
2,0,0,1,0,36577.7,0.0465441,0.0462198,-0.919832,19,0.00498155,10,-4.25144e-05,-3.03629,0.487919,0.120922,-4.34782,0.0462198,
2,0,0,1,0,36578.5,0.0390523,0.0386966,-0.887178,19,0.0042933,10,-3.43308e-05,-3.05199,0.363856,0.162152,-5.60899,0.0386966,
2,0,0,1,0,36579.2,0.0315618,0.0311817,-0.852589,19,0.00363087,10,-2.65852e-05,-3.06926,0.43877,0.134467,-4.46941,0.0311817,
2,0,0,1,0,36580,0.0240704,0.0237883,-0.819635,19,0.00299337,10,-1.94977e-05,-3.08638,0.415866,0.141872,-4.54578,0.0237883,
2,0,0,1,0,36580.7,0.0165796,0.0162967,-0.794036,19,0.0023776,10,-1.29402e-05,-3.10016,0.846162,0.0697266,-2.1632,0.0162967,
2,0,0,1,0,36581.5,0.00908846,0.00872525,-0.779141,19,0.00177728,10,-6.7982e-06,-3.10838,1.63479,0.0360903,-1.09776,0.00872525,
2,0,0,1,0,36582.2,0.00159728,0.0012288,-0.786001,19,0.0011832,10,-9.6584e-07,-3.10458, , , ,0.0012288,
2,0,0,1,0,36582.3,0.000199195,-0.000147811,-0.77786,19,0.00107187,10,1.14977e-07,-3.1091, , , ,-0.000147811,