Folder: Figs_alphaMnO2_OER_Tafel_sleope/Figure_codes/Fig_3-5/rawdata_trumpetplot_data/after 10th (part 81)

File: 20221101_1-115_003_TrumpetPlot_ParaChange_from10_every3_06_CV_C01_23.csv
mode,ox/red,error,control changes,counter inc.,time/s,control/V,Ewe/V,<I>/mA,cycle number,(Q-Qo)/C,I Range,P/W,log(|I|),Tafel slope mV/dec,alpha_eff,dI/d(E-IR),E-IR/V,
2,0,0,0,0,46463,2.44065e-05,-0.000382585,-1.41344,24,0.0000000E+000,10,5.4076e-07,-2.84972, , , ,-0.000382585,
2,1,0,1,0,46463.2,0.00729063,0.00698086,1.06534,24,6.18851e-05,10,7.43702e-06,-2.97251,0.0233099,2.53111,99.625,0.00698086,
2,1,0,1,0,46463.4,0.014778,0.0144343,1.4832,24,0.000309901,10,2.1409e-05,-2.8288,0.0943732,0.625177,36.029,0.0144343,
2,1,0,1,0,46463.6,0.0222743,0.0219564,1.69094,24,0.000611875,10,3.7127e-05,-2.77187,0.162149,0.363862,24.0632,0.0219564,
2,1,0,1,0,46463.8,0.0297626,0.0294555,1.87014,24,0.000948416,10,5.50858e-05,-2.72813,0.183711,0.321156,23.3684,0.0294555,
2,1,0,1,0,46463.9,0.0372544,0.0369142,2.03367,24,0.00131712,10,7.50713e-05,-2.69172,0.222056,0.265699,21.1168,0.0369142,
2,1,0,1,0,46464.1,0.0447472,0.0444084,2.20581,24,0.00171731,10,9.79563e-05,-2.65643,0.221613,0.26623,22.9221,0.0444084,
2,1,0,1,0,46464.3,0.0522345,0.0518795,2.37262,24,0.00214853,10,0.000123091,-2.62477,0.240305,0.245521,22.6648,0.05187951,
2,1,0,1,0,46464.5,0.0597309,0.0593684,2.5223,24,0.00261023,10,0.000149745,-2.5982,0.292031,0.202033,19.8947,0.0593684,
2,1,0,1,0,46464.7,0.0672182,0.0668994,2.66428,24,0.0030989,10,0.000178238,-2.57442,0.340014,0.173522,18.0242,0.0668994,
2,1,0,1,0,46464.9,0.0747074,0.0744037,2.79299,24,0.00361254,10,0.000207809,-2.55393,0.446651,0.132094,14.3496,0.0744037,
2,1,0,1,0,46465.1,0.0822019,0.0818812,2.8865,24,0.00414773,10,0.00023635,-2.53963,0.51709,0.1141,12.8728,0.0818812,
2,1,0,1,0,46465.3,0.0896911,0.0893994,2.98306,24,0.00470024,10,0.000266684,-2.52534,0.489186,0.120608,14.0544,0.0893994,
2,1,0,1,0,46465.4,0.097182,0.0968601,3.11698,24,0.00527401,10,0.000301911,-2.50627,0.309782,0.190457,23.1682,0.0968601,
2,1,0,1,0,46465.6,0.104675,0.104373,3.32994,24,0.00587935,10,0.000347556,-2.47756,0.226387,0.260616,33.9192,0.104373,
2,1,0,1,0,46465.8,0.112162,0.111896,3.60188,24,0.00653084,10,0.000403038,-2.44347,0.227694,0.259119,36.3606,0.1118965,
2,1,0,1,0,46466,0.119655,0.119334,3.85521,24,0.007233,10,0.000460057,-2.41395,0.324231,0.181969,27.3288,0.119334,
2,1,0,1,0,46466.2,0.127146,0.126851,4.00623,24,0.00797394,10,0.000508196,-2.39726,0.606882,0.0972183,15.2273,0.126851,
2,1,0,1,0,46466.4,0.134635,0.134352,4.10303,24,0.0087374,10,0.00055125,-2.3869,1.37994,0.0427553,6.83988,0.134352,
2,1,0,1,0,46466.6,0.14213,0.141819,4.08246,24,0.00951054,10,0.000578969,-2.38908,-0.551819,-0.106919,-16.989,0.141819,
2,1,0,1,0,46466.8,0.149619,0.149313,3.75327,24,0.0102535,10,0.00056041,-2.42559,-0.124771,-0.472866,-69.0817,0.149313,
2,1,0,1,0,46466.9,0.157106,0.156764,3.13533,24,0.010903,10,0.000491506,-2.50372,-0.0828433,-0.712188,-86.8733,0.156764,
2,1,0,1,0,46467.1,0.164602,0.164309,2.56915,24,0.0114371,10,0.000422134,-2.59021,-0.0991827,-0.594862,-59.9287,0.164309,
2,1,0,1,0,46467.3,0.172091,0.171778,2.22837,24,0.0118869,10,0.000382785,-2.65201,-0.146595,-0.402469,-35.1364,0.171778,
2,1,0,1,0,46467.5,0.179582,0.179272,2.03362,24,0.012287,10,0.000364572,-2.69173,-0.234018,-0.252118,-19.9851,0.179272,
2,1,0,1,0,46467.7,0.187074,0.186763,1.91478,24,0.0126587,10,0.000357612,-2.71788,-0.40016,-0.147441,-11.0295,0.186763,
2,1,0,1,0,46467.9,0.194563,0.194275,1.84604,24,0.0130133,10,0.000358641,-2.73376,-0.650521,-0.0906965,-6.52944,0.194275,
2,1,0,1,0,46468.1,0.202059,0.201733,1.80135,24,0.0133575,10,0.000363391,-2.7444,-0.811347,-0.0727186,-5.09549,0.201733,
2,1,0,1,0,46468.3,0.209546,0.209198,1.76701,24,0.0136941,10,0.000369655,-2.75276,-0.889692,-0.0663151,-4.58312,0.209198,
2,1,0,1,0,46468.4,0.217035,0.216739,1.73907,24,0.0140254,10,0.000376925,-2.75968,-1.66289,-0.0354803,-2.41114,0.216739,
2,1,0,1,0,46468.6,0.22453,0.224197,1.72377,24,0.0143528,10,0.000386464,-2.76352,-1.94828,-0.0302831,-2.0378,0.224197,
2,1,0,1,0,46468.8,0.232019,0.231739,1.70305,24,0.0146765,10,0.000394664,-2.76877,-5.50992,-0.010708,-0.714047,0.231739,
2,1,0,1,0,46469,0.23951,0.239189,1.69394,24,0.0149977,10,0.000405172,-2.7711,-3.08029,-0.019154,-1.26363,0.239189,
2,1,0,1,0,46469.2,0.247003,0.246674,1.67919,24,0.0153163,10,0.000414214,-2.7749,-1.88015,-0.0313804,-2.05607,0.246674,
2,1,0,1,0,46469.4,0.25449,0.254203,1.66626,24,0.0156326,10,0.000423569,-2.77826,-1.56984,-0.0375834,-2.45159,0.254203,
2,1,0,1,0,46469.6,0.261983,0.261687,1.65685,24,0.0159468,10,0.000433576,-2.78072,-2.76476,-0.02134,-1.3793,0.261687,
2,1,0,1,0,46469.8,0.269474,0.269219,1.64317,24,0.0162589,10,0.000442374,-2.78432,-4.13753,-0.0142597,-0.916294,0.269219,
2,1,0,1,0,46469.9,0.276963,0.276705,1.63572,24,0.0165689,10,0.00045261,-2.78629,-1.84131,-0.0320424,-2.04395,0.276705,
2,1,0,1,0,46470.1,0.284458,0.284218,1.62598,24,0.0168767,10,0.000462134,-2.78888,-4.53732,-0.0130033,-0.821794,0.284218,
2,1,0,1,0,46470.3,0.291947,0.291664,1.6037,24,0.0171818,10,0.000467742,-2.79488,-1.05027,-0.0561758,-3.52417,0.291664,
2,1,0,1,0,46470.5,0.299434,0.299102,1.59232,24,0.0174843,10,0.000476264,-2.79797,-0.0178706,-3.30151,-178.669,0.299102,
2,0,0,1,0,46470.7,0.294196,0.293927,-0.271269,24,0.0175358,10,-7.97335e-05,-3.5666,-0.0060341,-9.77776,75.5487,0.293927,
2,0,0,1,0,46470.8,0.286701,0.286371,-0.55447,24,0.0174494,10,-0.000158784,-3.25612,-0.0538065,-1.09652,23.7767,0.286371,
2,0,0,1,0,46471,0.279212,0.278871,-0.695442,24,0.017328,10,-0.000193939,-3.15774,-0.115646,-0.510176,13.7416,0.278871,
2,0,0,1,0,46471.2,0.271725,0.271436,-0.784194,24,0.0171859,10,-0.000212859,-3.10558,-0.140653,-0.419472,12.8723,0.2714363,
2,0,0,1,0,46471.4,0.264228,0.263921,-0.864537,24,0.0170277,10,-0.00022817,-3.06322,-0.229108,-0.257521,8.66557,0.263921,
2,0,0,1,0,46471.6,0.256741,0.256484,-0.929037,24,0.016857,10,-0.000238283,-3.03197,-0.252626,-0.233547,8.41797,0.256484,
2,0,0,1,0,46471.8,0.249248,0.248928,-0.981241,24,0.0166748,10,-0.000244258,-3.00822,-0.33215,-0.177631,6.80938,0.248928,
2,0,0,1,0,46472,0.241756,0.24143,-1.03105,24,0.0164826,10,-0.000248926,-2.98672,-0.369215,-0.159799,6.45261,0.24143,
2,0,0,1,0,46472.2,0.234268,0.233933,-1.08187,24,0.0162812,10,-0.000253085,-2.96582,-0.373381,-0.158016,6.67121,0.233933,
2,0,0,1,0,46472.3,0.226772,0.226468,-1.12642,24,0.0160706,10,-0.000255099,-2.9483,-0.38192,-0.154482,6.8042,0.226468,
2,0,0,1,0,46472.5,0.219284,0.218972,-1.17423,24,0.0158519,10,-0.000257124,-2.93025,-0.397222,-0.148532,6.79297,0.218972,
2,0,0,1,0,46472.7,0.211796,0.21154,-1.21762,24,0.0156249,10,-0.000257576,-2.91449,-0.49127,-0.120097,5.6891,0.21154,
2,0,0,1,0,46472.9,0.204301,0.203972,-1.25975,24,0.015389,10,-0.000256953,-2.89972,-0.64444,-0.0915523,4.52591,0.203972,
2,0,0,1,0,46473.1,0.196812,0.196535,-1.30958,24,0.0151452,10,-0.000257378,-2.88287,-0.425642,-0.138614,7.07141,0.196535,
2,0,0,1,0,46473.3,0.189321,0.188985,-1.35907,24,0.0148922,10,-0.000256844,-2.86676,-0.439204,-0.134334,7.12744,0.188985,
2,0,0,1,0,46473.5,0.181828,0.181496,-1.41085,24,0.0146295,10,-0.000256063,-2.85052,-0.400862,-0.147183,8.11817,0.181496,
2,0,0,1,0,46473.7,0.174341,0.174016,-1.48055,24,0.014356,10,-0.000257639,-2.82958,-0.330615,-0.178455,10.2759,0.174016,
2,0,0,1,0,46473.8,0.166848,0.166521,-1.55871,24,0.0140687,10,-0.000259557,-2.80724,-0.298293,-0.197792,12.0153,0.166521,
2,0,0,1,0,46474,0.159357,0.159033,-1.66788,24,0.0137638,10,-0.000265248,-2.77783,-0.210719,-0.279994,18.2743,0.159033,
2,0,0,1,0,46474.2,0.151868,0.151544,-1.83451,24,0.0134336,10,-0.000278009,-2.73648,-0.154513,-0.381844,27.3414,0.151544,
2,0,0,1,0,46474.4,0.144373,0.144051,-2.10512,24,0.0130632,10,-0.000303246,-2.67672,-0.100651,-0.586182,48.2776,0.1440513,
2,0,0,1,0,46474.6,0.136884,0.136546,-2.53403,24,0.0126277,10,-0.000346012,-2.59619,-0.0889309,-0.663437,65.6628,0.136546,
2,0,0,1,0,46474.8,0.129393,0.1291,-3.05458,24,0.0121015,10,-0.000394345,-2.51505,-0.0995618,-0.592597,70.4209,0.1291,
2,0,0,1,0,46475,0.1219,0.121595,-3.52558,24,0.0114807,10,-0.000428692,-2.45277,-0.147613,-0.399693,54.9474,0.121595,
2,0,0,1,0,46475.2,0.114413,0.114077,-3.89453,24,0.0107809,10,-0.000444276,-2.40954,-0.240282,-0.245545,37.2164,0.114077,
2,0,0,1,0,46475.3,0.10692,0.106628,-4.08859,24,0.0100274,10,-0.000435958,-2.38843,-0.697805,-0.0845508,13.4655,0.106628,
2,0,0,1,0,46475.5,0.0994284,0.0990523,-4.10791,24,0.00925347,10,-0.000406897,-2.38638,1.34159,0.0439776,-7.05183,0.09905228,
2,0,0,1,0,46475.7,0.0919401,0.0915946,-4.0052,24,0.00848944,10,-0.000366855,-2.39738,0.565935,0.104252,-16.3014,0.0915946,
2,0,0,1,0,46475.9,0.0844447,0.08411,-3.87712,24,0.00774792,10,-0.000326105,-2.41149,0.562025,0.104978,-15.8701,0.08411,
2,0,0,1,0,46476.1,0.0769565,0.0766184,-3.76849,24,0.00702954,10,-0.000288735,-2.42383,0.644519,0.0915412,-13.4705,0.0766184,
2,0,0,1,0,46476.3,0.0694682,0.0691036,-3.68298,24,0.00632898,10,-0.000254507,-2.4338,0.686035,0.0860015,-12.3466,0.0691036,
2,0,0,1,0,46476.5,0.0619728,0.0616193,-3.59181,24,0.0056441,10,-0.000221325,-2.44469,0.66742,0.0884001,-12.3896,0.0616193,
2,0,0,1,0,46476.7,0.0544836,0.0541558,-3.48969,24,0.00497767,10,-0.000188987,-2.45721,0.690756,0.0854136,-11.6434,0.0541558,
2,0,0,1,0,46476.8,0.0469927,0.046634,-3.39025,24,0.00432983,10,-0.000158101,-2.46977,0.535356,0.110207,-14.5652,0.046634,
2,0,0,1,0,46477,0.0394999,0.0391939,-3.27637,24,0.00370263,10,-0.000128414,-2.48461,0.470419,0.12542,-16.0165,0.0391939,
2,0,0,1,0,46477.2,0.0320125,0.0316853,-3.14713,24,0.00309826,10,-9.97179e-05,-2.50208,0.409423,0.144105,-17.6983,0.0316853,
2,0,0,1,0,46477.4,0.0245198,0.0242017,-3.01681,24,0.00251767,10,-7.3012e-05,-2.52045,0.434998,0.135633,-15.9665,0.0242017,
2,0,0,1,0,46477.6,0.0170289,0.0167379,-2.90004,24,0.00195989,10,-4.85406e-05,-2.5376,0.456119,0.129352,-14.6897,0.0167379,
2,0,0,1,0,46477.8,0.0095397,0.0092514,-2.81959,24,0.00142115,10,-2.60851e-05,-2.54981,0.77812,0.0758238,-8.33966,0.009251398,
2,0,0,1,0,46478,0.00204518,0.0016872,-2.80066,24,0.000895048,10,-4.72527e-06,-2.55274,3.73977,0.0157764,-1.70359,0.0016872,
2,0,0,1,0,46478,0.000177222,-0.000242103,-2.76353,24,0.000764381,10,6.69059e-07,-2.55854, , , ,-0.000242103,

File: 20221101_1-115_003_TrumpetPlot_ParaChange_from10_every3_06_CV_C01_24.csv
mode,ox/red,error,control changes,counter inc.,time/s,control/V,Ewe/V,<I>/mA,cycle number,(Q-Qo)/C,I Range,P/W,log(|I|),Tafel slope mV/dec,alpha_eff,dI/d(E-IR),E-IR/V,
2,0,0,0,0,48433.1,2.44065e-05,-0.000382585,-1.41344,25,0.0000000E+000,10,5.4076e-07,-2.84972, , , ,-0.000382585,
2,1,0,1,0,48433.3,0.00729063,0.0069829,1.03927,25,5.50314e-05,10,7.25712e-06,-2.98327,0.0217403,2.71385,103.996,0.0069829,
2,1,0,1,0,48433.5,0.014778,0.0144677,1.47316,25,0.000300286,10,2.13133e-05,-2.83175,0.0923226,0.639063,36.6031,0.0144677,
2,1,0,1,0,48433.7,0.0222743,0.0219782,1.6944,25,0.000600917,10,3.72399e-05,-2.77098,0.160043,0.368651,24.2556,0.0219782,
2,1,0,1,0,48433.9,0.0297626,0.0294303,1.86129,25,0.00093623,10,5.47783e-05,-2.73019,0.197546,0.298665,21.6972,0.0294303,
2,1,0,1,0,48434.1,0.0372544,0.0369522,2.02872,25,0.00130329,10,7.49657e-05,-2.69278,0.215472,0.273818,21.6596,0.0369522,
2,1,0,1,0,48434.3,0.0447472,0.0444273,2.19518,25,0.00170154,10,9.75259e-05,-2.65853,0.224179,0.263183,22.5267,0.0444273,
2,1,0,1,0,48434.5,0.0522345,0.0518666,2.35266,25,0.00213051,10,0.000122025,-2.62844,0.235441,0.250593,23.0789,0.0518666,
2,1,0,1,0,48434.6,0.0597308,0.059426,2.51362,25,0.0025898,10,0.000149374,-2.5997,0.282186,0.209082,20.4783,0.059426,
2,1,0,1,0,48434.8,0.0672182,0.0668743,2.6555,25,0.0030759,10,0.000177585,-2.57585,0.332098,0.177659,18.3591,0.06687431,
2,1,0,1,0,48435,0.0747074,0.0743988,2.77196,25,0.00358682,10,0.00020623,-2.55721,0.494613,0.119285,12.9176,0.0743988,
2,1,0,1,0,48435.2,0.0822019,0.081904,2.87541,25,0.00411918,10,0.000235508,-2.5413,0.531726,0.110959,12.4342,0.081904,
2,1,0,1,0,48435.4,0.0896911,0.0894099,2.96805,25,0.00466896,10,0.000265373,-2.52753,0.486483,0.121279,14.0632,0.0894099,
2,1,0,1,0,48435.6,0.097182,0.0968591,3.09741,25,0.00523929,10,0.000300012,-2.509,0.316825,0.186223,22.5531,0.0968591,
2,1,0,1,0,48435.8,0.104675,0.104332,3.31069,25,0.0058408,10,0.00034541,-2.48008,0.223735,0.263705,34.0288,0.104332,
2,1,0,1,0,48436,0.112162,0.111779,3.57416,25,0.00648737,10,0.000399515,-2.44683,0.229195,0.257423,35.9107,0.111779,
2,1,0,1,0,48436.1,0.119655,0.119338,3.82446,25,0.0071843,10,0.000456404,-2.41743,0.321512,0.183508,27.3936,0.119338,
2,1,0,1,0,48436.3,0.127146,0.12682,3.98696,25,0.00792058,10,0.000505627,-2.39936,0.525938,0.11218,17.4522,0.12682,
2,1,0,1,0,48436.5,0.134635,0.134272,4.08196,25,0.00868014,10,0.000548093,-2.38913,1.28542,0.0458993,7.31616,0.134272,
2,1,0,1,0,48436.7,0.14213,0.141777,4.0709,25,0.00945003,10,0.000577159,-2.39031,-0.573348,-0.102904,-16.2971,0.141777,
2,1,0,1,0,48436.9,0.149619,0.149309,3.75601,25,0.0101916,10,0.000560807,-2.42527,-0.126647,-0.465861,-68.0122,0.149309,
2,1,0,1,0,48437.1,0.157106,0.156817,3.12733,25,0.010841,10,0.000490419,-2.50483,-0.0831054,-0.709941,-86.6716,0.156817,
2,1,0,1,0,48437.3,0.164602,0.164252,2.56087,25,0.0113731,10,0.000420627,-2.59161,-0.0978379,-0.603038,-60.3078,0.164252,
2,1,0,1,0,48437.4,0.172091,0.171755,2.20936,25,0.0118193,10,0.000379468,-2.65573,-0.147635,-0.399635,-34.6002,0.171755,
2,1,0,1,0,48437.6,0.179582,0.1793,2.01695,25,0.0122163,10,0.000361638,-2.69531,-0.254498,-0.231829,-18.3224,0.1793,
2,1,0,1,0,48437.8,0.187074,0.186775,1.91159,25,0.0125859,10,0.000357037,-2.7186,-0.43277,-0.136331,-10.144,0.186775,
2,1,0,1,0,48438,0.194563,0.194221,1.84117,25,0.0129391,10,0.000357595,-2.73491,-0.696536,-0.0847049,-6.09699,0.194221,
2,1,0,1,0,48438.2,0.202059,0.201766,1.79879,25,0.0132823,10,0.000362936,-2.74502,-0.786964,-0.0749717,-5.25277,0.201766,
2,1,0,1,0,48438.4,0.209546,0.209223,1.77117,25,0.0136185,10,0.000370569,-2.75174,-0.773888,-0.0762384,-5.25624,0.209223,
2,1,0,1,0,48438.6,0.217035,0.216732,1.73837,25,0.0139493,10,0.000376761,-2.75986,-1.69282,-0.034853,-2.3727,0.216732,
2,1,0,1,0,48438.8,0.22453,0.224211,1.7236,25,0.0142766,10,0.000386449,-2.76356,-0.984117,-0.0599522,-4.02718,0.224211,
2,1,0,1,0,48438.9,0.232019,0.231704,1.70554,25,0.0146001,10,0.00039518,-2.76814,-5.82452,-0.0101296,-0.674357,0.231704,
2,1,0,1,0,48439.1,0.23951,0.239192,1.69212,25,0.0149211,10,0.000404742,-2.77157,-4.12546,-0.0143014,-0.945863,0.239192,
2,1,0,1,0,48439.3,0.247003,0.246691,1.68396,25,0.0152397,10,0.000415419,-2.77367,-1.64385,-0.0358914,-2.35043,0.246691,
2,1,0,1,0,48439.5,0.25449,0.25421,1.66849,25,0.0155558,10,0.000424146,-2.77768,-2.10178,-0.0280714,-1.82844,0.25421,
2,1,0,1,0,48439.7,0.261983,0.261688,1.65348,25,0.01587,10,0.000432697,-2.7816,-1.88461,-0.0313062,-2.02798,0.261688,
2,1,0,1,0,48439.9,0.269474,0.269161,1.64467,25,0.016182,10,0.00044268,-2.78392,-31.4406,-0.00187655,-0.120433,0.269161,
2,1,0,1,0,48440.1,0.276963,0.276658,1.63404,25,0.0164917,10,0.000452069,-2.78674,-3.31324,-0.0178073,-1.13747,0.2766577,
2,1,0,1,0,48440.3,0.284458,0.284158,1.62196,25,0.0167995,10,0.000460892,-2.78996,-1.65981,-0.0355462,-2.24945,0.284158,
2,1,0,1,0,48440.4,0.291947,0.291632,1.60705,25,0.0171043,10,0.000468668,-2.79397,-1.96159,-0.0300776,-1.88517,0.291632,
2,1,0,1,0,48440.6,0.299434,0.299159,1.5903,25,0.0174065,10,0.000475753,-2.79852,-0.0187254,-3.15081,-171.745,0.299159,
2,0,0,1,0,48440.8,0.294196,0.293887,-0.26683,25,0.0174612,10,-7.84179e-05,-3.57376,-0.00524077,-11.2579,79.3897,0.293887,
2,0,0,1,0,48441,0.286701,0.286356,-0.556398,25,0.0173757,10,-0.000159328,-3.25461,-0.0530951,-1.11121,23.9658,0.286356,
2,0,0,1,0,48441.2,0.279212,0.278879,-0.692788,25,0.0172544,10,-0.000193204,-3.1594,-0.114276,-0.516292,13.9805,0.278879,
2,0,0,1,0,48441.4,0.271725,0.27141,-0.786466,25,0.0171124,10,-0.000213454,-3.10432,-0.141977,-0.415561,12.731,0.27141,
2,0,0,1,0,48441.5,0.264228,0.263921,-0.862368,25,0.0169544,10,-0.000227597,-3.06431,-0.228589,-0.258106,8.69737,0.263921,
2,0,0,1,0,48441.7,0.256741,0.256403,-0.925881,25,0.0167838,10,-0.000237399,-3.03345,-0.272906,-0.216192,7.82394,0.256403,
2,0,0,1,0,48441.9,0.249248,0.248957,-0.986286,25,0.0166019,10,-0.000245543,-3.006,-0.363695,-0.162224,6.2152,0.2489574,
2,0,0,1,0,48442.1,0.241756,0.241503,-1.02782,25,0.0164098,10,-0.00024822,-2.98808,-0.450719,-0.130902,5.2887,0.241503,
2,0,0,1,0,48442.3,0.234268,0.233946,-1.0804,25,0.0162086,10,-0.000252754,-2.96642,-0.399686,-0.147616,6.25238,0.233946,
2,0,0,1,0,48442.5,0.226772,0.226469,-1.13047,25,0.0159983,10,-0.000256017,-2.94674,-0.360047,-0.163867,7.20588,0.226469,
2,0,0,1,0,48442.7,0.219284,0.218973,-1.17204,25,0.0157798,10,-0.000256645,-2.93106,-0.483741,-0.121966,5.58921,0.218973,
2,0,0,1,0,48442.9,0.211796,0.211463,-1.21885,25,0.015553,10,-0.000257741,-2.91405,-0.568415,-0.103797,4.91556,0.211463,
2,0,0,1,0,48443,0.204301,0.203945,-1.26021,25,0.0153176,10,-0.000257012,-2.89956,-0.575985,-0.102433,5.04627,0.203945,
2,0,0,1,0,48443.2,0.196812,0.196488,-1.30318,25,0.015074,10,-0.00025606,-2.88499,-0.587772,-0.100379,5.12817,0.196488,
2,0,0,1,0,48443.4,0.189321,0.189001,-1.35849,25,0.0148215,10,-0.000256756,-2.86694,-0.408884,-0.144295,7.63532,0.189001,
2,0,0,1,0,48443.6,0.181828,0.181459,-1.41049,25,0.0145594,10,-0.000255947,-2.85063,-0.374998,-0.157334,8.664,0.181459,
2,0,0,1,0,48443.8,0.174341,0.173979,-1.47778,25,0.0142864,10,-0.000257103,-2.83039,-0.354472,-0.166445,9.59581,0.173979,
2,0,0,1,0,48444,0.166848,0.166479,-1.55919,25,0.0140001,10,-0.000259573,-2.8071,-0.326353,-0.180786,10.937,0.166479,
2,0,0,1,0,48444.2,0.159357,0.159035,-1.66166,25,0.0136965,10,-0.000264263,-2.77946,-0.229279,-0.257328,16.7186,0.159035,
2,0,0,1,0,48444.3,0.151868,0.151523,-1.82058,25,0.0133684,10,-0.00027586,-2.73979,-0.154011,-0.383089,27.2981,0.151523,
2,0,0,1,0,48444.5,0.144373,0.144014,-2.08484,25,0.0130014,10,-0.000300245,-2.68093,-0.103951,-0.567576,46.2814,0.144014,
2,0,0,1,0,48444.7,0.136884,0.136514,-2.49346,25,0.0125717,10,-0.000340393,-2.6032,-0.0890206,-0.662768,64.6992,0.136514,
2,0,0,1,0,48444.9,0.129393,0.129075,-3.00285,25,0.0120542,10,-0.000387592,-2.52247,-0.100558,-0.586727,68.6075,0.129075,
2,0,0,1,0,48445.1,0.1219,0.121578,-3.47499,25,0.0114431,10,-0.000422483,-2.45905,-0.143328,-0.411643,55.704,0.121578,
2,0,0,1,0,48445.3,0.114413,0.114057,-3.84137,25,0.010753,10,-0.000438137,-2.41551,-0.227223,-0.259656,38.8954,0.114057,
2,0,0,1,0,48445.5,0.10692,0.106602,-4.05599,25,0.0100076,10,-0.000432375,-2.3919,-0.592416,-0.0995921,15.7348,0.106602,
2,0,0,1,0,48445.7,0.0994284,0.0991104,-4.09134,25,0.00923842,10,-0.000405494,-2.38813,1.70456,0.034613,-5.52176,0.0991104,
2,0,0,1,0,48445.8,0.0919401,0.0915924,-3.99784,25,0.00847663,10,-0.000366172,-2.39817,0.584141,0.101003,-15.7604,0.0915924,
2,0,0,1,0,48446,0.0844447,0.0840947,-3.87262,25,0.00773647,10,-0.000325666,-2.412,0.582045,0.101367,-15.295,0.0840947,
2,0,0,1,0,48446.2,0.0769565,0.0765978,-3.76382,25,0.00701975,10,-0.0002883,-2.42437,0.641449,0.0919792,-13.5165,0.0765978,
2,0,0,1,0,48446.4,0.0694682,0.0691692,-3.673,25,0.00632077,10,-0.000254059,-2.43498,0.699649,0.084328,-12.0911,0.0691692,
2,0,0,1,0,48446.6,0.0619728,0.0616764,-3.58548,25,0.00563733,10,-0.000221139,-2.44545,0.604485,0.0976038,-13.6514,0.06167642,
2,0,0,1,0,48446.8,0.0544836,0.0542005,-3.48438,25,0.00497222,10,-0.000188855,-2.45787,0.64703,0.0911859,-12.41,0.0542005,
2,0,0,1,0,48447,0.0469927,0.0466784,-3.38429,25,0.00432568,10,-0.000157973,-2.47053,0.561218,0.105129,-13.8598,0.0466784,
2,0,0,1,0,48447.2,0.0394999,0.0391583,-3.27204,25,0.00369966,10,-0.000128128,-2.48518,0.430491,0.137053,-17.4624,0.0391583,
2,0,0,1,0,48447.3,0.0320125,0.0316798,-3.13858,25,0.00309649,10,-9.94298e-05,-2.50327,0.397031,0.148603,-18.2126,0.0316798,
2,0,0,1,0,48447.5,0.0245198,0.0242126,-3.01307,25,0.0025172,10,-7.29543e-05,-2.52099,0.413065,0.142835,-16.7936,0.0242126,
2,0,0,1,0,48447.7,0.0170289,0.0166997,-2.89463,25,0.00196093,10,-4.83394e-05,-2.53841,0.498496,0.118356,-13.4054,0.0166997,
2,0,0,1,0,48447.9,0.0095397,0.0092318,-2.81103,25,0.00142376,10,-2.59509e-05,-2.55113,0.720227,0.0819186,-8.98679,0.0092318,
2,0,0,1,0,48448.1,0.00204518,0.00168106,-2.79204,25,0.000899174,10,-4.69358e-06,-2.55408,4.15305,0.0142064,-1.53089,0.00168106,
2,0,0,1,0,48448.1,0.000177222,-0.000207746,-2.75819,25,0.000768929,10,5.73002e-07,-2.55938, , , ,-0.000207746,