Folder: Figs_alphaMnO2_OER_Tafel_sleope/Figure_codes/Fig_3-5/rawdata_trumpetplot_data/after 10th (part 161)

File: 20221101_1-115_003_TrumpetPlot_ParaChange_from10_every3_11_CV_C01_8.csv
mode,ox/red,error,control changes,counter inc.,time/s,control/V,Ewe/V,<I>/mA,cycle number,(Q-Qo)/C,I Range,P/W,log(|I|),Tafel slope mV/dec,alpha_eff,dI/d(E-IR),E-IR/V,
2,1,0,1,0,16955.6,2.44065e-05,-0.000287149,10.3277,9,0.0000000E+000,10,-2.96559e-06,-1.986, , , ,-0.0002871489,
2,1,0,1,0,16955.6,0.0101427,0.00984185,14.7663,9,0.000325562,10,0.000145328,-1.83073,0.118419,0.498232,284.996,0.00984185,
2,1,0,1,0,16955.6,0.0205441,0.0202052,17.0735,9,0.00074199,10,0.000344974,-1.76768,0.221428,0.266452,177.201,0.0202052,
2,1,0,1,0,16955.6,0.0309482,0.0305908,18.6683,9,0.0012079,10,0.00057108,-1.72889,0.311822,0.189211,137.803,0.0305908,
2,1,0,1,0,16955.7,0.0413439,0.0410539,20.0168,9,0.00171123,10,0.000821769,-1.6986,0.381402,0.154692,120.704,0.0410539,
2,1,0,1,0,16955.7,0.0517425,0.0513737,21.2734,9,0.00224814,10,0.00109289,-1.67216,0.398129,0.148193,123.075,0.0513737,
2,1,0,1,0,16955.7,0.0621438,0.0618156,22.5783,9,0.00281829,10,0.00139569,-1.64631,0.397718,0.148346,130.781,0.06181556,
2,1,0,1,0,16955.7,0.0725479,0.0722001,23.9436,9,0.00342324,10,0.00172873,-1.62081,0.421986,0.139815,130.57,0.0722001,
2,1,0,1,0,16955.8,0.0829437,0.0825889,25.3017,9,0.00406309,10,0.00208964,-1.59685,0.430802,0.136954,135.164,0.0825889,
2,1,0,1,0,16955.8,0.0933422,0.0930032,26.664,9,0.00473902,10,0.00247984,-1.57407,0.474808,0.124261,129.316,0.0930032,
2,1,0,1,0,16955.8,0.103749,0.103392,27.9875,9,0.00544969,10,0.00289368,-1.55304,0.501298,0.117695,128.588,0.103392,
2,1,0,1,0,16955.8,0.114148,0.113798,29.379,9,0.00619524,10,0.00334327,-1.53196,0.470702,0.125345,143.677,0.113798,
2,1,0,1,0,16955.9,0.124543,0.124202,31.001,9,0.00697961,10,0.0038504,-1.50862,0.423574,0.139291,168.563,0.124202,
2,1,0,1,0,16955.9,0.134942,0.134608,32.9012,9,0.00781028,10,0.00442877,-1.48279,0.395296,0.149255,191.826,0.134608,
2,1,0,1,0,16955.9,0.145349,0.144996,34.901,9,0.00869216,10,0.00506051,-1.45716,0.447982,0.131702,179.187,0.144996,
2,1,0,1,0,16956,0.155747,0.155413,36.5924,9,0.00962226,10,0.00568695,-1.43661,0.600671,0.0982235,140.109,0.155413,
2,1,0,1,0,16956,0.166143,0.165824,37.7237,9,0.0105902,10,0.00625551,-1.42339,1.38746,0.0425237,62.5317,0.165824,
2,1,0,1,0,16956,0.176542,0.17626,37.6549,9,0.0115738,10,0.00663705,-1.42418,-0.884987,-0.0666676,-97.6994,0.17626,
2,1,0,1,0,16956,0.186949,0.186619,35.4613,9,0.0125291,10,0.00661775,-1.45025,-0.250495,-0.235533,-324.82,0.186619,
2,1,0,1,0,16956.1,0.197347,0.197003,31.1939,9,0.0133983,10,0.00614528,-1.50593,-0.156115,-0.377925,-459.47,0.197003,
2,1,0,1,0,16956.1,0.207743,0.207489,26.4349,9,0.0141461,10,0.00548494,-1.57782,-0.142458,-0.414158,-427.505,0.207489,
2,1,0,1,0,16956.1,0.218141,0.217844,22.591,9,0.0147802,10,0.0049213,-1.64607,-0.170915,-0.3452,-305.007,0.217844,
2,1,0,1,0,16956.1,0.228548,0.228248,19.9998,9,0.0153312,10,0.00456493,-1.69897,-0.229098,-0.257532,-201.306,0.228248,
2,1,0,1,0,16956.2,0.238947,0.238616,18.3072,9,0.0158274,10,0.00436839,-1.73738,-0.327663,-0.180063,-128.806,0.238616,
2,1,0,1,0,16956.2,0.249343,0.249025,17.1938,9,0.0162879,10,0.00428169,-1.76463,-0.441202,-0.133725,-89.7956,0.249025,
2,1,0,1,0,16956.2,0.259741,0.25942,16.4093,9,0.0167241,10,0.00425691,-1.78491,-0.586331,-0.100626,-64.4534,0.25942,
2,1,0,1,0,16956.2,0.270148,0.269836,15.8196,9,0.0171427,10,0.00426869,-1.8008,-0.736959,-0.0800587,-49.4762,0.2698355,
2,1,0,1,0,16956.3,0.280547,0.28024,15.36,9,0.0175479,10,0.0043045,-1.81361,-0.899292,-0.0656071,-39.3351,0.28024,
2,1,0,1,0,16956.3,0.290942,0.29065,14.9745,9,0.017942,10,0.00435233,-1.82465,-0.956523,-0.0616817,-36.0345,0.29065,
2,1,0,0,0,16956.3,0.300012,0.299785,14.6731,9,0.0182784,10,0.00439877,-1.83348,0.00109768,53.7498,25607.4,0.299785,
2,1,0,1,0,16956.3,0.290704,0.290401,1.81637,9,0.0184375,10,0.000527475,-2.7408,0.00507519,11.6252,765.608,0.290401,
2,0,0,1,0,16956.4,0.280305,0.279997,-3.34881,9,0.0184078,10,-0.000937658,-2.47511,-0.022028,-2.67841,326.271,0.279997,
2,0,0,1,0,16956.4,0.269909,0.26961,-5.80495,9,0.0182851,10,-0.00156507,-2.2362,-0.0765565,-0.770673,172.96,0.26961,
2,0,0,1,0,16956.4,0.2595,0.25919,-7.25451,9,0.0181138,10,-0.0018803,-2.13939,-0.147372,-0.400348,112.813,0.25919,
2,0,0,1,0,16956.4,0.249104,0.248778,-8.22382,9,0.0179121,10,-0.0020459,-2.08493,-0.242199,-0.243602,77.9311,0.248778,
2,0,0,1,0,16956.5,0.238705,0.238411,-8.95331,9,0.0176885,10,-0.00213457,-2.04802,-0.323109,-0.182601,63.7844,0.238411,
2,0,0,1,0,16956.5,0.22831,0.228006,-9.56171,9,0.0174475,10,-0.00218012,-2.01946,-0.387063,-0.15243,56.9643,0.228006,
2,0,0,1,0,16956.5,0.2179,0.217592,-10.1432,9,0.0171912,10,-0.00220709,-1.99382,-0.447776,-0.131762,52.0149,0.217592,
2,0,0,1,0,16956.5,0.207504,0.207185,-10.645,9,0.0169209,10,-0.00220548,-1.97285,-0.514257,-0.114729,47.7148,0.207185,
2,0,0,1,0,16956.6,0.197106,0.196807,-11.1641,9,0.0166371,10,-0.00219717,-1.95218,-0.487443,-0.12104,52.8329,0.196807,
2,0,0,1,0,16956.6,0.18671,0.186422,-11.7335,9,0.0163394,10,-0.00218738,-1.93057,-0.469325,-0.125712,57.5295,0.186422,
2,0,0,1,0,16956.6,0.1763,0.175998,-12.3748,9,0.0160262,10,-0.00217794,-1.90746,-0.426861,-0.138218,66.7443,0.175998,
2,0,0,1,0,16956.6,0.165905,0.165582,-13.1725,9,0.0156946,10,-0.00218112,-1.88033,-0.343558,-0.171732,88.4216,0.165582,
2,0,0,1,0,16956.7,0.155506,0.155188,-14.2912,9,0.0153384,10,-0.00221782,-1.84493,-0.252759,-0.233423,130.296,0.1551875,
2,0,0,1,0,16956.7,0.145105,0.144784,-15.9415,9,0.0149468,10,-0.00230808,-1.79747,-0.189083,-0.312032,194.454,0.144784,
2,0,0,1,0,16956.7,0.134701,0.134411,-18.4394,9,0.0145018,10,-0.00247846,-1.73425,-0.147308,-0.400522,288.47,0.134411,
2,0,0,1,0,16956.8,0.124305,0.123977,-21.826,9,0.0139797,10,-0.00270591,-1.66103,-0.141587,-0.416705,355.045,0.123977,
2,0,0,1,0,16956.8,0.113906,0.113593,-25.5907,9,0.0133628,10,-0.00290692,-1.59192,-0.167133,-0.353013,352.039,0.113593,
2,0,0,1,0,16956.8,0.103505,0.103235,-29.1079,9,0.0126509,10,-0.00300495,-1.53599,-0.21436,-0.275238,312.193,0.103235,
2,0,0,1,0,16956.8,0.0931008,0.0928303,-31.9916,9,0.0118546,10,-0.00296979,-1.49496,-0.305493,-0.19313,240.898,0.0928303,
2,0,0,1,0,16956.9,0.0827051,0.0824373,-34.1323,9,0.010993,10,-0.00281378,-1.46683,-0.492501,-0.119797,159.28,0.0824373,
2,0,0,1,0,16956.9,0.0723065,0.0720145,-35.2383,9,0.0100887,10,-0.00253767,-1.45299,-1.54314,-0.0382337,52.508,0.0720145,
2,0,0,1,0,16956.9,0.0618997,0.0615653,-35.3268,9,0.00916941,10,-0.0021749,-1.4519,2.30445,0.0256026,-35.2666,0.0615653,
2,0,0,1,0,16956.9,0.0515011,0.0511553,-34.7022,9,0.00825826,10,-0.0017752,-1.45964,1.0674,0.0552746,-74.8147,0.0511553,
2,0,0,1,0,16957,0.0411053,0.0407824,-33.8496,9,0.00736711,10,-0.00138047,-1.47045,0.909891,0.0648429,-85.6544,0.0407824,
2,0,0,1,0,16957,0.0307068,0.0304159,-32.9704,9,0.0064984,10,-0.00100282,-1.48188,0.933393,0.0632102,-81.3864,0.0304159,
2,0,0,1,0,16957,0.0202999,0.0200112,-32.0987,9,0.00565241,10,-0.000642332,-1.49351,0.819438,0.0720006,-90.1337,0.0200112,
2,0,0,1,0,16957,0.00990136,0.00956933,-31.0619,9,0.00483109,10,-0.000297241,-1.50777,0.648667,0.0909557,-110.199,0.00956933,
2,0,0,1,0,16957.1,-0.000494411,-0.000917031,-29.8161,9,0.00403937,10,2.73423e-05,-1.52555,0.512876,0.115037,-133.694,-0.000917031,
2,0,0,1,0,16957.1,-0.010893,-0.0112454,-28.3025,9,0.00328385,10,0.000318273,-1.54818,0.455021,0.129664,-143.256,-0.0112454,
2,0,0,1,0,16957.1,-0.0212998,-0.0216989,-26.8983,9,0.00256691,10,0.000583663,-1.57028,0.508297,0.116074,-121.893,-0.0216989,
2,0,0,1,0,16957.1,-0.0316984,-0.032076,-25.8321,9,0.00188254,10,0.000828592,-1.58784,0.732821,0.0805108,-81.2044,-0.032076,
2,0,0,1,0,16957.2,-0.0420942,-0.0424754,-25.1992,9,0.00122007,10,0.00107035,-1.59861,1.35339,0.0435943,-42.9276,-0.0424754,
2,0,0,1,0,16957.2,-0.0524927,-0.0528314,-24.9595,9,0.000568557,10,0.00131864,-1.60276,8.59891,0.00686133,-6.68878,-0.0528314,
2,0,0,1,0,16957.2,-0.0628996,-0.0632658,-25.0409,9,-8.0814e-05,10,0.00158423,-1.60135,-3.33021,-0.0177166,17.3068,-0.0632658,
2,0,0,1,0,16957.2,-0.0732982,-0.0736461,-25.3145,9,-0.000734875,10,0.00186431,-1.59663,-1.51831,-0.0388591,38.408,-0.0736461,
2,0,0,1,0,16957.3,-0.0836939,-0.0840285,-25.7925,9,-0.00139899,10,0.00216731,-1.58851,-1.06959,-0.0551614,55.5538,-0.0840285,
2,0,0,1,0,16957.3,-0.0940925,-0.0944587,-26.4471,9,-0.00207781,10,0.00249816,-1.57762,-0.865143,-0.0681968,70.3874,-0.0944587,
2,0,0,1,1,16957.3,-0.0978574,-0.0982592,-21.5037,9,-0.00260646,10,0.00211294,-1.66749,-0.0237648,-2.48266,2025.46,-0.0982592,
2,0,0,1,1,16957.3,-0.0874588,-0.0878884,-7.09603,9,-0.00295583,10,0.000623659,-2.14898,-0.0154715,-3.81347,1017.14,-0.0878884,
2,1,0,1,1,16957.4,-0.0770519,-0.0774965,1.39687,9,-0.00302128,10,-0.000108253,-2.85484,0.010687,5.52071,665.656,-0.0774965,
2,1,0,1,1,16957.4,-0.0666562,-0.0670832,7.15473,9,-0.00290515,10,-0.000479962,-2.14541,0.0348084,1.69499,461.918,-0.0670832,
2,1,0,1,1,16957.4,-0.0562576,-0.0566351,11.2832,9,-0.00266196,10,-0.000639023,-1.94757,0.0772222,0.764029,334.196,-0.0566351,
2,1,0,1,1,16957.4,-0.0458563,-0.0462219,14.235,9,-0.00232778,10,-0.000657968,-1.84664,0.138621,0.425622,235.353,-0.04622186,
2,1,0,1,1,16957.5,-0.0354522,-0.0358044,16.2978,9,-0.00192926,10,-0.000583533,-1.78787,0.227412,0.259441,164.523,-0.0358044,
2,1,0,1,1,16957.5,-0.0250564,-0.025457,17.7042,9,-0.0014858,10,-0.000450696,-1.75192,0.362174,0.162905,112.531,-0.025457,
2,1,0,1,1,16957.5,-0.0146579,-0.0150363,18.6708,9,-0.00101177,10,-0.000280741,-1.72884,0.580911,0.101565,73.9194,-0.0150363,
2,1,0,1,1,16957.6,-0.00425653,-0.00465284,19.2726,9,-0.000517841,10,-8.96725e-05,-1.71506,1.03267,0.0571336,42.9577,-0.00465284,
2,1,0,0,1,16957.6,-7.54729e-05,-0.000401673,19.4433,9,-0.000314524,10,-7.80985e-06,-1.71123, , , ,-0.000401673,

File: 20221101_1-115_003_TrumpetPlot_ParaChange_from10_every3_11_CV_C01_9.csv
mode,ox/red,error,control changes,counter inc.,time/s,control/V,Ewe/V,<I>/mA,cycle number,(Q-Qo)/C,I Range,P/W,log(|I|),Tafel slope mV/dec,alpha_eff,dI/d(E-IR),E-IR/V,
2,1,0,1,0,18925.7,2.44065e-05,-0.000382585,9.99761,10,0.0000000E+000,10,-3.82494e-06,-2.0001, , , ,-0.000382585,
2,1,0,1,0,18925.7,0.0101427,0.00982171,13.9425,10,0.000309389,10,0.000136939,-1.85566,0.121143,0.487027,263.38,0.00982171,
2,1,0,1,0,18925.7,0.0205441,0.0202063,16.1149,10,0.000702249,10,0.000325622,-1.79277,0.217387,0.271405,170.255,0.0202063,
2,1,0,1,0,18925.8,0.0309482,0.0306089,17.6587,10,0.00114235,10,0.000540513,-1.75304,0.304057,0.194042,133.603,0.0306089,
2,1,0,1,0,18925.8,0.0413439,0.0410093,18.9416,10,0.00161866,10,0.000776783,-1.72258,0.369047,0.159871,118.149,0.0410093,
2,1,0,1,0,18925.8,0.0517425,0.051378,20.1563,10,0.00212717,10,0.00103559,-1.69559,0.39168,0.150633,118.522,0.051378,
2,1,0,1,0,18925.8,0.0621438,0.061753,21.3817,10,0.00266728,10,0.00132038,-1.66996,0.414263,0.142422,118.821,0.061753,
2,1,0,1,0,18925.9,0.0725479,0.0721482,22.6487,10,0.00323957,10,0.00163406,-1.64496,0.423894,0.139186,123.019,0.0721482,
2,1,0,1,0,18925.9,0.0829437,0.0826218,23.9259,10,0.00384516,10,0.0019768,-1.62113,0.455463,0.129538,120.888,0.08262179,
2,1,0,1,0,18925.9,0.0933422,0.0929788,25.222,10,0.00448378,10,0.00234511,-1.59822,0.463665,0.127247,125.132,0.0929788,
2,1,0,1,0,18926,0.103749,0.103441,26.4583,10,0.00515579,10,0.00273687,-1.57744,0.512976,0.115015,118.789,0.103441,
2,1,0,1,0,18926,0.114148,0.113777,27.7313,10,0.00586017,10,0.00315517,-1.55703,0.490394,0.120311,130.218,0.113777,
2,1,0,1,0,18926,0.124543,0.124206,29.1797,10,0.00659953,10,0.00362428,-1.53492,0.443339,0.133081,151.514,0.124206,
2,1,0,1,0,18926,0.134942,0.134573,30.852,10,0.00737967,10,0.00415185,-1.51072,0.417858,0.141196,170.095,0.134573,
2,1,0,1,0,18926.1,0.145349,0.145002,32.6561,10,0.00820546,10,0.00473522,-1.48604,0.441701,0.133574,170.145,0.145002,
2,1,0,1,0,18926.1,0.155747,0.155392,34.3102,10,0.0090766,10,0.00533153,-1.46458,0.535999,0.110075,147.264,0.155392,
2,1,0,1,0,18926.1,0.166143,0.165805,35.5818,10,0.00998656,10,0.00589966,-1.44877,0.893604,0.0660248,91.6022,0.1658054,
2,1,0,1,0,18926.1,0.176542,0.176211,36.0291,10,0.0109203,10,0.00634873,-1.44335,-3.43436,-0.0171793,-24.1122,0.176211,
2,1,0,1,0,18926.2,0.186949,0.186622,34.9017,10,0.0118463,10,0.00651343,-1.45715,-0.397562,-0.148405,-201.527,0.186622,
2,1,0,1,0,18926.2,0.197347,0.197044,31.922,10,0.012718,10,0.00629004,-1.49591,-0.208953,-0.28236,-350.977,0.1970439,
2,1,0,1,0,18926.2,0.207743,0.207405,27.981,10,0.0134967,10,0.00580339,-1.55314,-0.169906,-0.34725,-379.163,0.207405,
2,1,0,1,0,18926.2,0.218141,0.21779,24.3608,10,0.0141752,10,0.00530552,-1.61331,-0.184534,-0.319724,-304.496,0.21779,
2,1,0,1,0,18926.3,0.228548,0.228264,21.6486,10,0.0147711,10,0.00494161,-1.66457,-0.226434,-0.260562,-220.314,0.228264,
2,1,0,1,0,18926.3,0.238947,0.238655,19.7217,10,0.0153071,10,0.00470669,-1.70506,-0.291777,-0.202209,-155.774,0.238655,
2,1,0,1,0,18926.3,0.249343,0.249036,18.3561,10,0.0158011,10,0.00457133,-1.73622,-0.386527,-0.152641,-109.561,0.249036,
2,1,0,1,0,18926.3,0.259741,0.259429,17.399,10,0.0162653,10,0.00451381,-1.75947,-0.499564,-0.118103,-80.1915,0.259429,
2,1,0,1,0,18926.4,0.270148,0.269851,16.6533,10,0.0167074,10,0.00449392,-1.7785,-0.590518,-0.0999122,-64.9479,0.269851,
2,1,0,1,0,18926.4,0.280547,0.280236,16.0625,10,0.0171324,10,0.00450129,-1.79419,-0.710422,-0.0830492,-52.0844,0.280236,
2,1,0,1,0,18926.4,0.290942,0.290636,15.5827,10,0.0175436,10,0.0045289,-1.80736,-0.849946,-0.0694162,-42.2039,0.290636,
2,1,0,0,0,18926.4,0.300012,0.299632,15.201,10,0.0178929,10,0.0045547,-1.81813,0.00127569,46.2495,23622.9,0.299632,
2,1,0,1,0,18926.5,0.290704,0.290435,3.57676,10,0.0180842,10,0.00103882,-2.44651,0.0103503,5.70029,742.795,0.290435,
2,0,0,1,0,18926.5,0.280305,0.27997,-1.65665,10,0.0181002,10,-0.000463811,-2.78077,-0.00812794,-7.25892,347.608,0.27997,
2,0,0,1,0,18926.5,0.269909,0.269597,-4.36939,10,0.0180184,10,-0.00117798,-2.35958,-0.0501213,-1.17715,196.824,0.2695969,
2,0,0,1,0,18926.5,0.2595,0.259144,-6.01859,10,0.0178817,10,-0.00155968,-2.22051,-0.105089,-0.561427,131.356,0.259144,
2,0,0,1,0,18926.6,0.249104,0.248802,-7.17207,10,0.0177094,10,-0.00178443,-2.14436,-0.174276,-0.338544,94.4618,0.248802,
2,0,0,1,0,18926.6,0.238705,0.238432,-8.04997,10,0.0175111,10,-0.00191937,-2.09421,-0.24421,-0.241595,75.7457,0.238432,
2,0,0,1,0,18926.6,0.22831,0.227991,-8.75229,10,0.0172924,10,-0.00199544,-2.05788,-0.31759,-0.185774,63.5146,0.227991,
2,0,0,1,0,18926.6,0.2179,0.217586,-9.39489,10,0.0170563,10,-0.0020442,-2.02711,-0.371424,-0.158848,58.1537,0.2175861,
2,0,0,1,0,18926.7,0.207504,0.207179,-9.96273,10,0.0168046,10,-0.00206407,-2.00162,-0.421809,-0.139874,54.3923,0.207179,
2,0,0,1,0,18926.7,0.197106,0.196761,-10.5152,10,0.0165381,10,-0.00206898,-1.97818,-0.460177,-0.128211,52.676,0.196761,
2,0,0,1,0,18926.7,0.18671,0.186372,-11.0872,10,0.0162572,10,-0.00206635,-1.95518,-0.45068,-0.130913,56.6677,0.186372,
2,0,0,1,0,18926.8,0.1763,0.17603,-11.7201,10,0.0159608,10,-0.00206308,-1.93107,-0.410121,-0.14386,65.7659,0.17603,
2,0,0,1,0,18926.8,0.165905,0.165609,-12.4636,10,0.0156469,10,-0.00206409,-1.90436,-0.368066,-0.160297,77.9756,0.1656092,
2,0,0,1,0,18926.8,0.155506,0.155173,-13.4384,10,0.0153109,10,-0.00208527,-1.87165,-0.276828,-0.213129,111.96,0.155173,
2,0,0,1,0,18926.8,0.145105,0.144806,-14.8482,10,0.0149442,10,-0.0021501,-1.82833,-0.204891,-0.287958,167.237,0.144806,
2,0,0,1,0,18926.9,0.134701,0.13437,-16.9754,10,0.014532,10,-0.00228098,-1.77018,-0.160034,-0.368672,244.456,0.13437,
2,0,0,1,0,18926.9,0.124305,0.123959,-19.8913,10,0.0140539,10,-0.0024657,-1.70134,-0.149645,-0.394268,306.38,0.123959,
2,0,0,1,0,18926.9,0.113906,0.113629,-23.2565,10,0.0134928,10,-0.00264262,-1.63345,-0.164241,-0.359227,325.859,0.113629,
2,0,0,1,0,18926.9,0.103505,0.103227,-26.4916,10,0.0128455,10,-0.00273463,-1.57689,-0.204094,-0.289082,298.103,0.103227,
2,0,0,1,0,18927,0.0931008,0.0928388,-29.2671,10,0.0121192,10,-0.00271712,-1.53362,-0.280721,-0.210173,239.813,0.0928388,
2,0,0,1,0,18927,0.0827051,0.0824118,-31.4182,10,0.0113286,10,-0.00258923,-1.50282,-0.417931,-0.141172,172.932,0.0824118,
2,0,0,1,0,18927,0.0723065,0.0720039,-32.8268,10,0.0104913,10,-0.00236366,-1.48377,-0.822622,-0.0717219,91.7385,0.0720039,
2,0,0,1,0,18927,0.0618996,0.0615907,-33.3386,10,0.00962942,10,-0.00205335,-1.47705,-8.53999,-0.00690867,8.9783,0.06159075,
2,0,0,1,0,18927.1,0.0515011,0.051185,-33.1605,10,0.00876409,10,-0.00169732,-1.47938,2.09017,0.0282274,-36.5074,0.051185,
2,0,0,1,0,18927.1,0.0411053,0.0408004,-32.6603,10,0.00790823,10,-0.00133255,-1.48598,1.41063,0.0418252,-53.3033,0.0408004,
2,0,0,1,0,18927.1,0.0307068,0.0304053,-32.076,10,0.00706659,10,-0.000975279,-1.49382,1.29075,0.0457098,-57.2214,0.0304053,
2,0,0,1,0,18927.1,0.0202999,0.0200005,-31.4516,10,0.00624074,10,-0.000629049,-1.50236,1.10848,0.0532262,-65.3014,0.0200005,
2,0,0,1,0,18927.2,0.00990136,0.00958099,-30.6868,10,0.00543278,10,-0.00029401,-1.51305,0.872987,0.067584,-80.9111,0.00958099,
2,0,0,1,0,18927.2,-0.000494411,-0.000873554,-29.7522,10,0.00464689,10,2.59901e-05,-1.52648,0.656292,0.089899,-104.186,-0.000873554,
2,0,0,1,0,18927.2,-0.010893,-0.0112655,-28.4928,10,0.0038897,10,0.000320987,-1.54527,0.534243,0.110437,-122.781,-0.0112655,
2,0,0,1,0,18927.2,-0.0212998,-0.0216734,-27.224,10,0.00316566,10,0.000590038,-1.56505,0.542328,0.10879,-115.641,-0.0216734,
2,0,0,1,0,18927.3,-0.0316984,-0.0320315,-26.1785,10,0.00247237,10,0.000838538,-1.58205,0.703897,0.0838191,-85.6139,-0.0320315,
2,0,0,1,0,18927.3,-0.0420942,-0.0423917,-25.4487,10,0.00180216,10,0.00107881,-1.59434,1.08113,0.0545727,-54.237,-0.0423917,
2,0,0,1,0,18927.3,-0.0524927,-0.0528833,-25.0618,10,0.00114603,10,0.00132535,-1.60099,2.52111,0.0234024,-22.9212,-0.0528833,
2,0,0,1,0,18927.4,-0.0628996,-0.0632637,-24.9974,10,0.000495875,10,0.00158143,-1.6021,-13.2937,-0.00443819,4.3282,-0.0632637,
2,0,0,1,0,18927.4,-0.0732982,-0.0736928,-25.1212,10,-0.000155049,10,0.00185125,-1.59996,-2.53014,-0.0233189,22.8652,-0.0736928,
2,0,0,1,0,18927.4,-0.0836939,-0.084054,-25.4382,10,-0.000812032,10,0.00213818,-1.59451,-1.49869,-0.0393676,39.1102,-0.084054,
2,0,0,1,0,18927.4,-0.0940925,-0.0944778,-25.9321,10,-0.00147964,10,0.00245001,-1.58616,-1.04614,-0.0563978,57.1012,-0.0944778,
2,0,0,1,1,18927.4,-0.0978574,-0.0982624,-21.6059,10,-0.00199892,10,0.00212304,-1.66543,-0.0272436,-2.16565,1783.39,-0.0982624,
2,0,0,1,1,18927.5,-0.0874588,-0.0878587,-8.72144,10,-0.00237421,10,0.000766255,-2.05941,-0.0210447,-2.80356,937.362,-0.0878587,
2,0,0,1,1,18927.5,-0.077052,-0.0774848,-0.793587,10,-0.00249034,10,6.1491e-05,-3.10041,-0.0152491,-3.86908,627.967,-0.0774848,
2,1,0,1,1,18927.5,-0.0666562,-0.0671055,4.74731,10,-0.00243452,10,-0.000318571,-2.32355,0.0231817,2.54511,448.869,-0.0671055,
2,1,0,1,1,18927.6,-0.0562576,-0.0567008,8.81509,10,-0.00225527,10,-0.000499822,-2.05477,0.0598746,0.985393,336.092,-0.0567008,
2,1,0,1,1,18927.6,-0.0458563,-0.0462123,11.8503,10,-0.00198427,10,-0.000547628,-1.92627,0.107668,0.54798,252.229,-0.0462123,
2,1,0,1,1,18927.6,-0.0354522,-0.0358585,14.0881,10,-0.00164548,10,-0.000505177,-1.85115,0.175007,0.33713,184.586,-0.0358585,
2,1,0,1,1,18927.6,-0.0250564,-0.0254188,15.689,10,-0.00125711,10,-0.000398795,-1.8044,0.278777,0.211638,129.471,-0.0254188,
2,1,0,1,1,18927.7,-0.0146579,-0.0149971,16.8475,10,-0.000833049,10,-0.000252664,-1.77346,0.412308,0.143097,94.0153,-0.0149971,
2,1,0,1,1,18927.7,-0.00425653,-0.00467511,17.6715,10,-0.000383626,10,-8.26163e-05,-1.75273,0.626855,0.0941206,64.8346,-0.00467511,
2,1,0,0,1,18927.7,-7.54729e-05,-0.000478022,17.8838,10,-0.000196723,10,-8.54884e-06,-1.74754, , , ,-0.000478022,