Folder: Figs_alphaMnO2_OER_Tafel_sleope/Figure_codes/Fig_3-5/rawdata_trumpetplot_data/after 10th (part 70)

File: 20221101_1-115_003_TrumpetPlot_ParaChange_from10_every3_06_CV_C01_0.csv
mode,ox/red,error,control changes,counter inc.,time/s,control/V,Ewe/V,<I>/mA,cycle number,(Q-Qo)/C,I Range,P/W,log(|I|),Tafel slope mV/dec,alpha_eff,dI/d(E-IR),E-IR/V,
2,0,0,1,0,1150.02,2.44065e-05,-0.000325324,-1.37655,1,0.0000000E+000,10,4.47823e-07,-2.86121, , , ,-0.000325324,
2,1,0,1,0,1150.2,0.00729063,0.00698222,1.51528,1,0.000168337,10,1.058e-05,-2.81951,0.074078,0.796458,46.4749,0.00698222,
2,1,0,1,0,1150.39,0.014778,0.0144328,1.71804,1,0.000477283,10,2.4796e-05,-2.76497,0.18198,0.324211,21.8028,0.0144328,
2,1,0,1,0,1150.57,0.0222743,0.0219809,1.85917,1,0.000816446,10,4.08664e-05,-2.73068,0.232909,0.253318,18.3293,0.0219809,
2,1,0,1,0,1150.76,0.0297626,0.0295179,1.99083,1,0.00117947,10,5.8765e-05,-2.70097,0.266772,0.221162,17.1849,0.02951787,
2,1,0,1,0,1150.95,0.0372544,0.0369289,2.13982,1,0.00156895,10,7.90212e-05,-2.66962,0.229176,0.257444,21.525,0.0369289,
2,1,0,1,0,1151.14,0.0447472,0.0444547,2.32071,1,0.00198969,10,0.000103167,-2.63438,0.202228,0.291749,26.4367,0.04445472,
2,1,0,1,0,1151.32,0.0522345,0.0519496,2.52315,1,0.00244629,10,0.000131076,-2.59806,0.194962,0.302623,29.8977,0.0519496,
2,1,0,1,0,1151.51,0.0597309,0.059398,2.74223,1,0.00294346,10,0.000162883,-2.5619,0.206873,0.2852,30.4859,0.05939804,
2,1,0,1,0,1151.7,0.0672182,0.0669138,2.96299,1,0.00348065,10,0.000198265,-2.52827,0.25811,0.228584,26.3464,0.0669138,
2,1,0,1,0,1151.89,0.0747074,0.0743732,3.14991,1,0.00405622,10,0.000234269,-2.5017,0.300974,0.19603,24.1271,0.0743732,
2,1,0,1,0,1152.07,0.0822019,0.081916,3.33556,1,0.00466783,10,0.000273236,-2.47683,0.360048,0.163867,21.3016,0.081916,
2,1,0,1,0,1152.26,0.0896911,0.0893735,3.50296,1,0.0053109,10,0.000313072,-2.45556,0.317204,0.186,25.4705,0.0893735,
2,1,0,1,0,1152.45,0.097182,0.0968651,3.70006,1,0.00598855,10,0.000358406,-2.43179,0.276784,0.213162,30.8314,0.0968651,
2,1,0,1,0,1152.63,0.104675,0.104361,3.98767,1,0.00670941,10,0.000416156,-2.39928,0.199856,0.295213,45.83,0.104361,
2,1,0,1,0,1152.82,0.112162,0.111902,4.35519,1,0.00749162,10,0.000487355,-2.36099,0.187446,0.314757,53.5195,0.111902,
2,1,0,1,0,1153.01,0.119655,0.119352,4.76981,1,0.00834958,10,0.000569286,-2.3215,0.221728,0.266092,49.5018,0.119352,
2,1,0,1,0,1153.2,0.127146,0.126885,5.12728,1,0.00928097,10,0.000650574,-2.29011,0.274105,0.215246,43.059,0.126885,
2,1,0,1,0,1153.38,0.134635,0.134302,5.42085,1,0.0102736,10,0.00072803,-2.26593,0.382147,0.154391,32.7078,0.1343018,
2,1,0,1,0,1153.57,0.14213,0.14181,5.60038,1,0.0113132,10,0.000794191,-2.25178,1.24968,0.0472121,10.2948,0.14181,
2,1,0,1,0,1153.76,0.149619,0.149338,5.42327,1,0.0123563,10,0.000809902,-2.26574,-0.197429,-0.298842,-62.9105,0.149338,
2,1,0,1,0,1153.95,0.157106,0.156817,4.62992,1,0.0133095,10,0.000726052,-2.33443,-0.0758181,-0.778179,-140.229,0.1568173,
2,1,0,1,0,1154.13,0.164602,0.164234,3.61664,1,0.0140823,10,0.000593977,-2.44169,-0.0699007,-0.844055,-119.194,0.164234,
2,1,0,1,0,1154.32,0.172091,0.171749,2.92174,1,0.0146918,10,0.000501806,-2.53436,-0.0954855,-0.617895,-70.7893,0.171749,
2,1,0,1,0,1154.51,0.179582,0.179265,2.51707,1,0.0152018,10,0.000451222,-2.59911,-0.135386,-0.435792,-42.9563,0.179265,
2,1,0,1,0,1154.69,0.187074,0.18679,2.27234,1,0.0156508,10,0.000424449,-2.64353,-0.210741,-0.279964,-24.673,0.18679,
2,1,0,1,0,1154.88,0.194563,0.19424,2.09694,1,0.0160612,10,0.000407309,-2.67841,-0.282686,-0.208712,-17.1424,0.19424,
2,1,0,1,0,1155.07,0.202059,0.201755,2.00067,1,0.0164476,10,0.000403644,-2.69882,-0.385814,-0.152924,-11.8946,0.2017545,
2,1,0,1,0,1155.26,0.209546,0.209249,1.92959,1,0.016818,10,0.000403764,-2.71454,-0.435965,-0.135332,-10.1695,0.209249,
2,1,0,1,0,1155.44,0.217035,0.216742,1.8689,1,0.0171767,10,0.000405069,-2.72841,-0.638731,-0.0923706,-6.78211,0.216742,
2,1,0,1,0,1155.63,0.22453,0.22425,1.83802,1,0.0175277,10,0.000412176,-2.73565,-0.8082,-0.0730017,-5.22924,0.22425,
2,1,0,1,0,1155.82,0.232019,0.231736,1.80665,1,0.0178715,10,0.000418665,-2.74313,-1.73167,-0.0340711,-2.39534,0.231736,
2,1,0,1,0,1156.01,0.23951,0.239246,1.77752,1,0.0182102,10,0.000425265,-2.75019,-1.84345,-0.0320052,-2.22562,0.239246,
2,1,0,1,0,1156.19,0.247003,0.246714,1.76039,1,0.0185444,10,0.000434313,-2.75439,-0.796779,-0.0740481,-5.05762,0.246714,
2,1,0,1,0,1156.38,0.25449,0.254186,1.73272,1,0.0188742,10,0.000440431,-2.76127,-1.74273,-0.033855,-2.29429,0.254186,
2,1,0,1,0,1156.57,0.261983,0.261693,1.71398,1,0.0192003,10,0.000448536,-2.766,-0.91695,-0.0643438,-4.30655,0.261693,
2,1,0,1,0,1156.75,0.269474,0.269229,1.701,1,0.0195228,10,0.000457957,-2.7693,-2.36414,-0.0249562,-1.64816,0.269229,
2,1,0,1,0,1156.94,0.276963,0.276678,1.67425,1,0.0198417,10,0.000463228,-2.77618,-4.3718,-0.0134956,-0.884942,0.276678,
2,1,0,1,0,1157.13,0.284458,0.284162,1.65992,1,0.0201576,10,0.000471687,-2.77991,-2.38146,-0.0247747,-1.60624,0.284162,
2,1,0,1,0,1157.32,0.291947,0.291663,1.6471,1,0.0204697,10,0.000480399,-2.78328,-1.13463,-0.0519992,-3.32214,0.291663,
2,1,0,1,0,1157.5,0.299434,0.299174,1.6166,1,0.0207786,10,0.000483644,-2.7914,-0.00894751,-6.59401,-319.84,0.299174,
2,0,0,1,0,1157.66,0.294196,0.293885,-0.515651,1,0.0207743,10,-0.000151542,-3.28764,-0.0331971,-1.77727,34.4552,0.293885,
2,0,0,1,0,1157.85,0.286701,0.286402,-0.685787,1,0.0206557,10,-0.000196411,-3.16381,-0.0879799,-0.670608,18.0253,0.286402,
2,0,0,1,0,1158.04,0.279212,0.27895,-0.803098,1,0.0205114,10,-0.000224024,-3.09523,-0.156656,-0.376621,11.8149,0.27895,
2,0,0,1,0,1158.22,0.271725,0.271419,-0.887077,1,0.0203494,10,-0.000240769,-3.05204,-0.159349,-0.370256,12.7446,0.2714186,
2,0,0,1,0,1158.41,0.264228,0.263886,-0.955172,1,0.0201728,10,-0.000252056,-3.01992,-0.269183,-0.219182,8.20362,0.263886,
2,0,0,1,0,1158.6,0.256741,0.256398,-1.01959,1,0.0199842,10,-0.000261422,-2.99157,-0.332587,-0.177397,7.02202,0.256398,
2,0,0,1,0,1158.79,0.249248,0.248941,-1.08002,1,0.0197847,10,-0.000268862,-2.96657,-0.358424,-0.164609,6.86621,0.248941,
2,0,0,1,0,1158.97,0.241756,0.241477,-1.11861,1,0.0195752,10,-0.000270119,-2.95132,-0.384414,-0.15348,6.76526,0.241477,
2,0,0,1,0,1159.16,0.234268,0.233972,-1.17574,1,0.0193562,10,-0.00027509,-2.92969,-0.382629,-0.154196,7.08795,0.233972,
2,0,0,1,0,1159.35,0.226772,0.226497,-1.22924,1,0.0191273,10,-0.000278419,-2.91036,-0.316317,-0.186522,8.90557,0.226497,
2,0,0,1,0,1159.54,0.219284,0.218969,-1.28011,1,0.0188891,10,-0.000280303,-2.89275,-0.399364,-0.147735,7.39926,0.218969,
2,0,0,1,0,1159.72,0.211796,0.211524,-1.33991,1,0.0186408,10,-0.000283422,-2.87293,-0.450505,-0.130964,6.81549,0.211524,
2,0,0,1,0,1159.91,0.204301,0.203951,-1.39751,1,0.018381,10,-0.000285024,-2.85464,-0.544459,-0.108364,5.91517,0.2039509,
2,0,0,1,0,1160.1,0.196812,0.196522,-1.46235,1,0.0181096,10,-0.000287383,-2.83495,-0.348631,-0.169234,9.73301,0.196522,
2,0,0,1,0,1160.28,0.189321,0.189001,-1.55906,1,0.0178231,10,-0.000294665,-2.80714,-0.261456,-0.225659,13.6908,0.189001,
2,0,0,1,0,1160.47,0.181828,0.181584,-1.66593,1,0.0175177,10,-0.000302506,-2.77834,-0.189105,-0.311996,20.3699,0.181584,
2,0,0,1,0,1160.66,0.174341,0.174057,-1.82977,1,0.0171869,10,-0.000318484,-2.7376,-0.164364,-0.358959,25.7276,0.174057,
2,0,0,1,0,1160.85,0.166848,0.166535,-2.07645,1,0.0168195,10,-0.000345802,-2.68268,-0.125802,-0.46899,37.8001,0.166535,
2,0,0,1,0,1161.03,0.159357,0.159021,-2.4306,1,0.0163965,10,-0.000386515,-2.61429,-0.0933923,-0.631744,60.3309,0.159021,
2,0,0,1,0,1161.22,0.151868,0.151561,-3.00408,1,0.0158866,10,-0.000455301,-2.52229,-0.0762315,-0.773959,91.1617,0.151561,
2,0,0,1,0,1161.41,0.144373,0.144066,-3.80145,1,0.0152469,10,-0.000547659,-2.42005,-0.0761921,-0.774358,114.948,0.144066,
2,0,0,1,0,1161.6,0.136884,0.136601,-4.64888,1,0.0144499,10,-0.000635044,-2.33265,-0.0992347,-0.59455,107.772,0.1366013,
2,0,0,1,0,1161.78,0.129393,0.129084,-5.31866,1,0.0135075,10,-0.000686555,-2.2742,-0.178605,-0.330337,68.3607,0.129084,
2,0,0,1,0,1161.97,0.1219,0.121557,-5.645,1,0.0124723,10,-0.00068619,-2.24834,-0.728269,-0.0810141,17.7856,0.121557,
2,0,0,1,0,1162.16,0.114413,0.1141,-5.63735,1,0.0114083,10,-0.000643224,-2.24892,0.668815,0.0882157,-19.3922,0.1141004,
2,0,0,1,0,1162.34,0.10692,0.106599,-5.38556,1,0.0103697,10,-0.000574095,-2.26877,0.263356,0.224031,-46.982,0.106599,
2,0,0,1,0,1162.53,0.0994284,0.0991271,-4.98383,1,0.00939353,10,-0.000494032,-2.30244,0.205114,0.287645,-56.0069,0.0991271,
2,0,0,1,0,1162.72,0.0919401,0.0916374,-4.58372,1,0.00849517,10,-0.00042004,-2.33878,0.228035,0.258732,-46.351,0.0916374,
2,0,0,1,0,1162.91,0.0844447,0.0841354,-4.29425,1,0.0076619,10,-0.000361298,-2.36711,0.320148,0.18429,-30.8377,0.0841354,
2,0,0,1,0,1163.09,0.0769565,0.0766576,-4.08574,1,0.00687532,10,-0.000313203,-2.38873,0.36048,0.163671,-26.1197,0.0766576,
2,0,0,1,0,1163.28,0.0694682,0.0691724,-3.92764,1,0.00612198,10,-0.000271685,-2.40587,0.433035,0.136248,-20.876,0.0691724,
2,0,0,1,0,1163.47,0.0619728,0.0616732,-3.76557,1,0.00539683,10,-0.000232235,-2.42417,0.356443,0.165525,-24.3492,0.0616732,
2,0,0,1,0,1163.66,0.0544836,0.0541954,-3.58565,1,0.00470384,10,-0.000194325,-2.44543,0.367105,0.160717,-22.5354,0.0541954,
2,0,0,1,0,1163.84,0.0469927,0.0466747,-3.38846,1,0.00404662,10,-0.000158155,-2.47,0.269201,0.219167,-28.8707,0.0466747,
2,0,0,1,0,1164.03,0.0394999,0.0391682,-3.16622,1,0.00343044,10,-0.000124015,-2.49946,0.250157,0.235852,-29.0769,0.0391682,
2,0,0,1,0,1164.22,0.0320125,0.0317064,-2.96871,1,0.00285391,10,-9.41272e-05,-2.52743,0.294274,0.200493,-23.2511,0.0317064,
2,0,0,1,0,1164.4,0.0245198,0.0242133,-2.83354,1,0.00230813,10,-6.86093e-05,-2.54767,0.426097,0.138466,-15.2981,0.0242133,
2,0,0,1,0,1164.59,0.0170289,0.0167338,-2.74351,1,0.00178303,10,-4.59094e-05,-2.56169,0.852398,0.0692165,-7.43403,0.0167338,
2,0,0,1,0,1164.78,0.0095397,0.00924424,-2.7154,1,0.00126883,10,-2.51019e-05,-2.56617,31.2009,0.00189097,-0.200184,0.00924424,
2,0,0,1,0,1164.97,0.00204518,0.00164902,-2.7792,1,0.000756356,10,-4.58297e-06,-2.55608,-1.22801,-0.0480451,5.09997,0.00164902,
2,0,0,1,0,1165.01,0.000177222,-0.000239049,-2.73013,1,0.000627,10,6.52634e-07,-2.56382, , , ,-0.000239049,

File: 20221101_1-115_003_TrumpetPlot_ParaChange_from10_every3_06_CV_C01_1.csv
mode,ox/red,error,control changes,counter inc.,time/s,control/V,Ewe/V,<I>/mA,cycle number,(Q-Qo)/C,I Range,P/W,log(|I|),Tafel slope mV/dec,alpha_eff,dI/d(E-IR),E-IR/V,
2,0,0,0,0,3120.15,2.44065e-05,-0.000401673,-1.38163,2,0.0000000E+000,10,5.54965e-07,-2.85961, , , ,-0.000401673,
2,1,0,1,0,3120.33,0.00729063,0.00699569,1.45884,2,0.000154312,10,1.02056e-05,-2.83599,0.0607166,0.971727,54.3768,0.00699569,
2,1,0,1,0,3120.52,0.014778,0.0144844,1.70138,2,0.000455907,10,2.46435e-05,-2.7692,0.15944,0.370044,24.42,0.0144844,
2,1,0,1,0,3120.7,0.0222743,0.022013,1.85324,2,0.000792535,10,4.07952e-05,-2.73207,0.215535,0.273737,19.8321,0.022013,
2,1,0,1,0,3120.89,0.0297626,0.0294659,2.01429,2,0.00115762,10,5.93529e-05,-2.69588,0.231146,0.25525,19.9979,0.0294659,
2,1,0,1,0,3121.08,0.0372544,0.0369561,2.18452,2,0.0015533,10,8.07312e-05,-2.66064,0.207105,0.284879,24.2898,0.0369561,
2,1,0,1,0,3121.27,0.0447472,0.0444343,2.36945,2,0.00198305,10,0.000105285,-2.62535,0.20281,0.290913,26.9956,0.0444343,
2,1,0,1,0,3121.45,0.0522345,0.0519127,2.57419,2,0.0024494,10,0.000133633,-2.58936,0.206488,0.285731,28.6781,0.0519127,
2,1,0,1,0,3121.64,0.0597309,0.0594176,2.77941,2,0.00295457,10,0.000165146,-2.55605,0.230607,0.255847,27.7163,0.0594176,
2,1,0,1,0,3121.83,0.0672182,0.0669639,2.97085,2,0.00349621,10,0.00019894,-2.52712,0.284352,0.207489,24.0616,0.0669639,
2,1,0,1,0,3122.02,0.0747074,0.0744443,3.14843,2,0.00407198,10,0.000234383,-2.50191,0.346148,0.170448,20.8891,0.0744443,
2,1,0,1,0,3122.2,0.0822019,0.0819168,3.30092,2,0.00468006,10,0.000270401,-2.48136,0.351906,0.167658,21.6522,0.0819168,
2,1,0,1,0,3122.39,0.0896911,0.0894045,3.46388,2,0.00531737,10,0.000309686,-2.46044,0.362546,0.162738,22.036,0.0894045,
2,1,0,1,0,3122.58,0.097182,0.0968614,3.66735,2,0.00598751,10,0.000355225,-2.43565,0.260816,0.226213,32.3441,0.0968614,
2,1,0,1,0,3122.76,0.104675,0.104394,3.95338,2,0.00670237,10,0.000412709,-2.40303,0.200771,0.293868,45.3531,0.104394,
2,1,0,1,0,3122.95,0.112162,0.111854,4.31514,2,0.00747891,10,0.000482666,-2.365,0.202204,0.291785,49.1124,0.111854,
2,1,0,1,0,3123.14,0.119655,0.119317,4.67667,2,0.00832526,10,0.000558005,-2.33006,0.257839,0.228825,41.7435,0.119317,
2,1,0,1,0,3123.33,0.127146,0.126811,4.95932,2,0.00923324,10,0.000628895,-2.30458,0.337542,0.174793,33.9214,0.126811,
2,1,0,1,0,3123.51,0.134635,0.134345,5.21492,2,0.0101906,10,0.000700599,-2.28275,0.470907,0.12529,25.4872,0.134345,
2,1,0,1,0,3123.7,0.14213,0.14181,5.33404,2,0.0111859,10,0.000756422,-2.27294,-119.482,-0.0004938,-0.102508,0.14181,
2,1,0,1,0,3123.89,0.149619,0.149326,5.05225,2,0.0121713,10,0.000754432,-2.29652,-0.146199,-0.40356,-79.2947,0.149326,
2,1,0,1,0,3124.08,0.157106,0.156751,4.19079,2,0.013046,10,0.00065691,-2.3777,-0.0702839,-0.839453,-136.703,0.156751,
2,1,0,1,0,3124.26,0.164602,0.164302,3.27337,2,0.0137425,10,0.000537821,-2.48501,-0.0756453,-0.779956,-99.828,0.164302,
2,1,0,1,0,3124.45,0.172091,0.171788,2.71075,2,0.0143016,10,0.000465676,-2.56691,-0.110729,-0.532832,-56.7179,0.171788,
2,1,0,1,0,3124.64,0.179582,0.179295,2.38961,2,0.0147807,10,0.000428446,-2.62167,-0.16085,-0.366802,-34.2438,0.179295,
2,1,0,1,0,3124.82,0.187074,0.186798,2.1814,2,0.0152107,10,0.00040748,-2.66127,-0.247777,-0.238118,-20.3087,0.186798,
2,1,0,1,0,3125.01,0.194563,0.194216,2.05213,2,0.0156094,10,0.000398556,-2.68779,-0.332431,-0.17748,-14.2261,0.194216,
2,1,0,1,0,3125.2,0.202059,0.201745,1.96704,2,0.0159885,10,0.00039684,-2.70619,-0.449389,-0.131289,-10.0379,0.201745,
2,1,0,1,0,3125.39,0.209546,0.209292,1.90001,2,0.0163538,10,0.000397659,-2.72124,-0.593142,-0.0994703,-7.41061,0.209292,
2,1,0,1,0,3125.57,0.217035,0.216738,1.85604,2,0.0167089,10,0.000402274,-2.73141,-0.764967,-0.0771275,-5.5942,0.216738,
2,1,0,1,0,3125.76,0.22453,0.224192,1.82159,2,0.0170569,10,0.000408385,-2.73955,-0.853428,-0.0691329,-4.91211,0.224192,
2,1,0,1,0,3125.95,0.232019,0.231699,1.79357,2,0.0173983,10,0.000415569,-2.74628,-1.89308,-0.0311662,-2.18611,0.231699,
2,1,0,1,0,3126.14,0.23951,0.239216,1.76912,2,0.017735,10,0.0004232,-2.75224,-2.16459,-0.0272569,-1.87795,0.239216,
2,1,0,1,0,3126.32,0.247003,0.246702,1.74945,2,0.0180672,10,0.000431591,-2.7571,-1.17764,-0.0501002,-3.4084,0.246702,
2,1,0,1,0,3126.51,0.25449,0.254187,1.71948,2,0.0183953,10,0.000437071,-2.7646,-1.39236,-0.0423741,-2.8585,0.254187,
2,1,0,1,0,3126.7,0.261983,0.26171,1.71053,2,0.01872,10,0.000447663,-2.76687,-1.00012,-0.058993,-3.92356,0.2617099,
2,1,0,1,0,3126.88,0.269474,0.269195,1.68747,2,0.0190411,10,0.000454259,-2.77276,-6.63552,-0.00889154,-0.585241,0.269195,
2,1,0,1,0,3127.07,0.276963,0.276638,1.66746,2,0.0193588,10,0.000461284,-2.77794,-1.48947,-0.0396115,-2.58725,0.2766383,
2,1,0,1,0,3127.26,0.284458,0.284177,1.6604,2,0.0196736,10,0.000471847,-2.77979,-1.30309,-0.045277,-2.91496,0.284177,
2,1,0,1,0,3127.45,0.291947,0.29168,1.63178,2,0.0199847,10,0.000475959,-2.78734,-1.1509,-0.0512644,-3.27365,0.29168,
2,1,0,1,0,3127.63,0.299434,0.299157,1.61641,2,0.0202926,10,0.00048356,-2.79145,-0.00970655,-6.07837,-300.068,0.299157,
2,0,0,1,0,3127.79,0.294196,0.293885,-0.481078,2,0.020295,10,-0.000141382,-3.31778,-0.0277191,-2.1285,38.4921,0.293885,
2,0,0,1,0,3127.98,0.286701,0.286392,-0.65887,2,0.0201818,10,-0.000188695,-3.1812,-0.0861027,-0.685228,17.8375,0.286392,
2,0,0,1,0,3128.17,0.279212,0.27896,-0.781739,2,0.0200421,10,-0.000218074,-3.10694,-0.150979,-0.390783,11.8815,0.27896,
2,0,0,1,0,3128.35,0.271725,0.271405,-0.863033,2,0.0198841,10,-0.000234231,-3.06397,-0.157354,-0.374951,12.6464,0.271405,
2,0,0,1,0,3128.54,0.264228,0.263907,-0.935385,2,0.0197114,10,-0.000246855,-3.02901,-0.22348,-0.264006,9.64954,0.263907,
2,0,0,1,0,3128.73,0.256741,0.256434,-1.00359,2,0.0195267,10,-0.000257354,-2.99844,-0.315017,-0.187291,7.2494,0.256434,
2,0,0,1,0,3128.92,0.249248,0.248943,-1.05478,2,0.0193311,10,-0.000262579,-2.97684,-0.406711,-0.145066,5.97591,0.248943,
2,0,0,1,0,3129.1,0.241756,0.24149,-1.0988,2,0.0191251,10,-0.00026535,-2.95908,-0.367542,-0.160526,6.92846,0.24149,
2,0,0,1,0,3129.29,0.234268,0.23398,-1.15764,2,0.0189098,10,-0.000270865,-2.93643,-0.49583,-0.118992,5.36105,0.23398,
2,0,0,1,0,3129.48,0.226772,0.226464,-1.20373,2,0.018685,10,-0.000272602,-2.91947,-0.313922,-0.187945,8.85031,0.226464,
2,0,0,1,0,3129.67,0.219284,0.218974,-1.26024,2,0.0184511,10,-0.000275959,-2.89955,-0.488511,-0.120775,5.91433,0.218974,
2,0,0,1,0,3129.85,0.211796,0.21148,-1.31042,2,0.0182075,10,-0.000277129,-2.88259,-0.404512,-0.145855,7.42054,0.2114805,
2,0,0,1,0,3130.04,0.204301,0.203959,-1.36243,2,0.0179532,10,-0.00027788,-2.86569,-0.60129,-0.0981223,5.24998,0.203959,
2,0,0,1,0,3130.23,0.196812,0.196535,-1.42702,2,0.0176884,10,-0.00028046,-2.84557,-0.347034,-0.170012,9.4804,0.196535,
2,0,0,1,0,3130.41,0.189321,0.189041,-1.50357,2,0.0174101,10,-0.000284236,-2.82288,-0.354435,-0.166462,9.79203,0.189041,
2,0,0,1,0,3130.6,0.181828,0.18151,-1.60346,2,0.0171156,10,-0.000291043,-2.79494,-0.246231,-0.239612,15.0252,0.18151,
2,0,0,1,0,3130.79,0.174341,0.174011,-1.74069,2,0.0167999,10,-0.0003029,-2.75928,-0.190723,-0.309349,20.9401,0.1740109,
2,0,0,1,0,3130.98,0.166848,0.166525,-1.93441,2,0.016454,10,-0.000322129,-2.71345,-0.148327,-0.397771,29.9605,0.166525,
2,0,0,1,0,3131.16,0.159357,0.159069,-2.22002,2,0.0160635,10,-0.000353136,-2.65364,-0.107889,-0.546859,47.6197,0.159069,
2,0,0,1,0,3131.35,0.151868,0.151537,-2.69257,2,0.0156029,10,-0.000408024,-2.56983,-0.0797948,-0.739396,77.8543,0.151537,
2,0,0,1,0,3131.54,0.144373,0.144044,-3.38895,2,0.0150323,10,-0.000488159,-2.46993,-0.0735263,-0.802434,106.4,0.144044,
2,0,0,1,0,3131.73,0.136884,0.136593,-4.21712,2,0.0143158,10,-0.000576028,-2.37498,-0.0904905,-0.652002,107.14,0.136593,
2,0,0,1,0,3131.91,0.129393,0.129099,-4.91855,2,0.013453,10,-0.000634979,-2.30816,-0.149218,-0.395394,75.6578,0.129099,
2,0,0,1,0,3132.1,0.1219,0.121573,-5.32025,2,0.0124854,10,-0.000646798,-2.27407,-0.437743,-0.134782,27.9249,0.121573,
2,0,0,1,0,3132.29,0.114413,0.114082,-5.41637,2,0.0114729,10,-0.000617912,-2.26629,2.21732,0.0266088,-5.61314,0.114082,
2,0,0,1,0,3132.47,0.10692,0.106648,-5.25738,2,0.0104665,10,-0.000560686,-2.27923,0.367585,0.160507,-32.9172,0.106648,
2,0,0,1,0,3132.66,0.0994284,0.0991164,-4.94316,2,0.00950505,10,-0.000489948,-2.306,0.239389,0.246461,-47.5852,0.0991164,
2,0,0,1,0,3132.85,0.0919401,0.0915833,-4.58964,2,0.0086096,10,-0.000420334,-2.33822,0.235453,0.25058,-44.8354,0.0915833,
2,0,0,1,0,3133.04,0.0844447,0.0841478,-4.29392,2,0.00777567,10,-0.000361324,-2.36715,0.323998,0.1821,-30.5303,0.0841478,
2,0,0,1,0,3133.22,0.0769565,0.0766637,-4.086,2,0.00698896,10,-0.000313248,-2.3887,0.39001,0.151278,-24.1546,0.0766637,
2,0,0,1,0,3133.41,0.0694682,0.0691476,-3.93376,2,0.00623523,10,-0.00027201,-2.40519,0.458531,0.128672,-19.7482,0.0691476,
2,0,0,1,0,3133.6,0.0619728,0.0616706,-3.78936,2,0.0055079,10,-0.000233692,-2.42143,0.443601,0.133002,-19.6791,0.0616706,
2,0,0,1,0,3133.79,0.0544836,0.0541604,-3.63556,2,0.00480868,10,-0.000196904,-2.43943,0.438997,0.134397,-19.0922,0.05416045,
2,0,0,1,0,3133.97,0.0469927,0.0466928,-3.46871,2,0.00413912,10,-0.000161963,-2.45983,0.339345,0.173864,-23.4856,0.04669277,
2,0,0,1,0,3134.16,0.0394999,0.0391576,-3.27111,2,0.00350464,10,-0.000128089,-2.4853,0.285261,0.206828,-26.3821,0.0391576,
2,0,0,1,0,3134.35,0.0320125,0.0317049,-3.07223,2,0.00290773,10,-9.74048e-05,-2.51255,0.301215,0.195873,-23.4848,0.0317049,
2,0,0,1,0,3134.53,0.0245198,0.024227,-2.91585,2,0.0023441,10,-7.06422e-05,-2.53524,0.335956,0.175618,-19.9684,0.024227,
2,0,0,1,0,3134.72,0.0170289,0.0167077,-2.79702,2,0.00180575,10,-4.67319e-05,-2.5533,0.55527,0.106255,-11.6697,0.01670772,
2,0,0,1,0,3134.91,0.0095397,0.00921817,-2.74558,2,0.00128326,10,-2.53092e-05,-2.56137,2.08334,0.0283199,-3.03055,0.00921817,
2,0,0,1,0,3135.1,0.00204518,0.00166998,-2.78037,2,0.000767111,10,-4.64316e-06,-2.5559,-1.91416,-0.0308229,3.28587,0.00166998,
2,0,0,1,0,3135.14,0.000177222,-0.000141322,-2.73794,2,0.000637408,10,3.86931e-07,-2.56258, , , ,-0.000141322,