Folder: Figs_alphaMnO2_OER_Tafel_sleope/Figure_codes/Fig_3-5/rawdata_trumpetplot_data/after 10th (part 49)

File: 20221101_1-115_003_TrumpetPlot_ParaChange_from10_every3_04_CV_C01_27.csv
mode,ox/red,error,control changes,counter inc.,time/s,control/V,Ewe/V,<I>/mA,cycle number,(Q-Qo)/C,I Range,P/W,log(|I|),Tafel slope mV/dec,alpha_eff,dI/d(E-IR),E-IR/V,
2,0,0,1,0,54253.5,2.44065e-05,-0.000382585,-0.375432,28,0.0000000E+000,10,1.43635e-07,-3.42547, , , ,-0.000382585,
2,1,0,1,0,54254.3,0.00729063,0.00694058,0.344618,28,0.000169865,10,2.39185e-06,-3.46266,0.0563047,1.04787,13.8755,0.00694058,
2,1,0,1,0,54255,0.0147814,0.0144377,0.418364,28,0.000469603,10,6.04023e-06,-3.37845,0.117652,0.501479,8.16424,0.0144377,
2,1,0,1,0,54255.8,0.0222725,0.0219411,0.469009,28,0.000814287,10,1.02906e-05,-3.32882,0.166324,0.35473,6.50243,0.0219411,
2,1,0,1,0,54256.5,0.0297635,0.0294056,0.520651,28,0.00119668,10,1.53101e-05,-3.28345,0.193403,0.305063,6.17845,0.0294056,
2,1,0,1,0,54257.3,0.0372544,0.0368981,0.568489,28,0.00161608,10,2.09762e-05,-3.24528,0.216449,0.272581,6.05838,0.0368981,
2,1,0,1,0,54258,0.0447458,0.0443521,0.617492,28,0.00207211,10,2.73871e-05,-3.20937,0.220721,0.267306,6.43278,0.0443521,
2,1,0,1,0,54258.8,0.0522363,0.0518785,0.663137,28,0.00256374,10,3.44026e-05,-3.1784,0.251342,0.23474,6.07767,0.0518785,
2,1,0,1,0,54259.5,0.0597282,0.0593638,0.703026,28,0.00308759,10,4.17343e-05,-3.15303,0.310478,0.19003,5.21337,0.0593638,
2,1,0,1,0,54260.3,0.0672182,0.0668567,0.739809,28,0.00363955,10,4.94612e-05,-3.13088,0.383697,0.153767,4.42166,0.06685672,
2,1,0,1,0,54261,0.0747092,0.0743411,0.769433,28,0.00421628,10,5.72005e-05,-3.11383,0.501453,0.117658,3.52986,0.0743411,
2,1,0,1,0,54261.8,0.0822001,0.0818551,0.793188,28,0.00481405,10,6.49265e-05,-3.10062,0.620948,0.095016,2.95193,0.0818551,
2,1,0,1,0,54262.5,0.0896911,0.0893511,0.828202,28,0.00543283,10,7.40008e-05,-3.08186,0.337102,0.175021,5.67688,0.0893511,
2,1,0,1,0,54263.3,0.097182,0.0968609,0.882018,28,0.00608422,10,8.54331e-05,-3.05452,0.193229,0.305338,10.51,0.0968609,
2,1,0,1,0,54264,0.104673,0.104325,0.961816,28,0.00678479,10,0.000100342,-3.01691,0.209121,0.282134,10.5582,0.104325,
2,1,0,1,0,54264.8,0.112164,0.111783,1.035,28,0.00754487,10,0.000115695,-2.98506,0.294328,0.200457,8.07222,0.111783,
2,1,0,1,0,54265.5,0.119655,0.119314,1.08465,28,0.00835233,10,0.000129414,-2.96471,0.79734,0.073996,3.13376,0.119314,
2,1,0,1,0,54266.2,0.127146,0.126794,1.10653,28,0.00918722,10,0.000140302,-2.95604,1.22534,0.0481498,2.08487,0.126794,
2,1,0,1,0,54267,0.134637,0.134242,1.10892,28,0.0100337,10,0.000148864,-2.9551,-0.512809,-0.115052,-4.97088,0.134242,
2,1,0,1,0,54267.7,0.142127,0.14176,1.01587,28,0.0108483,10,0.00014401,-2.99316,-0.120959,-0.487769,-19.2388,0.14176,
2,1,0,1,0,54268.5,0.149619,0.149265,0.826954,28,0.0115522,10,0.000123435,-3.08252,-0.074606,-0.790822,-25.5652,0.149265,
2,1,0,1,0,54269.2,0.157109,0.156791,0.674937,28,0.0121206,10,0.000105824,-3.17074,-0.109283,-0.539884,-14.2539,0.156791,
2,1,0,1,0,54270,0.164601,0.164247,0.598851,28,0.0126051,10,9.83592e-05,-3.22268,-0.195634,-0.301583,-7.06789,0.164247,
2,1,0,1,0,54270.7,0.172091,0.171729,0.562155,28,0.0130502,10,9.65381e-05,-3.25014,-0.389772,-0.15137,-3.33222,0.171729,
2,1,0,1,0,54271.5,0.179582,0.179216,0.543976,28,0.0134753,10,9.74893e-05,-3.26442,-0.590201,-0.099966,-2.129,0.179216,
2,1,0,1,0,54272.2,0.187074,0.186714,0.533711,28,0.0138894,10,9.96511e-05,-3.27269,-1.33455,-0.0442097,-0.91749,0.186714,
2,1,0,1,0,54273,0.194564,0.194209,0.525139,28,0.0142965,10,0.000101987,-3.27973,-1.41471,-0.0417045,-0.854695,0.194209,
2,1,0,1,0,54273.7,0.202056,0.201699,0.519538,28,0.0146983,10,0.00010479,-3.28438,-1.29879,-0.0454268,-0.918422,0.201699,
2,1,0,1,0,54274.5,0.209546,0.209207,0.514335,28,0.0150966,10,0.000107602,-3.28875,-1.16397,-0.0506886,-1.01912,0.209207,
2,1,0,1,0,54275.2,0.217038,0.216683,0.51077,28,0.0154913,10,0.000110675,-3.29177,-2.2355,-0.0263923,-0.526913,0.216683,
2,1,0,1,0,54276,0.224528,0.224236,0.507854,28,0.0158836,10,0.000113879,-3.29426,-13.1689,-0.00448027,-0.0886811,0.224236,
2,1,0,1,0,54276.7,0.232019,0.231662,0.503111,28,0.0162731,10,0.000116552,-3.29834,-3.33441,-0.0176943,-0.347948,0.2316619,
2,1,0,1,0,54277.5,0.23951,0.239183,0.501038,28,0.0166605,10,0.00011984,-3.30013,-2.89961,-0.0203476,-0.398148,0.239183,
2,1,0,1,0,54278.2,0.247001,0.246644,0.499227,28,0.0170456,10,0.000123131,-3.3017,-2.7971,-0.0210933,-0.409446,0.246644,
2,1,0,1,0,54279,0.254492,0.254149,0.494554,28,0.0174284,10,0.00012569,-3.30579,-1.77523,-0.0332351,-0.643563,0.2541489,
2,1,0,1,0,54279.7,0.261983,0.261636,0.491824,28,0.0178086,10,0.000128679,-3.30819,25.4981,0.0023139,0.0444198,0.261636,
2,1,0,1,0,54280.5,0.269474,0.269128,0.48759,28,0.0181867,10,0.000131224,-3.31195,-3.47167,-0.0169947,-0.324013,0.2691282,
2,1,0,1,0,54281.2,0.276965,0.276616,0.485475,28,0.018562,10,0.00013429,-3.31383,-2.0356,-0.0289841,-0.548915,0.276616,
2,1,0,1,0,54282,0.284456,0.284138,0.482074,28,0.0189345,10,0.000136976,-3.31689,-2.83539,-0.0208084,-0.390429,0.284138,
2,1,0,1,0,54282.7,0.291947,0.291613,0.478255,28,0.0193038,10,0.000139466,-3.32034,-1.91595,-0.0307941,-0.575021,0.291613,
2,1,0,1,0,54283.5,0.299437,0.299086,0.472746,28,0.0196704,10,0.000141392,-3.32537,-0.00298055,-19.795,-197.435,0.299086,
2,0,0,1,0,54284.2,0.293745,0.293409,-0.0696066,28,0.0196976,10,-2.04232e-05,-4.15735,-0.0131669,-4.48093,11.0504,0.293409,
2,0,0,1,0,54284.9,0.286253,0.285919,-0.125385,28,0.0196119,10,-3.58499e-05,-3.90176,-0.0522527,-1.12913,5.51467,0.285919,
2,0,0,1,0,54285.7,0.278763,0.278453,-0.161543,28,0.0194931,10,-4.49821e-05,-3.79171,-0.0954849,-0.617899,3.87751,0.278453,
2,0,0,1,0,54286.4,0.271272,0.270926,-0.190408,28,0.0193506,10,-5.15865e-05,-3.72031,-0.133166,-0.443055,3.26521,0.270926,
2,0,0,1,0,54287.2,0.263781,0.263437,-0.213147,28,0.0191883,10,-5.61507e-05,-3.67132,-0.154772,-0.381206,3.18186,0.263437,
2,0,0,1,0,54287.9,0.25629,0.255914,-0.235393,28,0.0190095,10,-6.02405e-05,-3.62821,-0.234017,-0.252119,2.29505,0.255914,
2,0,0,1,0,54288.7,0.248799,0.248449,-0.255101,28,0.0188159,10,-6.33797e-05,-3.59329,-0.279692,-0.210946,2.08196,0.248449,
2,0,0,1,0,54289.4,0.241308,0.240959,-0.268175,28,0.0186096,10,-6.46191e-05,-3.57158,-0.308139,-0.191472,2.00006,0.240959,
2,0,0,1,0,54290.2,0.233817,0.233495,-0.28574,28,0.0183914,10,-6.67189e-05,-3.54403,-0.283124,-0.208389,2.31061,0.233495,
2,0,0,1,0,54290.9,0.226326,0.225976,-0.299326,28,0.0181619,10,-6.76405e-05,-3.52386,-0.370829,-0.159103,1.8564,0.225976,
2,0,0,1,0,54291.7,0.218835,0.218514,-0.31407,28,0.017921,10,-6.86286e-05,-3.50297,-0.307337,-0.191972,2.3569,0.218514,
2,0,0,1,0,54292.4,0.211344,0.210998,-0.328451,28,0.0176692,10,-6.93024e-05,-3.48353,-0.517508,-0.114008,1.45939,0.210998,
2,0,0,1,0,54293.2,0.203854,0.203467,-0.342685,28,0.0174064,10,-6.97252e-05,-3.46511,-0.416649,-0.141606,1.89582,0.2034675,
2,0,0,1,0,54293.9,0.196362,0.196004,-0.358115,28,0.0171326,10,-7.01918e-05,-3.44598,-0.411743,-0.143293,2.00261,0.196004,
2,0,0,1,0,54294.6,0.188872,0.188505,-0.374221,28,0.0168468,10,-7.05425e-05,-3.42687,-0.300977,-0.196028,2.86177,0.188505,
2,0,0,1,0,54295.4,0.18138,0.181042,-0.393647,28,0.0165484,10,-7.12668e-05,-3.40489,-0.377118,-0.15645,2.40235,0.181042,
2,0,0,1,0,54296.1,0.17389,0.173545,-0.413655,28,0.0162357,10,-7.17878e-05,-3.38336,-0.308737,-0.191101,3.08304,0.173545,
2,0,0,1,0,54296.9,0.166398,0.166017,-0.438935,28,0.0159056,10,-7.28709e-05,-3.3576,-0.296589,-0.198929,3.4195,0.166017,
2,0,0,1,0,54297.6,0.158907,0.15852,-0.47312,28,0.0155528,10,-7.49992e-05,-3.32503,-0.186268,-0.316748,5.86684,0.1585204,
2,0,0,1,0,54298.4,0.151417,0.151053,-0.527502,28,0.0151674,10,-7.96808e-05,-3.27778,-0.139552,-0.422782,8.72425,0.151053,
2,0,0,1,0,54299.1,0.143925,0.143586,-0.617913,28,0.0147295,10,-8.87237e-05,-3.20907,-0.0874859,-0.674394,16.2548,0.143586,
2,0,0,1,0,54299.9,0.136435,0.136029,-0.75592,28,0.0142059,10,-0.000102827,-3.12152,-0.0849737,-0.694333,20.4615,0.136029,
2,0,0,1,0,54300.6,0.128943,0.12857,-0.913968,28,0.0135679,10,-0.000117509,-3.03907,-0.104435,-0.564947,20.0882,0.12857,
2,0,0,1,0,54301.4,0.121453,0.121065,-1.04533,28,0.0128191,10,-0.000126553,-2.98075,-0.169712,-0.347648,14.1436,0.1210647,
2,0,0,1,0,54302.1,0.113962,0.1136,-1.11614,28,0.0119921,10,-0.000126794,-2.95228,-0.581876,-0.101396,4.41246,0.1136,
2,0,0,1,0,54302.9,0.106471,0.106108,-1.12387,28,0.0111368,10,-0.000119252,-2.94928,1.86533,0.0316299,-1.39088,0.106108,
2,0,0,1,0,54303.6,0.0989798,0.0986297,-1.10501,28,0.0102887,10,-0.000108987,-2.95663,0.783543,0.075299,-3.2442,0.0986297,
2,0,0,1,0,54304.4,0.0914889,0.091157,-1.07923,28,0.00945963,10,-9.83792e-05,-2.96689,0.678353,0.0869754,-3.65667,0.091157,
2,0,0,1,0,54305.1,0.083998,0.0836843,-1.05142,28,0.00865038,10,-8.79878e-05,-2.97822,0.514379,0.114701,-4.69549,0.0836843,
2,0,0,1,0,54305.9,0.076507,0.0761416,-1.0245,28,0.00786121,10,-7.80071e-05,-2.98949,0.536969,0.109876,-4.38667,0.0761416,
2,0,0,1,0,54306.6,0.069016,0.0686594,-0.993516,28,0.00709348,10,-6.82143e-05,-3.00282,0.571479,0.103241,-4.01335,0.0686594,
2,0,0,1,0,54307.4,0.0615251,0.0611698,-0.965234,28,0.00634706,10,-5.90431e-05,-3.01537,0.604868,0.0975419,-3.68195,0.06116977,
2,0,0,1,0,54308.1,0.0540342,0.0536928,-0.936062,28,0.0056231,10,-5.02598e-05,-3.0287,0.57037,0.103442,-3.77175,0.0536928,
2,0,0,1,0,54308.9,0.0465441,0.0461796,-0.904306,28,0.00492194,10,-4.17605e-05,-3.04368,0.538657,0.109532,-3.86788,0.0461796,
2,0,0,1,0,54309.6,0.0390523,0.0386817,-0.872249,28,0.00424487,10,-3.37401e-05,-3.05936,0.398662,0.147995,-5.02499,0.0386817,
2,0,0,1,0,54310.4,0.0315618,0.0312159,-0.839627,28,0.00359228,10,-2.62097e-05,-3.07591,0.409204,0.144182,-4.72276,0.0312159,
2,0,0,1,0,54311.1,0.0240704,0.0237205,-0.806544,28,0.00296353,10,-1.91316e-05,-3.09337,0.509119,0.115887,-3.65745,0.0237205,
2,0,0,1,0,54311.9,0.0165796,0.0162429,-0.786185,28,0.00235519,10,-1.277e-05,-3.10448,0.873206,0.0675671,-2.07418,0.0162429,
2,0,0,1,0,54312.6,0.00908846,0.0086998,-0.770443,28,0.00176093,10,-6.7027e-06,-3.11326,2.04662,0.0288281,-0.867631,0.0086998,
2,0,0,1,0,54313.4,0.00159728,0.00120775,-0.77781,28,0.00117226,10,-9.39404e-07,-3.10913, , , ,0.00120775,
2,0,0,1,0,54313.5,0.000199195,-0.000184077,-0.767991,28,0.00106199,10,1.4137e-07,-3.11464, , , ,-0.000184077,

File: 20221101_1-115_003_TrumpetPlot_ParaChange_from10_every3_04_CV_C01_28.csv
mode,ox/red,error,control changes,counter inc.,time/s,control/V,Ewe/V,<I>/mA,cycle number,(Q-Qo)/C,I Range,P/W,log(|I|),Tafel slope mV/dec,alpha_eff,dI/d(E-IR),E-IR/V,
2,0,0,1,0,56223.7,2.44065e-05,-0.000344411,-0.395149,29,0.0000000E+000,10,1.36094e-07,-3.40324, , , ,-0.000344411,
2,1,0,1,0,56224.4,0.00729063,0.00697664,0.333493,29,0.000154737,10,2.32666e-06,-3.47691,0.0507225,1.16319,14.9121,0.00697664,
2,1,0,1,0,56225.1,0.0147814,0.0144192,0.409259,29,0.00044608,10,5.90117e-06,-3.388,0.111722,0.528096,8.43285,0.0144192,
2,1,0,1,0,56225.9,0.0222725,0.0219178,0.463862,29,0.000783866,10,1.01668e-05,-3.33361,0.163579,0.360683,6.51518,0.0219178,
2,1,0,1,0,56226.6,0.0297635,0.0294105,0.514114,29,0.00116013,10,1.51204e-05,-3.28894,0.182203,0.323815,6.49432,0.0294105,
2,1,0,1,0,56227.4,0.0372544,0.0368483,0.562647,29,0.00157372,10,2.07326e-05,-3.24976,0.209747,0.281292,6.18713,0.0368483,
2,1,0,1,0,56228.1,0.0447458,0.0444166,0.610421,29,0.00202344,10,2.71128e-05,-3.21437,0.223516,0.263963,6.29829,0.0444166,
2,1,0,1,0,56228.9,0.0522363,0.0519103,0.654681,29,0.00250835,10,3.39847e-05,-3.18397,0.226997,0.259915,6.64391,0.0519103,
2,1,0,1,0,56229.6,0.0597282,0.059386,0.696956,29,0.00302516,10,4.13895e-05,-3.15679,0.301445,0.195724,5.315,0.059386,
2,1,0,1,0,56230.4,0.0672182,0.0668917,0.731358,29,0.00357006,10,4.89218e-05,-3.13587,0.367439,0.160571,4.58003,0.0668917,
2,1,0,1,0,56231.1,0.0747092,0.0743135,0.7606,29,0.00413941,10,5.65229e-05,-3.11884,0.535876,0.1101,3.26753,0.0743135,
2,1,0,1,0,56231.9,0.0822001,0.0818169,0.78618,29,0.00472965,10,6.43229e-05,-3.10448,0.486129,0.121367,3.72734,0.0818169,
2,1,0,1,0,56232.6,0.0896911,0.0892875,0.819221,29,0.00534065,10,7.31462e-05,-3.0866,0.344429,0.171298,5.48507,0.0892875,
2,1,0,1,0,56233.4,0.097182,0.0968164,0.872704,29,0.0059833,10,8.44921e-05,-3.05913,0.216779,0.272166,9.26904,0.0968164,
2,1,0,1,0,56234.1,0.104673,0.104298,0.946946,29,0.00667341,10,9.87642e-05,-3.02367,0.203095,0.290505,10.7076,0.104298,
2,1,0,1,0,56234.9,0.112164,0.111795,1.02045,29,0.00742126,10,0.000114081,-2.99121,0.267263,0.220756,8.77381,0.111795,
2,1,0,1,0,56235.6,0.119655,0.11925,1.06851,29,0.00821565,10,0.00012742,-2.97122,0.668355,0.0882765,3.68369,0.11925,
2,1,0,1,0,56236.4,0.127146,0.126718,1.0915,29,0.00903715,10,0.000138312,-2.96198,0.9955,0.0592667,2.53009,0.126718,
2,1,0,1,0,56237.1,0.134637,0.134266,1.09335,29,0.00987046,10,0.0001468,-2.96124,-0.551747,-0.106933,-4.55629,0.134266,
2,1,0,1,0,56237.9,0.142127,0.141778,1.00591,29,0.0106744,10,0.000142615,-2.99744,-0.120615,-0.489159,-19.1116,0.1417775,
2,1,0,1,0,56238.6,0.149619,0.149255,0.826721,29,0.0113727,10,0.000123392,-3.08264,-0.0773476,-0.76279,-24.6007,0.149255,
2,1,0,1,0,56239.4,0.157109,0.156731,0.677788,29,0.0119403,10,0.00010623,-3.16891,-0.109333,-0.539638,-14.3246,0.156731,
2,1,0,1,0,56240.1,0.164601,0.164217,0.601887,29,0.0124261,10,9.884e-05,-3.22049,-0.201998,-0.292081,-6.88037,0.164217,
2,1,0,1,0,56240.9,0.172091,0.171726,0.565413,29,0.0128721,10,9.70964e-05,-3.24763,-0.390401,-0.151127,-3.34349,0.171726,
2,1,0,1,0,56241.6,0.179582,0.179186,0.547347,29,0.0132984,10,9.80767e-05,-3.26174,-0.885067,-0.0666616,-1.42774,0.179186,
2,1,0,1,0,56242.4,0.187074,0.186748,0.536199,29,0.013713,10,0.000100134,-3.27067,-1.02224,-0.0577163,-1.20511,0.186748,
2,1,0,1,0,56243.1,0.194564,0.194175,0.527247,29,0.0141203,10,0.000102379,-3.27799,-1.11751,-0.0527961,-1.08842,0.194175,
2,1,0,1,0,56243.9,0.202056,0.201717,0.522592,29,0.0145224,10,0.000105416,-3.28184,-1.29726,-0.0454805,-0.924618,0.201717,
2,1,0,1,0,56244.6,0.209546,0.209229,0.517,29,0.0149207,10,0.000108171,-3.28651,-0.980564,-0.0601694,-1.21598,0.209229,
2,1,0,1,0,56245.4,0.217038,0.216676,0.511886,29,0.0153154,10,0.000110913,-3.29083,-2.63876,-0.022359,-0.448055,0.216676,
2,1,0,1,0,56246.1,0.224528,0.224186,0.509153,29,0.0157076,10,0.000114145,-3.29315,-2.4242,-0.024338,-0.483816,0.224186,
2,1,0,1,0,56246.9,0.232019,0.231663,0.506241,29,0.0160971,10,0.000117277,-3.29564,-2.21524,-0.0266337,-0.526104,0.231663,
2,1,0,1,0,56247.6,0.23951,0.239155,0.50327,29,0.0164845,10,0.000120359,-3.2982,-5.36981,-0.0109874,-0.216203,0.239155,
2,1,0,1,0,56248.4,0.247001,0.246648,0.500614,29,0.0168698,10,0.000123475,-3.3005,-2.68892,-0.0219419,-0.428486,0.246648,
2,1,0,1,0,56249.1,0.254492,0.25413,0.496965,29,0.0172527,10,0.000126294,-3.30367,-1.16601,-0.0505999,-0.983714,0.25413,
2,1,0,1,0,56249.9,0.261983,0.261619,0.49312,29,0.0176331,10,0.00012901,-3.30705,-7.52656,-0.0078389,-0.151265,0.261619,
2,1,0,1,0,56250.6,0.269474,0.269071,0.489766,29,0.0180111,10,0.000131782,-3.31001,-32.1664,-0.00183421,-0.0351041,0.269071,
2,1,0,1,0,56251.4,0.276965,0.276593,0.486606,29,0.0183865,10,0.000134592,-3.31282,-7.5843,-0.00777923,-0.147695,0.276593,
2,1,0,1,0,56252.1,0.284456,0.284084,0.483479,29,0.0187591,10,0.000137349,-3.31562,-2.06936,-0.0285112,-0.537424,0.284084,
2,1,0,1,0,56252.9,0.291947,0.29161,0.479813,29,0.0191285,10,0.000139918,-3.31893,-1.36189,-0.0433221,-0.810746,0.29161,
2,1,0,1,0,56253.6,0.299437,0.29913,0.473674,29,0.0194952,10,0.00014169,-3.32452,-0.00319741,-18.4524,-196.168,0.29913,
2,0,0,1,0,56254.3,0.293745,0.293363,-0.06342,29,0.0195303,10,-1.86051e-05,-4.19777,-0.0110515,-5.33863,11.7364,0.293363,
2,0,0,1,0,56255,0.286253,0.28585,-0.120724,29,0.0194498,10,-3.4509e-05,-3.91821,-0.0454887,-1.29703,6.14993,0.28585,
2,0,0,1,0,56255.8,0.278763,0.278436,-0.159794,29,0.0193353,10,-4.44923e-05,-3.79644,-0.0933502,-0.632029,3.88728,0.278436,
2,0,0,1,0,56256.5,0.271272,0.270908,-0.186392,29,0.0191967,10,-5.0495e-05,-3.72957,-0.122606,-0.481218,3.50155,0.270908,
2,0,0,1,0,56257.3,0.263781,0.263462,-0.209869,29,0.0190381,10,-5.52927e-05,-3.67805,-0.178176,-0.331133,2.72595,0.263462,
2,0,0,1,0,56258,0.25629,0.255909,-0.232366,29,0.0188627,10,-5.94646e-05,-3.63383,-0.221765,-0.266048,2.40122,0.255909,
2,0,0,1,0,56258.8,0.248799,0.248421,-0.250101,29,0.0186726,10,-6.21303e-05,-3.60188,-0.255371,-0.231036,2.2584,0.248421,
2,0,0,1,0,56259.5,0.241308,0.240945,-0.266461,29,0.0184695,10,-6.42025e-05,-3.57437,-0.351037,-0.168074,1.75177,0.2409447,
2,0,0,1,0,56260.3,0.233817,0.233427,-0.283354,29,0.0182545,10,-6.61427e-05,-3.54767,-0.329959,-0.17881,1.97489,0.233427,
2,0,0,1,0,56261,0.226326,0.225971,-0.296858,29,0.0180281,10,-6.70813e-05,-3.52745,-0.341914,-0.172558,1.9947,0.225971,
2,0,0,1,0,56261.8,0.218835,0.218501,-0.312509,29,0.0177905,10,-6.82836e-05,-3.50514,-0.321867,-0.183305,2.22796,0.218501,
2,0,0,1,0,56262.5,0.211344,0.210963,-0.325721,29,0.0175421,10,-6.87151e-05,-3.48715,-0.477179,-0.123643,1.56547,0.210963,
2,0,0,1,0,56263.3,0.203854,0.203495,-0.339716,29,0.0172825,10,-6.91305e-05,-3.46888,-0.352747,-0.167259,2.22966,0.203495,
2,0,0,1,0,56264,0.196362,0.195978,-0.355812,29,0.0170119,10,-6.97314e-05,-3.44878,-0.401917,-0.146796,2.03503,0.195978,
2,0,0,1,0,56264.8,0.188872,0.188497,-0.372469,29,0.0167294,10,-7.02092e-05,-3.42891,-0.292933,-0.201411,2.91572,0.188497,
2,0,0,1,0,56265.5,0.18138,0.18103,-0.389884,29,0.0164346,10,-7.05805e-05,-3.40906,-0.340866,-0.173088,2.63662,0.18103,
2,0,0,1,0,56266.3,0.17389,0.173512,-0.409792,29,0.0161261,10,-7.11037e-05,-3.38744,-0.293548,-0.200989,3.20907,0.173512,
2,0,0,1,0,56267,0.166398,0.166026,-0.433299,29,0.0158008,10,-7.19389e-05,-3.36321,-0.31521,-0.187177,3.17491,0.166026,
2,0,0,1,0,56267.8,0.158907,0.158525,-0.465433,29,0.0154538,10,-7.37828e-05,-3.33214,-0.200766,-0.293875,5.36586,0.158525,
2,0,0,1,0,56268.5,0.151417,0.151035,-0.51848,29,0.0150759,10,-7.83086e-05,-3.28527,-0.149097,-0.395715,8.02375,0.151035,
2,0,0,1,0,56269.3,0.143925,0.143547,-0.602798,29,0.0146492,10,-8.65298e-05,-3.21983,-0.0895488,-0.658859,15.4913,0.143547,
2,0,0,1,0,56270,0.136435,0.136064,-0.735108,29,0.0141416,10,-0.000100022,-3.13365,-0.0835783,-0.705925,20.1605,0.136064,
2,0,0,1,0,56270.8,0.128943,0.128589,-0.886116,29,0.0135247,10,-0.000113944,-3.05251,-0.108237,-0.545099,18.7895,0.128589,
2,0,0,1,0,56271.5,0.121453,0.121116,-1.01825,29,0.012799,10,-0.000123326,-2.99215,-0.165157,-0.357236,14.1547,0.1211156,
2,0,0,1,0,56272.3,0.113962,0.113581,-1.09255,29,0.0119929,10,-0.000124094,-2.96156,-0.419695,-0.140578,5.9941,0.113581,
2,0,0,1,0,56273,0.106471,0.106129,-1.1099,29,0.0111533,10,-0.000117792,-2.95472,7.68843,0.00767387,-0.332885,0.106129,
2,0,0,1,0,56273.8,0.0989798,0.0986053,-1.0933,29,0.0103162,10,-0.000107805,-2.96126,1.10898,0.0532021,-2.26599,0.09860529,
2,0,0,1,0,56274.5,0.0914889,0.0911146,-1.07154,29,0.0094952,10,-9.76326e-05,-2.96999,0.84875,0.069514,-2.90191,0.0911146,
2,0,0,1,0,56275.3,0.083998,0.0836568,-1.0465,29,0.00869182,10,-8.75472e-05,-2.98026,0.601708,0.0980543,-4.00256,0.0836568,
2,0,0,1,0,56276,0.076507,0.0761321,-1.02223,29,0.0079067,10,-7.78245e-05,-2.99045,0.636923,0.0926329,-3.69219,0.0761321,
2,0,0,1,0,56276.8,0.069016,0.0687082,-0.991679,29,0.00714207,10,-6.81365e-05,-3.00363,0.587578,0.100412,-3.89642,0.0687082,
2,0,0,1,0,56277.5,0.0615251,0.0611772,-0.963296,29,0.00639828,10,-5.89318e-05,-3.01624,0.592891,0.0995123,-3.74974,0.06117719,
2,0,0,1,0,56278.3,0.0540342,0.0536918,-0.935782,29,0.00567636,10,-5.02438e-05,-3.02883,0.65372,0.0902527,-3.29271,0.0536918,
2,0,0,1,0,56279,0.0465441,0.0462267,-0.904927,29,0.00497652,10,-4.18318e-05,-3.04339,0.570479,0.103422,-3.656,0.0462267,
2,0,0,1,0,56279.8,0.0390523,0.0386701,-0.874216,29,0.00429994,10,-3.3806e-05,-3.05838,0.370497,0.159246,-5.42311,0.0386701,
2,0,0,1,0,56280.5,0.0315618,0.0312277,-0.84206,29,0.00364722,10,-2.62956e-05,-3.07466,0.472019,0.124995,-4.11082,0.0312277,
2,0,0,1,0,56281.3,0.0240704,0.023695,-0.810042,29,0.00301771,10,-1.91939e-05,-3.09149,0.486568,0.121257,-3.84873,0.023695,
2,0,0,1,0,56282,0.0165796,0.0162024,-0.788788,29,0.0024088,10,-1.27802e-05,-3.10304,0.69461,0.0849398,-2.61376,0.0162024,
2,0,0,1,0,56282.8,0.00908846,0.00871994,-0.773202,29,0.00181434,10,-6.74228e-06,-3.11171,1.23759,0.0476733,-1.44012,0.00871994,
2,0,0,1,0,56283.5,0.00159728,0.00121295,-0.777361,29,0.00122656,10,-9.42901e-07,-3.10938, , , ,0.00121295,
2,0,0,1,0,56283.6,0.000199195,-0.000203165,-0.771166,29,0.0011165,10,1.56674e-07,-3.11285, , , ,-0.0002031647,