Folder: Figs_alphaMnO2_OER_Tafel_sleope/Figure_codes/Fig_3-5/rawdata_trumpetplot_data/after 10th (part 139)

File: 20221101_1-115_003_TrumpetPlot_ParaChange_from10_every3_09_CV_C01_34.csv
mode,ox/red,error,control changes,counter inc.,time/s,control/V,Ewe/V,<I>/mA,cycle number,(Q-Qo)/C,I Range,P/W,log(|I|),Tafel slope mV/dec,alpha_eff,dI/d(E-IR),E-IR/V,
2,0,0,0,0,68167,2.44065e-05,-0.000325324,-5.19973,35,0.0000000E+000,10,1.6916e-06,-2.28402, , , ,-0.000325324,
2,1,0,1,0,68167,0.00978761,0.00947558,0.831366,35,-0.000131847,10,7.87768e-06,-3.08021,0.00474748,12.4276,287.42,0.00947558,
2,1,0,1,0,68167.1,0.0197755,0.0194699,2.68122,35,5.7072e-05,10,5.2203e-05,-2.57167,0.0520421,1.1337,117.783,0.0194699,
2,1,0,1,0,68167.2,0.0297635,0.0294505,3.59489,35,0.00037475,10,0.000105871,-2.44431,0.117866,0.50057,70.0578,0.0294505,
2,1,0,1,0,68167.3,0.0397514,0.0394087,4.20804,35,0.000765953,10,0.000165833,-2.37592,0.165661,0.35615,58.5022,0.0394087,
2,1,0,1,0,68167.4,0.0497484,0.0494375,4.73151,35,0.00121306,10,0.000233914,-2.325,0.223577,0.263891,48.6702,0.0494375,
2,1,0,1,0,68167.5,0.0597273,0.0594418,5.20562,35,0.00170895,10,0.000309432,-2.28353,0.262082,0.225121,45.6642,0.0594418,
2,1,0,1,0,68167.6,0.0697152,0.0693986,5.6284,35,0.0022505,10,0.000390603,-2.24962,0.332813,0.177277,38.9654,0.0693986,
2,1,0,1,0,68167.7,0.0797031,0.0793937,6.01271,35,0.00283261,10,0.000477371,-2.22093,0.385116,0.1532,35.9493,0.0793937,
2,1,0,1,0,68167.8,0.0896911,0.0893722,6.33495,35,0.00344997,10,0.000566168,-2.19826,0.470421,0.125419,31.0244,0.0893722,
2,1,0,1,0,68167.9,0.099679,0.0993524,6.67903,35,0.00409876,10,0.000663578,-2.17529,0.38476,0.153342,39.9312,0.0993524,
2,1,0,1,0,68168,0.109667,0.109355,7.15784,35,0.00478817,10,0.000782744,-2.14522,0.284338,0.2075,58.0099,0.109355,
2,1,0,1,0,68168.1,0.119655,0.11933,7.80147,35,0.00553492,10,0.000930947,-2.10782,0.292186,0.201926,61.4372,0.11933,
2,1,0,1,0,68168.2,0.129643,0.129321,8.37519,35,0.00634415,10,0.00108309,-2.07701,0.391334,0.150766,49.2306,0.129321,
2,1,0,1,0,68168.3,0.139631,0.139305,8.73766,35,0.00720133,10,0.0012172,-2.0586,0.76061,0.0775694,26.4509,0.139305,
2,1,0,1,0,68168.4,0.149619,0.149327,8.78209,35,0.00808,10,0.0013114,-2.0564,-0.751049,-0.0785568,-26.8554,0.149327,
2,1,0,1,0,68168.5,0.159607,0.159274,8.07493,35,0.00892935,10,0.00128612,-2.09286,-0.161728,-0.36481,-114.854,0.159274,
2,1,0,1,0,68168.6,0.169595,0.169258,6.76681,35,0.00967216,10,0.00114534,-2.16962,-0.116641,-0.505824,-133.571,0.169258,
2,1,0,1,0,68168.7,0.179582,0.179249,5.64021,35,0.0102885,10,0.001011,-2.2487,-0.14381,-0.410263,-90.5265,0.179249,
2,1,0,1,0,68168.8,0.18957,0.189226,4.93758,35,0.0108144,10,0.000934318,-2.30649,-0.211496,-0.278966,-53.8235,0.189226,
2,1,0,1,0,68168.9,0.199558,0.199228,4.50678,35,0.0112841,10,0.000897876,-2.34613,-0.315886,-0.186776,-32.8248,0.199228,
2,1,0,1,0,68169,0.209546,0.209237,4.23085,35,0.0117195,10,0.000885252,-2.37357,-0.381757,-0.154549,-25.5213,0.209237,
2,1,0,1,0,68169.1,0.219534,0.219219,4.03945,35,0.0121321,10,0.000885523,-2.39368,-0.636895,-0.0926369,-14.6191,0.219219,
2,1,0,1,0,68169.2,0.229522,0.229237,3.91217,35,0.0125295,10,0.000896812,-2.40758,-0.825328,-0.0714867,-10.9183,0.229237,
2,1,0,1,0,68169.3,0.23951,0.239179,3.82393,35,0.0129162,10,0.000914606,-2.41749,-1.2797,-0.0461044,-6.88438,0.239179,
2,1,0,1,0,68169.4,0.249498,0.249206,3.76028,35,0.0132947,10,0.000937087,-2.42478,-1.3753,-0.0428998,-6.29154,0.2492065,
2,1,0,1,0,68169.5,0.259486,0.259165,3.70319,35,0.0136675,10,0.000959738,-2.43142,-1.38353,-0.0426447,-6.15973,0.259165,
2,1,0,1,0,68169.6,0.269474,0.269174,3.64943,35,0.0140353,10,0.000982334,-2.43777,-2.02493,-0.0291368,-4.15536,0.269174,
2,1,0,1,0,68169.7,0.279462,0.279118,3.61025,35,0.0143986,10,0.00100768,-2.44246,-2.08738,-0.0282652,-3.98531,0.279118,
2,1,0,1,0,68169.8,0.28945,0.289126,3.5694,35,0.0147577,10,0.00103201,-2.44741,-1.96681,-0.0299979,-4.17851,0.289126,
2,1,0,1,0,68169.9,0.299438,0.299163,3.52762,35,0.0151122,10,0.00105533,-2.45252,-0.0386641,-1.52596,-196.857,0.299163,
2,0,0,1,0,68170,0.291747,0.291422,-0.419408,35,0.0152058,10,-0.000122225,-3.37736,-0.00140447,-42.0086,183.175,0.291422,
2,0,0,1,0,68170.1,0.281759,0.28144,-1.44914,35,0.015103,10,-0.000407847,-2.83889,-0.0547726,-1.07718,60.299,0.28144,
2,0,0,1,0,68170.2,0.271771,0.271443,-1.88205,35,0.0149345,10,-0.00051087,-2.72537,-0.125501,-0.470117,34.4502,0.271443,
2,0,0,1,0,68170.3,0.261783,0.26142,-2.14984,35,0.0147323,10,-0.000562013,-2.66759,-0.233678,-0.252485,21.1712,0.26142,
2,0,0,1,0,68170.4,0.251795,0.251478,-2.34563,35,0.0145073,10,-0.000589874,-2.62974,-0.306592,-0.192438,17.6348,0.251478,
2,0,0,1,0,68170.5,0.241807,0.241507,-2.50377,35,0.0142644,10,-0.000604678,-2.60141,-0.374154,-0.157689,15.4561,0.241507,
2,0,0,1,0,68170.6,0.231815,0.231507,-2.65065,35,0.0140068,10,-0.000613645,-2.57665,-0.385719,-0.152961,15.8107,0.231507,
2,0,0,1,0,68170.7,0.221831,0.221532,-2.77585,35,0.0137361,10,-0.000614939,-2.5566,-0.469971,-0.12554,13.5896,0.221532,
2,0,0,1,0,68170.8,0.211843,0.211509,-2.89623,35,0.0134528,10,-0.000612578,-2.53817,-0.602594,-0.0979101,11.0576,0.211509,
2,0,0,1,0,68170.9,0.201856,0.201556,-3.01576,35,0.0131575,10,-0.000607846,-2.5206,-0.607757,-0.0970783,11.4181,0.201556,
2,0,0,1,0,68171,0.191868,0.19154,-3.13948,35,0.0128501,10,-0.000601337,-2.50314,-0.548844,-0.107499,13.1697,0.19154,
2,0,0,1,0,68171.1,0.18188,0.181576,-3.27984,35,0.0125303,10,-0.000595538,-2.48415,-0.453412,-0.130125,16.62,0.181576,
2,0,0,1,0,68171.2,0.171892,0.171555,-3.43754,35,0.0121952,10,-0.000589727,-2.46375,-0.487716,-0.120972,16.2282,0.171555,
2,0,0,1,0,68171.3,0.161904,0.161567,-3.64188,35,0.0118422,10,-0.000588406,-2.43867,-0.33604,-0.175574,24.9727,0.161567,
2,0,0,1,0,68171.4,0.151916,0.151614,-3.9439,35,0.0114639,10,-0.000597948,-2.40407,-0.227319,-0.259547,40.0979,0.151614,
2,0,0,1,0,68171.5,0.141928,0.141624,-4.4989,35,0.0110443,10,-0.000637153,-2.34689,-0.137429,-0.429314,75.5155,0.141624,
2,0,0,1,0,68171.6,0.13194,0.131629,-5.4431,35,0.0105514,10,-0.00071647,-2.26415,-0.110881,-0.5321,113.042,0.131629,
2,0,0,1,0,68171.7,0.121952,0.121627,-6.60774,35,0.00994952,10,-0.000803677,-2.17995,-0.135625,-0.435022,111.998,0.121627,
2,0,0,1,0,68171.8,0.111964,0.111635,-7.6597,35,0.00923477,10,-0.000855095,-2.11579,-0.184304,-0.320124,95.6253,0.111635,
2,0,0,1,0,68171.9,0.101976,0.101683,-8.44379,35,0.00842709,10,-0.00085859,-2.07346,-0.33994,-0.17356,57.087,0.101683,
2,0,0,1,0,68172,0.0919883,0.091683,-8.80114,35,0.00756166,10,-0.000806915,-2.05546,-1.34591,-0.0438364,15.0474,0.091683,
2,0,0,1,0,68172.1,0.0820004,0.0816813,-8.73819,35,0.00668289,10,-0.000713747,-2.05858,0.929367,0.063484,-21.6505,0.0816813,
2,0,0,1,0,68172.2,0.0720124,0.0716625,-8.50083,35,0.00582107,10,-0.00060919,-2.07054,0.803808,0.0734007,-24.3667,0.0716625,
2,0,0,1,0,68172.3,0.0620245,0.0616798,-8.29201,35,0.00498243,10,-0.00051145,-2.08134,0.90495,0.065197,-21.0941,0.0616798,
2,0,0,1,0,68172.4,0.0520366,0.0517162,-8.10219,35,0.00416318,10,-0.000419015,-2.0914,0.866351,0.0681017,-21.5236,0.0517162,
2,0,0,1,0,68172.5,0.0420486,0.0416888,-7.87775,35,0.00336433,10,-0.000328414,-2.1036,0.810948,0.0727544,-22.3743,0.0416888,
2,0,0,1,0,68172.6,0.0320607,0.0317277,-7.61312,35,0.00259053,10,-0.000241547,-2.11844,0.576761,0.102295,-30.3731,0.0317277,
2,0,0,1,0,68172.7,0.0220728,0.0216876,-7.28034,35,0.00184611,10,-0.000157893,-2.13785,0.478684,0.123255,-35.0305,0.0216876,
2,0,0,1,0,68172.8,0.0120848,0.0117607,-6.94377,35,0.00113557,10,-8.16635e-05,-2.1584,0.472537,0.124858,-33.832,0.0117607,
2,0,0,1,0,68172.9,0.0020969,0.00173828,-6.70557,35,0.00045651,10,-1.16561e-05,-2.17356,0.935672,0.0630563,-16.4237,0.00173828,
2,0,0,1,0,68173,-0.00789103,-0.00826897,-6.49257,35,-0.000201412,10,5.36869e-05,-2.18758,1.20021,0.0491581,-12.4768,-0.008268971,
2,0,0,1,0,68173.1,-0.017879,-0.018284,-6.44741,35,-0.000846562,10,0.000117884,-2.19061,-88.3414,-0.000667864,0.167848,-0.018284,
2,0,0,1,0,68173.2,-0.0278669,-0.0282857,-6.48409,35,-0.00149189,10,0.000183407,-2.18815,-1.9403,-0.0304076,7.70307,-0.0282857,
2,0,0,1,0,68173.3,-0.0378548,-0.0382456,-6.62117,35,-0.00214623,10,0.000253231,-2.17906,-0.988078,-0.0597119,15.4223,-0.0382456,
2,0,0,1,0,68173.4,-0.0478428,-0.0482033,-6.81129,35,-0.00281701,10,0.000328326,-2.16677,-0.584042,-0.10102,26.8782,-0.0482033,
2,0,0,1,0,68173.5,-0.0578216,-0.058182,-7.07098,35,-0.00350962,10,0.000411404,-2.15052,-0.554555,-0.106392,29.3432,-0.058182,
2,0,0,1,0,68173.6,-0.0678187,-0.0681729,-7.38239,35,-0.00423132,10,0.000503279,-2.1318,-0.459231,-0.128476,37.0059,-0.0681729,
2,0,0,1,0,68173.7,-0.0778066,-0.07816,-7.76031,35,-0.00498765,10,0.000606546,-2.11012,-0.454764,-0.129738,39.3063,-0.07816,
2,0,0,1,0,68173.8,-0.0877945,-0.0881669,-8.21591,35,-0.00578554,10,0.000724371,-2.08534,-0.397441,-0.14845,47.5992,-0.0881669,
2,0,0,1,0,68173.9,-0.0977825,-0.0981188,-8.69547,35,-0.00663067,10,0.00085319,-2.06071,-0.408254,-0.144518,49.0595,-0.0981188,
2,0,0,1,1,68174,-0.0927386,-0.0931105,-3.05702,35,-0.0072098,10,0.000284641,-2.5147,-0.014568,-4.04997,479.35,-0.0931105,
2,1,0,1,1,68174.1,-0.0827529,-0.0831131,0.37158,35,-0.00732488,10,-3.08832e-05,-3.42995,0.00564895,10.4444,246.67,-0.0831131,
2,1,0,1,1,68174.2,-0.0727627,-0.0731364,2.31623,35,-0.00718247,10,-0.000169401,-2.63522,0.0344731,1.71148,152.475,-0.0731364,
2,1,0,1,1,68174.3,-0.0627747,-0.0631539,3.51833,35,-0.00688595,10,-0.000222196,-2.45366,0.0840861,0.701662,96.2143,-0.0631539,
2,1,0,1,1,68174.4,-0.0527868,-0.0532039,4.286,35,-0.00649217,10,-0.000228032,-2.36795,0.168769,0.34959,58.4025,-0.0532039,
2,1,0,1,1,68174.5,-0.0427989,-0.0431573,4.75663,35,-0.0060377,10,-0.000205283,-2.3227,0.289737,0.203633,37.8233,-0.0431573,
2,1,0,1,1,68174.6,-0.0328109,-0.0331343,5.03894,35,-0.00554703,10,-0.000166962,-2.29766,0.587832,0.100369,19.7107,-0.0331343,
2,1,0,1,1,68174.7,-0.022823,-0.0231637,5.16962,35,-0.00503607,10,-0.000119748,-2.28654,1.53734,0.0383779,7.74045,-0.0231637,
2,1,0,1,1,68174.8,-0.0128351,-0.0131906,5.21002,35,-0.00451649,10,-6.87233e-05,-2.28316,-736.007,-8.01623e-05,-0.0163112,-0.0131906,
2,1,0,1,1,68174.9,-0.00284713,-0.00319714,5.21445,35,-0.00399511,10,-1.66713e-05,-2.28279,-3.84995,-0.0153249,-3.11521,-0.00319714,
2,1,0,1,1,68175,-2.55332e-05,-0.000439847,5.22356,35,-0.00384861,10,-2.29757e-06,-2.28203, , , ,-0.000439847,

File: 20221101_1-115_003_TrumpetPlot_ParaChange_from10_every3_10_CV_C01_0.csv
mode,ox/red,error,control changes,counter inc.,time/s,control/V,Ewe/V,<I>/mA,cycle number,(Q-Qo)/C,I Range,P/W,log(|I|),Tafel slope mV/dec,alpha_eff,dI/d(E-IR),E-IR/V,
2,1,0,1,0,1190.52,-2.44065e-05,-0.000344411,5.42582,1,0.0000000E+000,10,-1.86871e-06,-2.26554, , , ,-0.000344411,
2,1,0,1,0,1190.57,0.00977853,0.00943437,9.0646,1,0.000375389,10,8.55187e-05,-2.04265,0.119268,0.494682,173.761,0.00943437,
2,1,0,1,0,1190.62,0.0197755,0.0194795,10.0749,1,0.000858262,10,0.000196254,-1.99676,0.389419,0.151508,59.6065,0.0194795,
2,1,0,1,0,1190.67,0.0297726,0.0294457,10.5922,1,0.00137578,10,0.000311893,-1.97502,0.552358,0.106815,44.097,0.0294457,
2,1,0,1,0,1190.72,0.0397514,0.0394304,11.0758,1,0.00191594,10,0.000436724,-1.95562,0.405936,0.145343,62.907,0.0394304,
2,1,0,1,0,1190.77,0.0497393,0.0494154,11.7448,1,0.00248439,10,0.000580372,-1.93016,0.358955,0.164366,75.1816,0.0494154,
2,1,0,1,0,1190.82,0.0597364,0.0594232,12.5712,1,0.00309111,10,0.00074702,-1.90062,0.300127,0.196584,96.4545,0.0594232,
2,1,0,1,0,1190.87,0.0697152,0.0694086,13.5257,1,0.00374221,10,0.000938797,-1.86884,0.326798,0.18054,95.3053,0.0694086,
2,1,0,1,0,1190.92,0.0796941,0.0793972,14.5655,1,0.00444327,10,0.00115646,-1.83667,0.328035,0.179859,102.289,0.0793972,
2,1,0,1,0,1190.97,0.0896911,0.0893469,15.5735,1,0.00519726,10,0.00139144,-1.80761,0.362823,0.162614,98.7955,0.0893469,
2,1,0,1,0,1191.02,0.099679,0.0993566,16.5519,1,0.00599879,10,0.00164454,-1.78115,0.389862,0.151335,97.745,0.0993566,
2,1,0,1,0,1191.07,0.109658,0.109349,17.6001,1,0.00684989,10,0.00192455,-1.75448,0.345905,0.170567,117.096,0.109349,
2,1,0,1,0,1191.12,0.119655,0.11931,18.962,1,0.00776226,10,0.00226235,-1.72212,0.281779,0.209384,155.1,0.11931,
2,1,0,1,0,1191.17,0.129652,0.129324,20.6812,1,0.00875281,10,0.00267458,-1.68442,0.258431,0.228301,184.236,0.129324,
2,1,0,1,0,1191.22,0.139631,0.139326,22.4553,1,0.00983012,10,0.00312861,-1.64868,0.306705,0.192368,168.645,0.139326,
2,1,0,1,0,1191.27,0.149619,0.14931,24.027,1,0.0109912,10,0.00358746,-1.6193,0.392824,0.150195,140.617,0.14931,
2,1,0,1,0,1191.32,0.159616,0.15931,24.9749,1,0.0122204,10,0.00397875,-1.6025,1.60487,0.036763,35.8263,0.15931,
2,1,0,1,0,1191.37,0.169595,0.169309,24.2642,1,0.0134597,10,0.00410816,-1.61503,-0.253725,-0.232535,-219.335,0.169309,
2,1,0,1,0,1191.42,0.179573,0.179271,20.3662,1,0.0145858,10,0.00365106,-1.69109,-0.0887135,-0.665062,-527.891,0.1792707,
2,1,0,1,0,1191.47,0.18957,0.189272,15.178,1,0.0154707,10,0.00287278,-1.81879,-0.0772718,-0.763538,-452.821,0.189272,
2,1,0,1,0,1191.52,0.199558,0.199227,11.8919,1,0.0161359,10,0.0023692,-1.92475,-0.125646,-0.469572,-218.353,0.199227,
2,1,0,1,0,1191.57,0.209537,0.209267,10.3822,1,0.0166862,10,0.00217265,-1.98371,-0.219424,-0.268886,-108.9,0.2092673,
2,1,0,1,0,1191.62,0.219534,0.219199,9.55597,1,0.0171826,10,0.00209466,-2.01973,-0.359435,-0.164146,-61.332,0.219199,
2,1,0,1,0,1191.67,0.229531,0.229232,9.04926,1,0.0176474,10,0.00207438,-2.04339,-0.439123,-0.134359,-47.4101,0.229232,
2,1,0,1,0,1191.72,0.23951,0.239217,8.67154,1,0.0180891,10,0.00207438,-2.0619,-0.665473,-0.0886587,-30.0578,0.239217,
2,1,0,1,0,1191.77,0.249498,0.249219,8.40156,1,0.0185147,10,0.00209383,-2.07564,-0.731419,-0.0806651,-26.4018,0.249219,
2,1,0,1,0,1191.82,0.259495,0.259223,8.16149,1,0.0189285,10,0.00211565,-2.08823,-0.804705,-0.0733188,-23.3928,0.259223,
2,1,0,1,0,1191.87,0.269474,0.269166,7.9828,1,0.0193313,10,0.0021487,-2.09784,-1.15662,-0.0510109,-15.8859,0.269166,
2,1,0,1,0,1191.92,0.279453,0.27916,7.81478,1,0.0197256,10,0.00218157,-2.10708,-1.24628,-0.0473409,-14.4673,0.27916,
2,1,0,1,0,1191.97,0.28945,0.289149,7.67789,1,0.020113,10,0.00222006,-2.11476,-1.64004,-0.0359748,-10.7589,0.289149,
2,1,0,1,0,1192.02,0.299438,0.299177,7.54461,1,0.0204927,10,0.00225717,-2.12236,-0.0489607,-1.20505,-336.956,0.299177,
2,0,0,1,0,1192.06,0.291747,0.291414,-1.73588,1,0.0205668,10,-0.000505858,-2.76048,-0.00985246,-5.98835,350.102,0.2914139,
2,0,0,1,0,1192.11,0.28175,0.281441,-3.3757,1,0.0204288,10,-0.000950058,-2.47164,-0.0946187,-0.623555,81.6623,0.281441,
2,0,0,1,0,1192.16,0.27178,0.271449,-3.98244,1,0.0202441,10,-0.00108103,-2.39985,-0.180379,-0.327089,50.8294,0.271449,
2,0,0,1,0,1192.21,0.261783,0.261475,-4.41373,1,0.0200338,10,-0.00115408,-2.35519,-0.283064,-0.208434,35.8069,0.261475,
2,0,0,1,0,1192.26,0.251786,0.251464,-4.75231,1,0.0198044,10,-0.00119504,-2.32309,-0.330305,-0.178623,33.1676,0.251464,
2,0,0,1,0,1192.31,0.241807,0.241486,-5.06154,1,0.0195592,10,-0.00122229,-2.29572,-0.39454,-0.149541,29.5773,0.241486,
2,0,0,1,0,1192.36,0.231824,0.23147,-5.35763,1,0.0192991,10,-0.00124013,-2.27103,-0.387914,-0.152096,31.8018,0.23147,
2,0,0,1,0,1192.41,0.221822,0.221494,-5.6441,1,0.0190242,10,-0.00125014,-2.24841,-0.43127,-0.136805,30.0908,0.221494,
2,0,0,1,0,1192.46,0.211844,0.211557,-5.93356,1,0.0187353,10,-0.00125528,-2.22668,-0.510772,-0.115511,26.8049,0.211557,
2,0,0,1,0,1192.51,0.201865,0.201579,-6.27386,1,0.0184306,10,-0.00126468,-2.20247,-0.437235,-0.134939,33.0676,0.201579,
2,0,0,1,0,1192.56,0.191868,0.191553,-6.6697,1,0.018107,10,-0.0012776,-2.17589,-0.340345,-0.173353,45.2488,0.191553,
2,0,0,1,0,1192.61,0.18188,0.181567,-7.21562,1,0.0177613,10,-0.00131012,-2.14173,-0.251247,-0.234829,66.042,0.181567,
2,0,0,1,0,1192.66,0.171901,0.171566,-7.95565,1,0.0173841,10,-0.00136492,-2.09932,-0.204415,-0.288628,89.6347,0.171566,
2,0,0,1,0,1192.71,0.161904,0.161598,-9.09114,1,0.0169599,10,-0.00146911,-2.04138,-0.153558,-0.384219,136.38,0.161598,
2,0,0,1,0,1192.76,0.151907,0.151586,-10.8596,1,0.0164641,10,-0.00164617,-1.96419,-0.112731,-0.523369,222.124,0.151586,
2,0,0,1,0,1192.81,0.141928,0.14162,-13.498,1,0.0158595,10,-0.00191158,-1.86973,-0.100471,-0.587236,309.251,0.14162,
2,0,0,1,0,1192.86,0.13194,0.131657,-16.6819,1,0.0151066,10,-0.00219628,-1.77775,-0.117259,-0.50316,328.1,0.131657,
2,0,0,1,0,1192.91,0.121943,0.121655,-19.9026,1,0.0141893,10,-0.00242124,-1.70109,-0.1614,-0.36555,283.412,0.121655,
2,0,0,1,0,1192.96,0.111964,0.111692,-22.3189,1,0.0131321,10,-0.00249284,-1.65133,-0.255169,-0.23122,201.309,0.1116918,
2,0,0,1,0,1193.01,0.101985,0.101674,-23.7434,1,0.0119775,10,-0.00241408,-1.62446,-0.715163,-0.0824986,76.3372,0.101674,
2,0,0,1,0,1193.06,0.0919883,0.0916469,-23.8958,1,0.0107811,10,-0.00218998,-1.62168,1.29712,0.0454855,-42.4068,0.09164691,
2,0,0,1,0,1193.11,0.0820004,0.0816817,-22.8478,1,0.00961026,10,-0.00186625,-1.64116,0.343925,0.171549,-152.782,0.0816817,
2,0,0,1,0,1193.16,0.0720215,0.071718,-21.1387,1,0.0085126,10,-0.00151602,-1.67492,0.285596,0.206586,-170.496,0.071718,
2,0,0,1,0,1193.21,0.0620245,0.0617128,-19.6398,1,0.00749515,10,-0.00121203,-1.70686,0.344389,0.171318,-131.327,0.0617128,
2,0,0,1,0,1193.26,0.0520275,0.0517483,-18.4788,1,0.00654334,10,-0.000956248,-1.73333,0.389514,0.151471,-109.212,0.0517483,
2,0,0,1,0,1193.31,0.0420486,0.0417582,-17.409,1,0.0056478,10,-0.000726968,-1.75923,0.372943,0.158201,-107.56,0.0417582,
2,0,0,1,0,1193.36,0.0320607,0.031724,-16.223,1,0.00480766,10,-0.000514659,-1.78987,0.28302,0.208466,-131.863,0.031724,
2,0,0,1,0,1193.41,0.0220637,0.0217474,-14.8377,1,0.00403125,10,-0.000322682,-1.82863,0.251255,0.234821,-135.956,0.0217474,
2,0,0,1,0,1193.46,0.0120848,0.0117466,-13.6285,1,0.0033229,10,-0.000160089,-1.86555,0.308039,0.191534,-101.884,0.01174661,
2,0,0,1,0,1193.51,0.00210598,0.0017899,-12.8956,1,0.00266466,10,-2.30817e-05,-1.88956,0.669422,0.0881357,-44.2623,0.0017899,
2,0,0,1,0,1193.56,-0.00789103,-0.00824049,-12.4826,1,0.00203142,10,0.000102862,-1.9037,1.60486,0.0367633,-17.9444,-0.00824049,
2,0,0,1,0,1193.61,-0.017879,-0.018242,-12.442,1,0.00141031,10,0.000226967,-1.90511,-3.34209,-0.0176536,8.56653,-0.018242,
2,0,0,1,0,1193.66,-0.0278578,-0.0281998,-12.5645,1,0.000787247,10,0.000354317,-1.90085,-1.51072,-0.0390541,19.1619,-0.0281998,
2,0,0,1,0,1193.71,-0.0378548,-0.0381989,-12.8302,1,0.000152901,10,0.000490101,-1.89177,-0.997284,-0.0591607,29.5961,-0.0381989,
2,0,0,1,0,1193.76,-0.0478519,-0.048159,-13.1605,1,-0.000496827,10,0.000633798,-1.88073,-0.711581,-0.0829139,42.6493,-0.048159,
2,0,0,1,0,1193.81,-0.0578126,-0.0581556,-13.5876,1,-0.00116299,10,0.000790195,-1.86686,-0.700185,-0.0842634,44.6893,-0.0581556,
2,0,0,1,0,1193.86,-0.0678187,-0.0681782,-14.0884,1,-0.00185479,10,0.000960518,-1.85114,-0.579268,-0.101853,55.9932,-0.0681782,
2,0,0,1,0,1193.91,-0.0778157,-0.0782007,-14.6762,1,-0.00257366,10,0.00114769,-1.83338,-0.544659,-0.108325,62.0678,-0.07820075,
2,0,0,1,0,1193.96,-0.0877945,-0.0881485,-15.3997,1,-0.00332362,10,0.00135746,-1.81249,-0.462598,-0.127541,76.6377,-0.0881485,
2,0,0,1,0,1194.01,-0.0977734,-0.0981279,-16.2095,1,-0.00411213,10,0.0015906,-1.79023,-0.422104,-0.139776,88.4555,-0.0981279,
2,0,0,1,1,1194.05,-0.0936874,-0.0940855,-4.53185,1,-0.00459504,10,0.000426381,-2.34372,-0.00778212,-7.58148,1268.66,-0.0940855,
2,1,0,1,1,1194.1,-0.0837086,-0.0841031,3.64722,1,-0.00458675,10,-0.000306743,-2.43804,0.0151996,3.88169,524.687,-0.08410307,
2,1,0,1,1,1194.15,-0.0737025,-0.0740501,7.43521,1,-0.00429822,10,-0.000550578,-2.12871,0.0646377,0.91278,262.974,-0.0740501,
2,1,0,1,1,1194.2,-0.0637236,-0.0640547,9.31895,1,-0.00387475,10,-0.000596923,-2.03063,0.167249,0.352767,127.968,-0.0640547,
2,1,0,1,1,1194.25,-0.0537447,-0.0540535,10.262,1,-0.00338352,10,-0.000554698,-1.98877,0.375943,0.156939,62.7934,-0.0540535,
2,1,0,1,1,1194.3,-0.0437477,-0.0440891,10.7234,1,-0.00285732,10,-0.000472787,-1.96967,0.877339,0.0672488,28.1142,-0.04408909,
2,1,0,1,1,1194.35,-0.0337507,-0.0341203,10.9056,1,-0.00231559,10,-0.000372102,-1.96235,2.6534,0.0222357,9.47385,-0.0341203,
2,1,0,1,1,1194.4,-0.0237809,-0.024109,10.9389,1,-0.00177119,10,-0.000263727,-1.96103,70.7346,0.000834104,0.355694,-0.024109,
2,1,0,1,1,1194.45,-0.0137839,-0.0141072,10.8637,1,-0.00122582,10,-0.000153256,-1.96402,-1.86211,-0.0316845,-13.4425,-0.0141072,
2,1,0,1,1,1194.5,-0.0037869,-0.00411676,10.7685,1,-0.00068505,10,-4.43313e-05,-1.96784,-2.34075,-0.0252056,-10.5808,-0.00411676,
2,1,0,0,1,1194.52,-2.55332e-05,-0.000478022,10.7125,1,-0.000484248,10,-5.12082e-06,-1.97011, , , ,-0.000478022,