Folder: Figs_alphaMnO2_OER_Tafel_sleope/Figure_codes/Fig_3-5/rawdata_trumpetplot_data/after 10th (part 197)

File: 20221101_1-115_003_TrumpetPlot_ParaChange_from10_every3_13_CV_C01_10.csv
mode,ox/red,error,control changes,counter inc.,time/s,control/V,Ewe/V,<I>/mA,cycle number,(Q-Qo)/C,I Range,P/W,log(|I|),Tafel slope mV/dec,alpha_eff,dI/d(E-IR),E-IR/V,
2,1,0,1,0,20899.2,2.44065e-05,-0.000306236,21.1244,11,0.0000000E+000,10,-6.46904e-06,-1.67522, , , ,-0.000306236,
2,1,0,1,0,20899.2,0.0122624,0.0119171,25.2997,11,0.000355803,10,0.000301498,-1.59688,0.225938,0.261134,256.036,0.01191707,
2,1,0,1,0,20899.2,0.0250636,0.0247024,28.1123,11,0.000784377,10,0.00069444,-1.5511,0.329453,0.179085,195.881,0.0247024,
2,1,0,1,0,20899.2,0.0378704,0.0374739,30.3986,11,0.00125315,10,0.00113916,-1.51715,0.419508,0.140641,166.617,0.0374739,
2,1,0,1,0,20899.2,0.0506632,0.0502911,32.4403,11,0.00175636,10,0.00163146,-1.48891,0.473108,0.124707,157.866,0.0502911,
2,1,0,1,0,20899.2,0.0634672,0.0631082,34.4643,11,0.00229191,10,0.00217498,-1.46263,0.501363,0.117679,158.253,0.0631082,
2,1,0,1,0,20899.3,0.0762629,0.0758808,36.547,11,0.00286007,10,0.00277322,-1.43715,0.505891,0.116626,166.28,0.0758808,
2,1,0,1,0,20899.3,0.0890668,0.0886884,38.72,11,0.0034622,10,0.00343401,-1.41207,0.511984,0.115238,174.098,0.0886884,
2,1,0,1,0,20899.3,0.10186,0.101469,40.9674,11,0.00409985,10,0.00415694,-1.38756,0.520406,0.113373,181.334,0.101469,
2,1,0,1,0,20899.3,0.114666,0.114274,43.3312,11,0.00477461,10,0.00495163,-1.3632,0.537648,0.109737,185.564,0.114274,
2,1,0,1,0,20899.3,0.127462,0.127086,45.7146,11,0.00548703,10,0.00580967,-1.33994,0.53324,0.110644,197.689,0.1270857,
2,1,0,1,0,20899.3,0.140263,0.139905,48.4242,11,0.00624038,10,0.00677478,-1.31494,0.515136,0.114533,216.484,0.139905,
2,1,0,1,0,20899.4,0.153064,0.152697,51.2872,11,0.00703813,10,0.00783138,-1.28999,0.521386,0.11316,226.412,0.152697,
2,1,0,1,0,20899.4,0.165866,0.165513,54.1446,11,0.00788205,10,0.00896162,-1.26644,0.579789,0.101761,214.843,0.165513,
2,1,0,1,0,20899.4,0.178667,0.178312,56.6973,11,0.00876973,10,0.0101098,-1.24644,0.730585,0.0807572,178.443,0.178312,
2,1,0,1,0,20899.4,0.191463,0.191073,58.599,11,0.00969365,10,0.0111967,-1.23211,1.28596,0.0458801,104.627,0.191073,
2,1,0,1,0,20899.4,0.204269,0.203937,59.1995,11,0.0106383,10,0.0120729,-1.22768,-5.5812,-0.0105712,-24.3197,0.203937,
2,1,0,1,0,20899.4,0.217062,0.216725,57.8806,11,0.0115775,10,0.0125442,-1.23747,-0.726644,-0.0811951,-182.577,0.216725,
2,1,0,1,0,20899.4,0.229866,0.229554,54.5836,11,0.0124793,10,0.0125299,-1.26294,-0.391114,-0.150851,-320.181,0.229554,
2,1,0,1,0,20899.5,0.242662,0.242339,49.9193,11,0.0133161,10,0.0120974,-1.30173,-0.298764,-0.19748,-384.27,0.242339,
2,1,0,1,0,20899.5,0.255466,0.255162,45.0023,11,0.0140749,10,0.0114828,-1.34677,-0.281468,-0.209616,-368.406,0.255162,
2,1,0,1,0,20899.5,0.268259,0.26795,40.6029,11,0.0147583,10,0.0108795,-1.39144,-0.298834,-0.197434,-313.449,0.26795,
2,1,0,1,0,20899.5,0.281065,0.280757,37.0431,11,0.0153781,10,0.0104001,-1.43129,-0.347498,-0.169785,-245.902,0.280757,
2,1,0,1,0,20899.5,0.293861,0.293532,34.2423,11,0.0159472,10,0.0100512,-1.46544,-0.411984,-0.14321,-192.114,0.293532,
2,1,0,1,0,20899.5,0.298983,0.298846,30.7013,11,0.016247,10,0.00917495,-1.51284,0.0317416,1.85876,1890.93,0.2988461,
2,1,0,1,0,20899.6,0.286187,0.285922,12.7978,11,0.0165745,10,0.00365916,-1.89287,0.0292171,2.01936,993.218,0.285922,
2,1,0,1,0,20899.6,0.273386,0.273121,2.96547,11,0.0166933,10,0.00080993,-2.52791,0.0112945,5.22377,608.161,0.273121,
2,0,0,1,0,20899.6,0.260585,0.2603,-3.38757,11,0.0166859,10,-0.000881786,-2.47011,-0.0123796,-4.76589,406.822,0.2603,
2,0,0,1,0,20899.6,0.247783,0.247536,-7.75443,11,0.0165944,10,-0.0019195,-2.11045,-0.0591994,-0.996632,289.537,0.247536,
2,0,0,1,0,20899.6,0.234982,0.234637,-10.9293,11,0.0164434,10,-0.00256442,-1.96141,-0.114807,-0.513906,216.099,0.234637,
2,0,0,1,0,20899.6,0.222187,0.221901,-13.3442,11,0.0162481,10,-0.0029611,-1.87471,-0.180552,-0.326777,169.183,0.2219009,
2,0,0,1,0,20899.6,0.20938,0.209034,-15.3103,11,0.0160181,10,-0.00320037,-1.81502,-0.250785,-0.235261,140.076,0.209034,
2,0,0,1,0,20899.7,0.196587,0.196287,-16.9653,11,0.0157593,10,-0.00333006,-1.77044,-0.323063,-0.182627,120.683,0.196287,
2,0,0,1,0,20899.7,0.183783,0.183435,-18.4699,11,0.0154756,10,-0.00338801,-1.73354,-0.366596,-0.16094,115.884,0.183435,
2,0,0,1,0,20899.7,0.170987,0.170669,-19.9462,11,0.0151682,10,-0.0034042,-1.70014,-0.384483,-0.153453,119.531,0.170669,
2,0,0,1,0,20899.7,0.158183,0.157888,-21.5791,11,0.0148361,10,-0.0034071,-1.66597,-0.352369,-0.167438,141.33,0.157888,
2,0,0,1,0,20899.7,0.145385,0.14508,-23.6424,11,0.0144748,10,-0.00343003,-1.62631,-0.28908,-0.204096,188.996,0.14508,
2,0,0,1,0,20899.7,0.132584,0.13227,-26.5113,11,0.0140745,10,-0.00350664,-1.57657,-0.231406,-0.254963,264.791,0.13227,
2,0,0,1,0,20899.8,0.119783,0.119532,-30.4501,11,0.0136199,10,-0.00363978,-1.51641,-0.200588,-0.294135,350.368,0.119532,
2,0,0,1,0,20899.8,0.106987,0.10671,-35.2951,11,0.013094,10,-0.00376634,-1.45229,-0.208656,-0.282763,388.968,0.10671,
2,0,0,1,0,20899.8,0.0941801,0.093896,-40.2648,11,0.0124887,10,-0.00378071,-1.39507,-0.247357,-0.238522,373.589,0.093896,
2,0,0,1,0,20899.8,0.0813844,0.081133,-44.814,11,0.0118072,10,-0.00363589,-1.34859,-0.306057,-0.192774,336.164,0.081133,
2,0,0,1,0,20899.8,0.0685832,0.0683402,-48.6997,11,0.0110574,10,-0.00332815,-1.31247,-0.416425,-0.141682,268.55,0.0683402,
2,0,0,1,0,20899.8,0.0557876,0.0555284,-51.6754,11,0.0102529,10,-0.00286945,-1.28672,-0.611382,-0.0965027,194.103,0.0555284,
2,0,0,1,0,20899.9,0.0429808,0.0426816,-53.6515,11,0.00940856,10,-0.00228993,-1.27042,-1.07478,-0.0548948,114.685,0.0426816,
2,0,0,1,0,20899.9,0.030188,0.029857,-54.6833,11,0.00854065,10,-0.00163268,-1.26215,-2.33857,-0.0252291,53.7748,0.029857,
2,0,0,1,0,20899.9,0.017384,0.0170929,-55.0971,11,0.00766151,10,-0.000941769,-1.25887,-9.26556,-0.00636767,13.68,0.0170929,
2,0,0,1,0,20899.9,0.00458834,0.00426518,-55.0711,11,0.00677959,10,-0.000234888,-1.25908,9.03949,0.00652692,-14.0215,0.00426518,
2,0,0,1,0,20899.9,-0.00821564,-0.00860074,-54.7052,11,0.0059006,10,0.000470505,-1.26197,2.68518,0.0219725,-46.8679,-0.00860074,
2,0,0,1,0,20899.9,-0.0210196,-0.0213797,-53.8908,11,0.00503129,10,0.00115217,-1.26849,1.49812,0.0393827,-82.7275,-0.0213797,
2,0,0,1,0,20900,-0.0338153,-0.0341799,-52.6025,11,0.00417884,10,0.00179795,-1.27899,1.07651,0.0548065,-112.449,-0.0341799,
2,0,0,1,0,20900,-0.0466193,-0.0470034,-51.067,11,0.0033494,10,0.00240032,-1.29186,0.946183,0.0623558,-124.254,-0.0470034,
2,0,0,1,0,20900,-0.0594121,-0.0597707,-49.5489,11,0.00254493,10,0.00296157,-1.30497,1.0581,0.0557605,-107.886,-0.0597707,
2,0,0,1,0,20900,-0.0722189,-0.0725624,-48.3469,11,0.00176244,10,0.00350817,-1.31563,1.45382,0.0405827,-76.6491,-0.0725624,
2,0,0,1,0,20900,-0.0850146,-0.0854028,-47.5702,11,0.00099574,10,0.00406263,-1.32267,2.55275,0.0231123,-42.9626,-0.0854028,
2,0,0,1,0,20900,-0.0978158,-0.0981468,-47.2388,11,0.000237747,10,0.00463634,-1.3257,11.2331,0.00525233,-9.69451,-0.0981468,
2,0,0,1,0,20900,-0.110611,-0.110974,-47.3053,11,-0.000518229,10,0.00524964,-1.32509,-5.6117,-0.0105137,19.4313,-0.1109735,
2,0,0,1,0,20900.1,-0.123418,-0.123785,-47.7457,11,-0.0012783,10,0.00591021,-1.32107,-2.40212,-0.0245616,45.7934,-0.123785,
2,0,0,1,0,20900.1,-0.136214,-0.136602,-48.4548,11,-0.00204762,10,0.00661904,-1.31466,-1.74589,-0.0337937,63.9302,-0.136602,
2,0,0,1,0,20900.1,-0.149015,-0.149385,-49.3673,11,-0.00283014,10,0.00737472,-1.30656,-1.49167,-0.0395531,76.2127,-0.1493846,
2,0,0,1,0,20900.1,-0.161816,-0.162171,-50.3614,11,-0.00362809,10,0.00816716,-1.2979,-1.47676,-0.0399522,78.5268,-0.162171,
2,0,0,1,0,20900.1,-0.174615,-0.17494,-51.3549,11,-0.00444215,10,0.00898405,-1.28942,-1.51976,-0.0388218,77.8156,-0.17494,
2,0,0,1,0,20900.1,-0.187419,-0.187744,-52.328,11,-0.0052719,10,0.00982426,-1.28127,-1.68628,-0.0349882,71.4351,-0.187744,
2,0,0,1,0,20900.2,-0.199647,-0.199998,-53.1939,11,-0.00607938,10,0.0106387,-1.27414,0.271578,0.217249,-437.594,-0.199998,
2,0,0,1,1,20900.2,-0.192535,-0.192986,-39.5959,11,-0.00654416,10,0.00764147,-1.40235,-0.0640183,-0.921611,1453.29,-0.192986,
2,0,0,1,1,20900.2,-0.179739,-0.180143,-25.3839,11,-0.00705503,10,0.00457272,-1.59544,-0.0631095,-0.934883,925.691,-0.180143,
2,0,0,1,1,20900.2,-0.166932,-0.167358,-15.0596,11,-0.00737403,10,0.00252035,-1.82219,-0.0475077,-1.24191,718.642,-0.1673585,
2,0,0,1,1,20900.2,-0.154139,-0.154591,-6.77833,11,-0.00754572,10,0.00104787,-2.16888,-0.0240203,-2.45626,592.782,-0.1545912,
2,0,0,1,1,20900.2,-0.141335,-0.141762,0.184276,11,-0.00759624,10,-2.61234e-05,-3.73453,0.745031,0.0791913,500.653,-0.141762,
2,1,0,1,1,20900.2,-0.12854,-0.129028,6.18298,11,-0.00754363,10,-0.000797777,-2.2088,0.0294332,2.00454,440.671,-0.129028,
2,1,0,1,1,20900.3,-0.115736,-0.116206,11.4804,11,-0.00740107,10,-0.00133408,-1.94004,0.0657936,0.896744,392.692,-0.116206,
2,1,0,1,1,20900.3,-0.102932,-0.103399,16.2205,11,-0.00717826,10,-0.00167719,-1.78993,0.106101,0.556071,348.466,-0.103399,
2,1,0,1,1,20900.3,-0.0901361,-0.0905829,20.4484,11,-0.00688373,10,-0.00185228,-1.68934,0.15002,0.393281,312.123,-0.0905829,
2,1,0,1,1,20900.3,-0.0773322,-0.0777573,24.2513,11,-0.00652521,10,-0.00188572,-1.61527,0.199138,0.296276,279.234,-0.0777573,
2,1,0,1,1,20900.3,-0.0645393,-0.0649879,27.6349,11,-0.00610931,10,-0.00179593,-1.55854,0.253143,0.23307,250.647,-0.0649879,
2,1,0,1,1,20900.3,-0.0517325,-0.0521273,30.6618,11,-0.00564216,10,-0.00159832,-1.5134,0.316033,0.18669,222.889,-0.0521273,
2,1,0,1,1,20900.4,-0.0389369,-0.0393494,33.3098,11,-0.0051296,10,-0.00131072,-1.47743,0.396341,0.148862,193.237,-0.0393494,
2,1,0,1,1,20900.4,-0.0261357,-0.0265015,35.6041,11,-0.00457743,10,-0.00094356,-1.4485,0.496648,0.118796,164.877,-0.0265015,
2,1,0,1,1,20900.4,-0.01334,-0.013766,37.5475,11,-0.00399147,10,-0.000516878,-1.42542,0.628633,0.0938544,137.355,-0.013766,
2,1,0,1,1,20900.4,-0.000774628,-0.00116517,39.1192,11,-0.00338907,10,-4.55804e-05,-1.40761, , , ,-0.00116517,
2,1,0,0,1,20900.4,-0.000125413,-0.000458935,39.2093,11,-0.00335775,10,-1.79945e-05,-1.40661, , , ,-0.000458935,

File: 20221101_1-115_003_TrumpetPlot_ParaChange_from10_every3_13_CV_C01_11.csv
mode,ox/red,error,control changes,counter inc.,time/s,control/V,Ewe/V,<I>/mA,cycle number,(Q-Qo)/C,I Range,P/W,log(|I|),Tafel slope mV/dec,alpha_eff,dI/d(E-IR),E-IR/V,
2,1,0,1,0,22869.3,2.44065e-05,-0.000287149,22.6158,12,0.0000000E+000,10,-6.49412e-06,-1.64559, , , ,-0.0002871489,
2,1,0,1,0,22869.3,0.0122624,0.0118694,27.028,12,0.000380744,10,0.000320805,-1.56819,0.234358,0.251751,263.702,0.0118694,
2,1,0,1,0,22869.3,0.0250636,0.0247459,29.9052,12,0.000837591,10,0.000740029,-1.52425,0.343979,0.171522,199.596,0.0247459,
2,1,0,1,0,22869.3,0.0378703,0.0375365,32.2161,12,0.00133526,10,0.00120928,-1.49193,0.439474,0.134251,168.597,0.0375365,
2,1,0,1,0,22869.4,0.0506632,0.0503271,34.2904,12,0.00186777,10,0.00172574,-1.46483,0.490338,0.120325,161.014,0.0503271,
2,1,0,1,0,22869.4,0.0634672,0.0631389,36.3697,12,0.00243322,10,0.00229635,-1.43926,0.516085,0.114322,162.207,0.0631389,
2,1,0,1,0,22869.4,0.0762629,0.0758702,38.5042,12,0.00303225,10,0.00292132,-1.41449,0.51352,0.114893,172.625,0.0758702,
2,1,0,1,0,22869.4,0.0890668,0.0886587,40.7601,12,0.0036665,10,0.00361374,-1.38976,0.516425,0.114247,181.765,0.0886587,
2,1,0,1,0,22869.4,0.10186,0.101459,43.1325,12,0.00433777,10,0.00437618,-1.36519,0.524243,0.112543,189.506,0.101459,
2,1,0,1,0,22869.4,0.114666,0.114273,45.5874,12,0.00504802,10,0.0052094,-1.34116,0.545781,0.108102,192.306,0.1142728,
2,1,0,1,0,22869.4,0.127462,0.127099,48.1945,12,0.00579781,10,0.00612549,-1.317,0.516926,0.114136,214.63,0.127099,
2,1,0,1,0,22869.5,0.140263,0.139921,51.0302,12,0.0065917,10,0.00714019,-1.29217,0.507817,0.116184,231.456,0.139921,
2,1,0,1,0,22869.5,0.153064,0.152705,54.0609,12,0.00743266,10,0.00825538,-1.26712,0.526608,0.112038,236.28,0.152705,
2,1,0,1,0,22869.5,0.165866,0.16547,56.9857,12,0.00832182,10,0.00942945,-1.24423,0.610218,0.0966867,214.814,0.1654703,
2,1,0,1,0,22869.5,0.178667,0.178347,59.481,12,0.00925469,10,0.0106082,-1.22562,0.828188,0.0712399,165.059,0.178347,
2,1,0,1,0,22869.5,0.191463,0.191137,61.0731,12,0.010221,10,0.0116733,-1.21415,2.11194,0.0279365,66.3484,0.191137,
2,1,0,1,0,22869.5,0.204269,0.203944,61.0095,12,0.0112002,10,0.0124425,-1.2146,-1.65283,-0.0356964,-84.6096,0.203944,
2,1,0,1,0,22869.6,0.217062,0.216732,58.8516,12,0.0121617,10,0.0127551,-1.23024,-0.54766,-0.107731,-246.384,0.216732,
2,1,0,1,0,22869.6,0.229866,0.229559,54.8373,12,0.0130729,10,0.0125884,-1.26092,-0.345067,-0.170981,-364.811,0.229559,
2,1,0,1,0,22869.6,0.242662,0.242353,49.7649,12,0.01391,10,0.0120607,-1.30308,-0.283628,-0.208019,-403.81,0.242353,
2,1,0,1,0,22869.6,0.255466,0.255175,44.7278,12,0.0146651,10,0.0114134,-1.34942,-0.277069,-0.212944,-372.151,0.255175,
2,1,0,1,0,22869.6,0.268259,0.267972,40.3714,12,0.0153443,10,0.0108184,-1.39393,-0.304042,-0.194052,-306.338,0.267972,
2,1,0,1,0,22869.6,0.281065,0.280776,36.8939,12,0.015961,10,0.0103589,-1.43305,-0.35513,-0.166136,-239.679,0.280776,
2,1,0,1,0,22869.7,0.293861,0.293585,34.1887,12,0.0165285,10,0.0100373,-1.46612,-0.429101,-0.137497,-184.167,0.293585,
2,1,0,1,0,22869.7,0.298983,0.298845,30.4489,12,0.0168279,10,0.0090995,-1.51643,0.0289108,2.04076,2030.89,0.298845,
2,1,0,1,0,22869.7,0.286187,0.285957,11.616,12,0.0171413,10,0.00332168,-1.93494,0.0254445,2.31877,1022.76,0.285957,
2,1,0,1,0,22869.7,0.273386,0.273164,1.60941,12,0.0172395,10,0.000439633,-2.79333,0.0254216,2.32086,613.833,0.273164,
2,0,0,1,0,22869.7,0.260585,0.2603,-4.73165,12,0.0172105,10,-0.00123165,-2.32499,-0.0223021,-2.6455,404.315,0.2603,
2,0,0,1,0,22869.7,0.247783,0.247472,-9.04758,12,0.0170978,10,-0.00223902,-2.04347,-0.0706285,-0.835357,286.213,0.247472,
2,0,0,1,0,22869.7,0.234982,0.234664,-12.176,12,0.0169264,10,-0.00285726,-1.9145,-0.13115,-0.449866,211.354,0.234664,
2,0,0,1,0,22869.8,0.222187,0.221872,-14.5531,12,0.0167114,10,-0.00322892,-1.83705,-0.201194,-0.293249,165.627,0.221872,
2,0,0,1,0,22869.8,0.20938,0.209053,-16.4925,12,0.0164624,10,-0.0034478,-1.78271,-0.274013,-0.215318,138.053,0.209053,
2,0,0,1,0,22869.8,0.196587,0.196278,-18.1336,12,0.016185,10,-0.00355924,-1.74152,-0.340641,-0.173203,122.356,0.196278,
2,0,0,1,0,22869.8,0.183783,0.183477,-19.6446,12,0.0158825,10,-0.00360433,-1.70676,-0.383738,-0.153751,117.856,0.183477,
2,0,0,1,0,22869.8,0.170987,0.170689,-21.1533,12,0.0155559,10,-0.00361062,-1.67462,-0.395389,-0.14922,123.38,0.170689,
2,0,0,1,0,22869.8,0.158183,0.157897,-22.8852,12,0.0152037,10,-0.0036135,-1.64045,-0.348014,-0.169533,151.773,0.157897,
2,0,0,1,0,22869.9,0.145385,0.145062,-25.1272,12,0.0148203,10,-0.003645,-1.59986,-0.284309,-0.207521,204.161,0.145062,
2,0,0,1,0,22869.9,0.132584,0.132293,-28.2632,12,0.0143943,10,-0.00373904,-1.54878,-0.22382,-0.263605,291.807,0.132293,
2,0,0,1,0,22869.9,0.119783,0.119519,-32.6088,12,0.0139087,10,-0.00389735,-1.48667,-0.195866,-0.301226,383.982,0.119519,
2,0,0,1,0,22869.9,0.106987,0.106733,-37.8311,12,0.013345,10,-0.00403784,-1.42215,-0.209088,-0.282178,416.107,0.106733,
2,0,0,1,0,22869.9,0.0941801,0.0939745,-43.0084,12,0.0126967,10,-0.00404169,-1.36645,-0.252213,-0.233929,392.252,0.0939745,
2,0,0,1,0,22869.9,0.0813844,0.0811712,-47.8038,12,0.0119686,10,-0.00388029,-1.32054,-0.323941,-0.182132,338.66,0.0811712,
2,0,0,1,0,22870,0.0685832,0.0683869,-51.6369,12,0.0111714,10,-0.00353129,-1.28704,-0.454551,-0.129798,260.858,0.06838689,
2,0,0,1,0,22870,0.0557876,0.0555454,-54.4623,12,0.0103207,10,-0.00302513,-1.2639,-0.709656,-0.0831389,176.22,0.0555454,
2,0,0,1,0,22870,0.0429808,0.0426932,-56.1468,12,0.00943413,10,-0.00239709,-1.25067,-1.39316,-0.0423497,92.6261,0.0426932,
2,0,0,1,0,22870,0.030188,0.0299143,-56.9361,12,0.00852835,10,-0.0017032,-1.24461,-3.70339,-0.0159314,35.3548,0.02991429,
2,0,0,1,0,22870,0.017384,0.0170675,-57.1398,12,0.00761505,10,-0.000975231,-1.24306,66.383,0.000888782,-1.9798,0.0170675,
2,0,0,1,0,22870,0.00458834,0.00427896,-56.8888,12,0.0067023,10,-0.000243425,-1.24497,4.27146,0.0138126,-30.6551,0.00427896,
2,0,0,1,0,22870.1,-0.00821564,-0.00854878,-56.295,12,0.00579596,10,0.000481254,-1.24953,1.92753,0.0306091,-67.184,-0.00854878,
2,0,0,1,0,22870.1,-0.0210196,-0.0214009,-55.2026,12,0.00490338,10,0.00118139,-1.25804,1.22234,0.0482679,-103.88,-0.0214009,
2,0,0,1,0,22870.1,-0.0338153,-0.0341364,-53.6971,12,0.00403181,10,0.00183303,-1.27005,0.981381,0.0601194,-125.921,-0.0341364,
2,0,0,1,0,22870.1,-0.0466193,-0.0469875,-52.029,12,0.00318616,10,0.00244471,-1.28375,0.934535,0.063133,-128.221,-0.04698747,
2,0,0,1,0,22870.1,-0.0594121,-0.0597516,-50.5021,12,0.00236639,10,0.00301758,-1.29669,1.10791,0.0532534,-105.064,-0.0597516,
2,0,0,1,0,22870.1,-0.0722189,-0.072591,-49.3753,12,0.00156797,10,0.0035842,-1.30649,1.63487,0.0360886,-69.627,-0.072591,
2,0,0,1,0,22870.1,-0.0850146,-0.0854103,-48.6951,12,0.000783938,10,0.00415906,-1.31251,3.23027,0.0182647,-34.7628,-0.0854103,
2,0,0,1,0,22870.2,-0.0978158,-0.0981723,-48.4872,12,6.88355e-06,10,0.0047601,-1.31437,514.19,0.000114744,-0.217389,-0.0981723,
2,0,0,1,0,22870.2,-0.110611,-0.110972,-48.6745,12,-0.000770023,10,0.00540153,-1.3127,-3.94164,-0.0149684,28.4636,-0.110972,
2,0,0,1,0,22870.2,-0.123418,-0.123792,-49.2337,12,-0.00155297,10,0.00609472,-1.30774,-2.0374,-0.0289585,55.6748,-0.123792,
2,0,0,1,0,22870.2,-0.136214,-0.136509,-50.0553,12,-0.00234707,10,0.00683301,-1.30055,-1.59507,-0.0369889,72.296,-0.136509,
2,0,0,1,0,22870.2,-0.149015,-0.149334,-51.0566,12,-0.00315609,10,0.00762447,-1.29195,-1.41918,-0.0415732,82.8661,-0.149334,
2,0,0,1,0,22870.2,-0.161816,-0.16221,-52.1302,12,-0.00398185,10,0.00845605,-1.28291,-1.46155,-0.040368,82.1244,-0.16221,
2,0,0,1,0,22870.3,-0.174615,-0.174961,-53.1612,12,-0.00482446,10,0.00930111,-1.27441,-1.57077,-0.0375612,77.9162,-0.174961,
2,0,0,1,0,22870.3,-0.187419,-0.187702,-54.1414,12,-0.00568307,10,0.0101625,-1.26647,-1.71747,-0.0343528,72.5539,-0.187702,
2,0,0,1,0,22870.3,-0.199647,-0.200026,-54.9832,12,-0.00651813,10,0.0109981,-1.25977,0.243461,0.242339,-503.565,-0.200026,
2,0,0,1,1,22870.3,-0.192535,-0.193005,-40.0324,12,-0.00699317,10,0.00772648,-1.39759,-0.0598901,-0.985137,1575.31,-0.1930055,
2,0,0,1,1,22870.3,-0.179739,-0.180159,-24.9572,12,-0.00750292,10,0.00449626,-1.6028,-0.0591608,-0.997281,970.254,-0.180159,
2,0,0,1,1,22870.3,-0.166932,-0.167297,-14.1943,12,-0.00781118,10,0.00237467,-1.84789,-0.0431095,-1.36861,743.2,-0.167297,
2,0,0,1,1,22870.3,-0.154139,-0.154541,-5.62775,12,-0.00796665,10,0.00086972,-2.24967,-0.0180647,-3.26603,610.643,-0.154541,
2,1,0,1,1,22870.4,-0.141335,-0.141763,1.52146,12,-0.0079972,10,-0.000215688,-2.81774,0.0325271,1.81387,518.507,-0.141763,
2,1,0,1,1,22870.4,-0.12854,-0.129021,7.67348,12,-0.00792177,10,-0.000990037,-2.11501,0.0367697,1.60458,452.409,-0.129021,
2,1,0,1,1,22870.4,-0.115736,-0.11619,13.1307,12,-0.00775382,10,-0.00152565,-1.88171,0.074006,0.797233,401.302,-0.11619,
2,1,0,1,1,22870.4,-0.102932,-0.10335,18.0034,12,-0.00750348,10,-0.00186065,-1.74465,0.115209,0.512114,356.428,-0.10335,
2,1,0,1,1,22870.4,-0.0901361,-0.0905193,22.3302,12,-0.00717971,10,-0.00202132,-1.65111,0.159621,0.369625,320.365,-0.0905193,
2,1,0,1,1,22870.4,-0.0773322,-0.0777499,26.2256,12,-0.00679037,10,-0.00203904,-1.58127,0.209,0.282297,287.778,-0.0777499,
2,1,0,1,1,22870.5,-0.0645393,-0.06492,29.6895,12,-0.00634217,10,-0.00192744,-1.5274,0.265968,0.221832,256.423,-0.06492,
2,1,0,1,1,22870.5,-0.0517325,-0.0520901,32.7878,12,-0.0058414,10,-0.00170792,-1.48429,0.330679,0.178421,227.866,-0.0520901,
2,1,0,1,1,22870.5,-0.0389369,-0.039343,35.4925,12,-0.00529431,10,-0.00139638,-1.44986,0.416878,0.141528,195.731,-0.039343,
2,1,0,1,1,22870.5,-0.0261357,-0.0265047,37.8372,12,-0.00470696,10,-0.00100286,-1.42208,0.518463,0.113798,167.751,-0.0265047,
2,1,0,1,1,22870.5,-0.01334,-0.0137246,39.7769,12,-0.00408534,10,-0.000545923,-1.40037,0.663526,0.0889189,137.886,-0.0137246,
2,1,0,1,1,22870.5,-0.000774628,-0.00118266,41.3402,12,-0.00344781,10,-4.88915e-05,-1.38363, , , ,-0.00118266,
2,1,0,0,1,22870.5,-0.000125413,-0.00042076,41.4322,12,-0.00341471,10,-1.7433e-05,-1.38266, , , ,-0.00042076,