Folder: Figs_alphaMnO2_OER_Tafel_sleope/Figure_codes/Fig_3-5/rawdata_trumpetplot_data/after 10th (part 31)

File: 20221101_1-115_003_TrumpetPlot_ParaChange_from10_every3_03_CV_C01_25.csv
mode,ox/red,error,control changes,counter inc.,time/s,control/V,Ewe/V,<I>/mA,cycle number,(Q-Qo)/C,I Range,P/W,log(|I|),Tafel slope mV/dec,alpha_eff,dI/d(E-IR),E-IR/V,
2,0,0,1,0,50193.3,2.44065e-05,-0.000306236,-0.098758,26,0.0000000E+000,10,3.02433e-08,-4.00543, , , ,-0.000306236,
2,1,0,1,0,50194.7,0.00729041,0.00698374,0.198705,26,0.000247359,10,1.38771e-06,-3.70179,0.0847172,0.696435,5.37734,0.006983737,
2,1,0,1,0,50196.2,0.0147815,0.0144938,0.230794,26,0.000591676,10,3.34507e-06,-3.63678,0.143756,0.410418,3.70063,0.0144938,
2,1,0,1,0,50197.7,0.0222725,0.0220007,0.25727,26,0.000978192,10,5.66011e-06,-3.58961,0.182203,0.323815,3.24404,0.0220007,
2,1,0,1,0,50199.2,0.0297635,0.0294328,0.283049,26,0.00140295,10,8.33092e-06,-3.54814,0.195602,0.301633,3.33075,0.0294328,
2,1,0,1,0,50200.7,0.0372545,0.0369289,0.308286,26,0.0018668,10,1.13847e-05,-3.51105,0.20555,0.287035,3.46496,0.0369289,
2,1,0,1,0,50202.2,0.0447456,0.0443911,0.333623,26,0.0023686,10,1.48099e-05,-3.47674,0.234984,0.251081,3.26717,0.04439114,
2,1,0,1,0,50203.7,0.0522367,0.0519308,0.356658,26,0.00290689,10,1.85215e-05,-3.44775,0.223673,0.263778,3.67139,0.0519308,
2,1,0,1,0,50205.2,0.0597277,0.0593707,0.378651,26,0.00347895,10,2.24808e-05,-3.42176,0.328902,0.179385,2.64604,0.0593707,
2,1,0,1,0,50206.7,0.0672187,0.0669174,0.397654,26,0.00408109,10,2.661e-05,-3.4005,0.4334,0.136133,2.10436,0.0669174,
2,1,0,1,0,50208.2,0.0747092,0.0744036,0.412093,26,0.0047088,10,3.06612e-05,-3.38501,0.593599,0.0993938,1.59951,0.0744036,
2,1,0,0,0,50209.7,0.0822001,0.081871,0.426519,26,0.00535871,10,3.49195e-05,-3.37006,0.459386,0.128432,2.14222,0.081871,
2,1,0,1,0,50211.2,0.0896911,0.0893893,0.446639,26,0.00603323,10,3.99248e-05,-3.35004,0.313867,0.187978,3.28534,0.0893893,
2,1,0,0,0,50212.7,0.097182,0.0968609,0.476409,26,0.00674488,10,4.61454e-05,-3.32202,0.192597,0.306339,5.6944,0.0968609,
2,1,0,1,0,50214.2,0.104673,0.104385,0.518159,26,0.0075098,10,5.40878e-05,-3.28554,0.225057,0.262155,5.28412,0.104385,
2,1,0,0,0,50215.7,0.112164,0.111809,0.553228,26,0.00833348,10,6.18561e-05,-3.2571,0.353182,0.167053,3.5932,0.111809,
2,1,0,1,0,50217.2,0.119655,0.119335,0.577843,26,0.00920269,10,6.8957e-05,-3.23819,0.599501,0.0984152,2.22038,0.119335,
2,1,0,0,0,50218.7,0.127146,0.126778,0.591765,26,0.0101028,10,7.50229e-05,-3.22785,0.976617,0.0604126,1.39906,0.126778,
2,1,0,1,0,50220.2,0.134637,0.134333,0.588281,26,0.0110151,10,7.90253e-05,-3.23041,-0.375852,-0.156976,-3.59963,0.134333,
2,1,0,1,0,50221.7,0.142127,0.141784,0.526773,26,0.0118791,10,7.46881e-05,-3.27838,-0.102925,-0.573232,-11.721,0.141784,
2,1,0,1,0,50223.2,0.149618,0.149296,0.42482,26,0.0126124,10,6.34238e-05,-3.3718,-0.0806917,-0.731178,-12.1594,0.149296,
2,1,0,1,0,50224.7,0.157109,0.156822,0.358286,26,0.0132123,10,5.61872e-05,-3.44577,-0.131206,-0.449674,-6.28989,0.156822,
2,1,0,1,0,50226.2,0.1646,0.164279,0.32803,26,0.0137421,10,5.38885e-05,-3.48409,-0.29075,-0.202924,-2.59279,0.164279,
2,1,0,1,0,50227.7,0.172091,0.171829,0.312037,26,0.0142395,10,5.36171e-05,-3.50579,-0.392868,-0.150178,-1.83292,0.171829,
2,1,0,1,0,50229.2,0.179582,0.17928,0.304158,26,0.0147199,10,5.45294e-05,-3.5169,-0.830209,-0.0710665,-0.846859,0.17928,
2,1,0,1,0,50230.7,0.187074,0.186759,0.298936,26,0.0151911,10,5.5829e-05,-3.52442,-1.88961,-0.0312234,-0.363371,0.1867592,
2,1,0,1,0,50232.2,0.194564,0.194224,0.294855,26,0.015655,10,5.7268e-05,-3.53039,-2.59993,-0.0226929,-0.261067,0.194224,
2,1,0,1,0,50233.7,0.202056,0.201729,0.29276,26,0.0161139,10,5.90582e-05,-3.53349,-1.05274,-0.0560441,-0.637452,0.201729,
2,1,0,1,0,50235.2,0.209547,0.20923,0.289319,26,0.0165685,10,6.05343e-05,-3.53862,-2.73396,-0.0215804,-0.243212,0.20923,
2,1,0,1,0,50236.7,0.217038,0.216716,0.286701,26,0.0170187,10,6.21326e-05,-3.54257,-1.87215,-0.0315146,-0.352743,0.216716,
2,1,0,1,0,50238.2,0.224529,0.22423,0.285216,26,0.017466,10,6.3954e-05,-3.54483,-2.48259,-0.0237655,-0.264487,0.22423,
2,1,0,1,0,50239.7,0.232019,0.231742,0.282082,26,0.01791,10,6.53705e-05,-3.54962,-2.03098,-0.02905,-0.321093,0.231742,
2,1,0,0,0,50241.2,0.23951,0.239209,0.28113,26,0.0183511,10,6.72487e-05,-3.55109,-2.3507,-0.0250989,-0.274707,0.239209,
2,1,0,1,0,50242.7,0.247001,0.246697,0.279707,26,0.0187899,10,6.90031e-05,-3.5533,-2.40152,-0.0245678,-0.268014,0.246697,
2,1,0,0,0,50244.2,0.254492,0.254187,0.278272,26,0.0192267,10,7.07331e-05,-3.55553,-2.13001,-0.0276994,-0.300961,0.254187,
2,1,0,1,0,50245.7,0.261983,0.261683,0.27675,26,0.0196609,10,7.24207e-05,-3.55791,40.6026,0.00145311,0.0156993,0.261683,
2,1,0,0,0,50247.2,0.269474,0.269147,0.275251,26,0.0200927,10,7.4083e-05,-3.56027,308.964,0.000190961,0.00204662,0.269147,
2,1,0,1,0,50248.7,0.276965,0.276624,0.273402,26,0.0205218,10,7.56295e-05,-3.5632,-4.94207,-0.0119383,-0.127389,0.276624,
2,1,0,0,0,50250.2,0.284456,0.284126,0.27206,26,0.0209477,10,7.72993e-05,-3.56533,-1.4015,-0.0420977,-0.445804,0.284126,
2,1,0,1,0,50251.7,0.291947,0.29166,0.269736,26,0.0213705,10,7.8671e-05,-3.56906,-3.13265,-0.0188339,-0.19829,0.29166,
2,1,0,1,0,50253.2,0.299437,0.299146,0.267082,26,0.0217907,10,7.98963e-05,-3.57336,-0.00279851,-21.0827,-116.084,0.299146,
2,0,0,1,0,50254.5,0.293744,0.293435,-0.0148613,26,0.0218356,10,-4.36083e-06,-4.82794,-0.00332529,-17.7428,5.70636,0.293435,
2,0,0,1,0,50256,0.286253,0.285934,-0.0454261,26,0.0217705,10,-1.29889e-05,-4.34269,-0.0309523,-1.90616,3.37983,0.285934,
2,0,0,0,0,50257.5,0.278763,0.278477,-0.0668014,26,0.0216675,10,-1.86026e-05,-4.17521,-0.0609297,-0.96833,2.4867,0.278477,
2,0,0,1,0,50259,0.271272,0.270945,-0.084038,26,0.0215362,10,-2.27696e-05,-4.07552,-0.0979292,-0.602476,1.95056,0.270945,
2,0,0,0,0,50260.5,0.263781,0.263474,-0.0974182,26,0.021382,10,-2.56672e-05,-4.01136,-0.116434,-0.506725,1.92501,0.263474,
2,0,0,1,0,50262,0.25629,0.255971,-0.109002,26,0.0212085,10,-2.79014e-05,-3.96256,-0.167397,-0.352455,1.48866,0.255971,
2,0,0,0,0,50263.5,0.248799,0.248465,-0.119454,26,0.0210181,10,-2.96802e-05,-3.9228,-0.212301,-0.277908,1.29317,0.248465,
2,0,0,1,0,50265,0.241308,0.240997,-0.128516,26,0.0208123,10,-3.09719e-05,-3.89104,-0.220483,-0.267595,1.35704,0.240997,
2,0,0,0,0,50266.5,0.233817,0.233458,-0.139844,26,0.0205922,10,-3.26477e-05,-3.85436,-0.220442,-0.267644,1.45171,0.233458,
2,0,0,1,0,50268,0.226326,0.22597,-0.147833,26,0.0203579,10,-3.34057e-05,-3.83023,-0.313294,-0.188322,1.08737,0.22597,
2,0,0,0,0,50269.5,0.218835,0.218543,-0.156531,26,0.0201107,10,-3.42087e-05,-3.8054,-0.31823,-0.185401,1.13065,0.218543,
2,0,0,1,0,50271,0.211344,0.211038,-0.165032,26,0.0198506,10,-3.4828e-05,-3.78243,-0.389245,-0.151575,0.973048,0.211038,
2,0,0,1,0,50272.5,0.203854,0.203522,-0.173712,26,0.019577,10,-3.53543e-05,-3.76017,-0.280565,-0.21029,1.43024,0.203522,
2,0,0,1,0,50274,0.196363,0.196057,-0.183353,26,0.0192899,10,-3.59476e-05,-3.73671,-0.348096,-0.169493,1.2103,0.196057,
2,0,0,1,0,50275.5,0.188871,0.188562,-0.192973,26,0.0189877,10,-3.63874e-05,-3.7145,-0.289067,-0.204105,1.53559,0.188562,
2,0,0,1,0,50277,0.181381,0.181076,-0.20294,26,0.01867,10,-3.67477e-05,-3.69263,-0.280736,-0.210162,1.67682,0.181076,
2,0,0,1,0,50278.5,0.173889,0.173507,-0.218057,26,0.0183341,10,-3.78344e-05,-3.66143,-0.280936,-0.210012,1.77397,0.173507,
2,0,0,1,0,50280,0.166398,0.166038,-0.231632,26,0.0179764,10,-3.84596e-05,-3.6352,-0.24229,-0.24351,2.2217,0.1660375,
2,0,0,1,0,50281.5,0.158907,0.158586,-0.253447,26,0.0175914,10,-4.01931e-05,-3.59611,-0.169185,-0.34873,3.46629,0.158586,
2,0,0,1,0,50283,0.151416,0.151026,-0.286719,26,0.017167,10,-4.33021e-05,-3.54254,-0.126221,-0.467432,5.23695,0.151026,
2,0,0,1,0,50284.5,0.143925,0.143574,-0.339012,26,0.0166807,10,-4.86732e-05,-3.46978,-0.0781741,-0.754726,9.9807,0.143574,
2,0,0,1,0,50286,0.136434,0.136109,-0.419005,26,0.0160942,10,-5.70305e-05,-3.37778,-0.084152,-0.701112,11.4368,0.136109,
2,0,0,1,0,50287.5,0.128943,0.12861,-0.508577,26,0.0153774,10,-6.54082e-05,-3.29364,-0.110001,-0.536361,10.6027,0.12861,
2,0,0,0,0,50289,0.121453,0.121134,-0.572292,26,0.0145407,10,-6.93238e-05,-3.24238,-0.226028,-0.261029,5.81765,0.121134,
2,0,0,1,0,50290.5,0.113962,0.113624,-0.595243,26,0.0136364,10,-6.76338e-05,-3.22531,-1.45978,-0.0404169,0.940749,0.113624,
2,0,0,0,0,50292,0.106471,0.106142,-0.595126,26,0.0127182,10,-6.31677e-05,-3.22539,1.73709,0.0339649,-0.790216,0.1061416,
2,0,0,1,0,50293.5,0.0989798,0.0986329,-0.585545,26,0.0118097,10,-5.7754e-05,-3.23244,1.41008,0.0418415,-0.954684,0.0986329,
2,0,0,0,0,50295,0.0914889,0.091175,-0.573872,26,0.0109189,10,-5.23228e-05,-3.24118,0.71504,0.0825129,-1.84046,0.091175,
2,0,0,1,0,50296.5,0.083998,0.0836408,-0.555223,26,0.0100515,10,-4.64393e-05,-3.25553,0.368822,0.159969,-3.45609,0.0836408,
2,0,0,0,0,50298,0.076507,0.0761671,-0.5378,26,0.00921149,10,-4.09626e-05,-3.26938,0.502043,0.11752,-2.4621,0.0761671,
2,0,0,1,0,50299.5,0.069016,0.0686838,-0.518767,26,0.00839794,10,-3.56309e-05,-3.28503,0.457459,0.128973,-2.61774,0.0686838,
2,0,0,0,0,50301,0.0615251,0.0611613,-0.503336,26,0.0076093,10,-3.07847e-05,-3.29814,0.604695,0.0975699,-1.92271,0.0611613,
2,0,0,1,0,50302.5,0.0540342,0.0536483,-0.48756,26,0.00684497,10,-2.61568e-05,-3.31197,0.598878,0.0985175,-1.8714,0.0536483,
2,0,0,1,0,50304,0.0465436,0.0462197,-0.469527,26,0.00610568,10,-2.17014e-05,-3.32834,0.496877,0.118742,-2.1812,0.0462197,
2,0,0,1,0,50305.5,0.0390526,0.0387255,-0.452902,26,0.00539223,10,-1.75388e-05,-3.344,0.451439,0.130693,-2.30809,0.0387255,
2,0,0,1,0,50307,0.0315615,0.0312177,-0.437304,26,0.00470427,10,-1.36516e-05,-3.35922,0.478421,0.123322,-2.10234,0.0312177,
2,0,0,1,0,50308.5,0.0240706,0.0237112,-0.421703,26,0.00404045,10,-9.9991e-06,-3.37499,0.584148,0.101002,-1.66982,0.0237112,
2,0,0,1,0,50310,0.0165795,0.0162119,-0.412186,26,0.00339418,10,-6.68232e-06,-3.38491,1.02925,0.0573235,-0.924886,0.0162119,
2,0,0,1,0,50311.5,0.00908846,0.00876015,-0.408338,26,0.00275852,10,-3.57711e-06,-3.38898,3.80648,0.0154999,-0.247395,0.00876015,
2,0,0,1,0,50313,0.00159739,0.00120574,-0.41489,26,0.00212313,10,-5.00251e-07,-3.38207, , , ,0.00120574,
2,0,0,0,0,50313.2,0.000199195,-0.00019553,-0.411749,26,0.00200372,10,8.05093e-08,-3.38537, , , ,-0.00019553,

File: 20221101_1-115_003_TrumpetPlot_ParaChange_from10_every3_03_CV_C01_26.csv
mode,ox/red,error,control changes,counter inc.,time/s,control/V,Ewe/V,<I>/mA,cycle number,(Q-Qo)/C,I Range,P/W,log(|I|),Tafel slope mV/dec,alpha_eff,dI/d(E-IR),E-IR/V,
2,0,0,1,0,52163.4,2.44065e-05,-0.000401673,-0.098758,27,0.0000000E+000,10,3.96684e-08,-4.00543, , , ,-0.000401673,
2,1,0,1,0,52164.9,0.00729041,0.00700408,0.198545,27,0.000245889,10,1.39062e-06,-3.70214,0.0809031,0.729268,5.58226,0.00700408,
2,1,0,1,0,52166.4,0.0147815,0.0144153,0.22946,27,0.000588334,10,3.30774e-06,-3.63929,0.144971,0.406979,3.65219,0.0144153,
2,1,0,1,0,52167.9,0.0222725,0.0219262,0.25653,27,0.000972384,10,5.62473e-06,-3.59086,0.176368,0.334529,3.33399,0.0219262,
2,1,0,1,0,52169.4,0.0297635,0.0294308,0.281787,27,0.00139498,10,8.29323e-06,-3.55008,0.20785,0.283858,3.11244,0.0294308,
2,1,0,1,0,52170.9,0.0372545,0.0368918,0.306171,27,0.00185565,10,1.12952e-05,-3.51404,0.216348,0.272708,3.27029,0.0368918,
2,1,0,1,0,52172.3,0.0447456,0.044404,0.332347,27,0.00235448,10,1.47575e-05,-3.47841,0.246971,0.238894,3.09025,0.044404,
2,1,0,1,0,52173.8,0.0522367,0.0518736,0.356044,27,0.00288894,10,1.84693e-05,-3.4485,0.257209,0.229385,3.17289,0.0518736,
2,1,0,1,0,52175.3,0.0597277,0.0594248,0.375902,27,0.00345656,10,2.23379e-05,-3.42492,0.320763,0.183937,2.69144,0.0594248,
2,1,0,1,0,52176.8,0.0672187,0.0668825,0.395203,27,0.00405451,10,2.64322e-05,-3.40318,0.449132,0.131365,2.02063,0.0668825,
2,1,0,1,0,52178.3,0.0747092,0.0743644,0.409678,27,0.004678,10,3.04655e-05,-3.38756,0.548943,0.107479,1.72239,0.0743644,
2,1,0,0,0,52179.8,0.0822001,0.0818795,0.423985,27,0.00532363,10,3.47157e-05,-3.37265,0.45473,0.129747,2.15255,0.0818795,
2,1,0,1,0,52181.3,0.0896911,0.0893448,0.443568,27,0.0059938,10,3.96305e-05,-3.35304,0.337118,0.175013,3.04161,0.08934477,
2,1,0,0,0,52182.8,0.097182,0.0968291,0.473663,27,0.00670106,10,4.58644e-05,-3.32453,0.207713,0.284045,5.25209,0.0968291,
2,1,0,1,0,52184.3,0.104673,0.104378,0.515263,27,0.00746158,10,5.37822e-05,-3.28797,0.214523,0.275029,5.50685,0.104378,
2,1,0,0,0,52185.8,0.112164,0.111836,0.549548,27,0.00828071,10,6.14593e-05,-3.25999,0.317954,0.185562,3.97755,0.111836,
2,1,0,1,0,52187.3,0.119655,0.11932,0.574992,27,0.00914647,10,6.86083e-05,-3.24034,0.664751,0.088755,1.99483,0.11932,
2,1,0,0,0,52188.8,0.127146,0.126789,0.588723,27,0.010042,10,7.46435e-05,-3.23009,0.791688,0.0745243,1.71666,0.126789,
2,1,0,1,0,52190.3,0.134637,0.134321,0.585795,27,0.0109491,10,7.86844e-05,-3.23225,-0.357673,-0.164955,-3.76047,0.134321,
2,1,0,1,0,52191.8,0.142127,0.141813,0.524068,27,0.0118085,10,7.43199e-05,-3.28061,-0.100371,-0.587817,-11.9673,0.141813,
2,1,0,1,0,52193.3,0.149618,0.149299,0.421254,27,0.0125372,10,6.28928e-05,-3.37546,-0.0807678,-0.730489,-12.0507,0.149299,
2,1,0,1,0,52194.8,0.157109,0.156748,0.355079,27,0.0131322,10,5.56581e-05,-3.44967,-0.126717,-0.465604,-6.44862,0.156748,
2,1,0,1,0,52196.3,0.1646,0.164274,0.324331,27,0.0136569,10,5.32793e-05,-3.48901,-0.255579,-0.230849,-2.92068,0.164274,
2,1,0,1,0,52197.8,0.172091,0.17175,0.307853,27,0.0141495,10,5.28737e-05,-3.51166,-0.542913,-0.108673,-1.3122,0.17175,
2,1,0,1,0,52199.3,0.179582,0.179257,0.301024,27,0.0146252,10,5.39606e-05,-3.5214,-0.836792,-0.0705073,-0.831494,0.179257,
2,1,0,1,0,52200.8,0.187074,0.186759,0.29662,27,0.0150915,10,5.53964e-05,-3.5278,-8.00625,-0.00736925,-0.0850978,0.186759,
2,1,0,1,0,52202.3,0.194564,0.194213,0.292689,27,0.0155517,10,5.68439e-05,-3.53359,-1.53548,-0.0384246,-0.439566,0.194213,
2,1,0,1,0,52203.8,0.202056,0.201744,0.289859,27,0.0160068,10,5.84772e-05,-3.53781,-1.0939,-0.0539354,-0.60938,0.201744,
2,1,0,1,0,52205.3,0.209547,0.209235,0.28712,27,0.016458,10,6.00755e-05,-3.54194,-1.38726,-0.0425299,-0.47788,0.209235,
2,1,0,1,0,52206.8,0.217038,0.216679,0.285524,27,0.0169055,10,6.1867e-05,-3.54436,-2.56754,-0.0229792,-0.256215,0.216679,
2,1,0,1,0,52208.3,0.224529,0.224196,0.283794,27,0.0173503,10,6.36254e-05,-3.547,-2.39232,-0.0246622,-0.272951,0.224196,
2,1,0,1,0,52209.8,0.232019,0.231699,0.281454,27,0.017792,10,6.52127e-05,-3.55059,-1.98668,-0.0296978,-0.326694,0.231699,
2,1,0,0,0,52211.3,0.23951,0.239197,0.280046,27,0.0182312,10,6.69862e-05,-3.55277,-3.57481,-0.0165044,-0.180123,0.239197,
2,1,0,1,0,52212.8,0.247001,0.246716,0.278187,27,0.0186679,10,6.86332e-05,-3.55566,-1.55193,-0.0380171,-0.412024,0.246716,
2,1,0,0,0,52214.3,0.254492,0.254155,0.27658,27,0.0191025,10,7.02943e-05,-3.55818,-1.31564,-0.0448451,-0.484974,0.254155,
2,1,0,1,0,52215.8,0.261983,0.261661,0.275,27,0.0195342,10,7.19568e-05,-3.56067,-21.9394,-0.00268922,-0.0288987,0.261661,
2,1,0,0,0,52217.3,0.269474,0.269097,0.273011,27,0.0199638,10,7.34667e-05,-3.56382,-4.75532,-0.0124072,-0.132596,0.269097,
2,1,0,1,0,52218.8,0.276965,0.276638,0.270651,27,0.0203902,10,7.48724e-05,-3.56759,-1.62566,-0.0362929,-0.385605,0.276638,
2,1,0,0,0,52220.3,0.284456,0.284104,0.269936,27,0.0208136,10,7.66899e-05,-3.56874,-2.23029,-0.0264539,-0.278373,0.284104,
2,1,0,1,0,52221.8,0.291947,0.291643,0.268098,27,0.0212344,10,7.81889e-05,-3.57171,-1.67823,-0.0351561,-0.367378,0.291643,
2,1,0,1,0,52223.3,0.299437,0.299119,0.265348,27,0.0216523,10,7.93708e-05,-3.57618,-0.00279088,-21.1403,-114.98,0.299119,
2,0,0,1,0,52224.7,0.293744,0.29342,-0.0168706,27,0.0216957,10,-4.95017e-06,-4.77287,-0.00402991,-14.6405,6.02097,0.29342,
2,0,0,1,0,52226.2,0.286253,0.285937,-0.0453754,27,0.0216296,10,-1.29745e-05,-4.34318,-0.033689,-1.75131,3.1774,0.285937,
2,0,0,0,0,52227.7,0.278763,0.278411,-0.0679955,27,0.0215255,10,-1.89307e-05,-4.16752,-0.0596015,-0.989908,2.59839,0.278411,
2,0,0,1,0,52229.2,0.271272,0.270958,-0.0845739,27,0.0213933,10,-2.2916e-05,-4.07276,-0.107724,-0.547696,1.79739,0.270958,
2,0,0,0,0,52230.6,0.263781,0.263454,-0.098253,27,0.0212378,10,-2.58851e-05,-4.00765,-0.128173,-0.460317,1.77116,0.263454,
2,0,0,1,0,52232.1,0.25629,0.255957,-0.109964,27,0.0210635,10,-2.8146e-05,-3.95875,-0.18839,-0.313179,1.33922,0.255957,
2,0,0,0,0,52233.6,0.248799,0.248481,-0.120981,27,0.0208724,10,-3.00614e-05,-3.91728,-0.208722,-0.282673,1.33263,0.248481,
2,0,0,1,0,52235.1,0.241308,0.240993,-0.130549,27,0.0206661,10,-3.14615e-05,-3.88423,-0.20253,-0.291315,1.48447,0.2409935,
2,0,0,0,0,52236.6,0.233817,0.233469,-0.139825,27,0.0204455,10,-3.26447e-05,-3.85442,-0.243509,-0.242291,1.31821,0.233469,
2,0,0,1,0,52238.1,0.226326,0.226025,-0.148525,27,0.0202114,10,-3.35702e-05,-3.8282,-0.236983,-0.248963,1.44159,0.226025,
2,0,0,0,0,52239.6,0.218835,0.218514,-0.156716,27,0.019964,10,-3.42447e-05,-3.80489,-0.290584,-0.203039,1.24247,0.218514,
2,0,0,1,0,52241.1,0.211344,0.210957,-0.165571,27,0.0197036,10,-3.49284e-05,-3.78102,-0.35327,-0.167011,1.08235,0.210957,
2,0,0,1,0,52242.6,0.203854,0.203525,-0.174067,27,0.0194298,10,-3.5427e-05,-3.75928,-0.518523,-0.113785,0.775156,0.203525,
2,0,0,1,0,52244.1,0.196363,0.196044,-0.183467,27,0.0191429,10,-3.59676e-05,-3.73644,-0.284839,-0.207134,1.47972,0.196044,
2,0,0,1,0,52245.6,0.188871,0.188493,-0.193302,27,0.0188409,10,-3.6436e-05,-3.71376,-0.241136,-0.244675,1.83851,0.188493,
2,0,0,1,0,52247.1,0.181381,0.181047,-0.204879,27,0.0185232,10,-3.70927e-05,-3.6885,-0.319945,-0.184407,1.47658,0.181047,
2,0,0,1,0,52248.6,0.173889,0.173554,-0.218197,27,0.0181875,10,-3.7869e-05,-3.66115,-0.253573,-0.232674,1.96885,0.173554,
2,0,0,1,0,52250.1,0.166398,0.166042,-0.233905,27,0.0178305,10,-3.88379e-05,-3.63096,-0.255591,-0.230838,2.11198,0.166042,
2,0,0,1,0,52251.6,0.158907,0.158602,-0.252592,27,0.017446,10,-4.00615e-05,-3.59758,-0.17373,-0.339607,3.37519,0.158602,
2,0,0,1,0,52253.1,0.151416,0.15109,-0.285016,27,0.0170233,10,-4.30631e-05,-3.54513,-0.123597,-0.477359,5.33072,0.15109,
2,0,0,1,0,52254.6,0.143925,0.143594,-0.337291,27,0.0165398,10,-4.84329e-05,-3.47199,-0.0828123,-0.712454,9.37725,0.1435937,
2,0,0,1,0,52256.1,0.136434,0.136084,-0.416175,27,0.0159578,10,-5.66347e-05,-3.38072,-0.0826706,-0.713676,11.5699,0.136084,
2,0,0,1,0,52257.6,0.128943,0.128642,-0.504198,27,0.0152477,10,-6.4861e-05,-3.2974,-0.111806,-0.527702,10.3374,0.128642,
2,0,0,0,0,52259.1,0.121453,0.121133,-0.569015,27,0.0144192,10,-6.89262e-05,-3.24488,-0.221433,-0.266446,5.89238,0.121133,
2,0,0,1,0,52260.6,0.113962,0.113614,-0.591908,27,0.0135221,10,-6.72492e-05,-3.22775,-1.26219,-0.0467443,1.08064,0.113614,
2,0,0,0,0,52262.1,0.106471,0.106133,-0.591518,27,0.0126103,10,-6.27796e-05,-3.22803,1.44939,0.0407068,-0.941869,0.106133,
2,0,0,1,0,52263.6,0.0989798,0.0986201,-0.583871,27,0.0117072,10,-5.75814e-05,-3.23368,1.16275,0.0507417,-1.15143,0.0986201,
2,0,0,0,0,52265.1,0.0914889,0.0911379,-0.570265,27,0.0108214,10,-5.19728e-05,-3.24392,0.622887,0.0947202,-2.10338,0.0911379,
2,0,0,1,0,52266.6,0.083998,0.0836652,-0.553982,27,0.00995794,10,-4.6349e-05,-3.2565,0.408281,0.144508,-3.11852,0.0836652,
2,0,0,0,0,52268.1,0.076507,0.0761597,-0.535999,27,0.00912074,10,-4.08215e-05,-3.27084,0.491765,0.119976,-2.5091,0.0761597,
2,0,0,1,0,52269.6,0.069016,0.0686976,-0.518174,27,0.00830961,10,-3.55973e-05,-3.28552,0.539426,0.109375,-2.22078,0.0686976,
2,0,0,0,0,52271.1,0.0615251,0.061209,-0.503781,27,0.00752217,10,-3.08359e-05,-3.29776,0.515253,0.114507,-2.25406,0.061209,
2,0,0,1,0,52272.6,0.0540342,0.0536769,-0.487697,27,0.00675916,10,-2.61781e-05,-3.31185,0.627307,0.0940529,-1.78747,0.0536769,
2,0,0,1,0,52274.1,0.0465436,0.0461941,-0.470295,27,0.0060203,10,-2.17249e-05,-3.32763,0.502824,0.117337,-2.15886,0.0461941,
2,0,0,1,0,52275.6,0.0390526,0.0387087,-0.453603,27,0.00530726,10,-1.75584e-05,-3.34332,0.440627,0.1339,-2.36502,0.0387087,
2,0,0,1,0,52277.1,0.0315615,0.0312305,-0.437548,27,0.00461995,10,-1.36648e-05,-3.35897,0.461215,0.127923,-2.18545,0.0312305,
2,0,0,1,0,52278.6,0.0240706,0.023743,-0.422224,27,0.0039557,10,-1.00248e-05,-3.37446,0.529206,0.111488,-1.84308,0.023743,
2,0,0,1,0,52280.1,0.0165795,0.0162268,-0.413625,27,0.00330983,10,-6.71179e-06,-3.38339,1.23212,0.0478848,-0.773905,0.0162268,
2,0,0,1,0,52281.6,0.00908846,0.0087495,-0.409148,27,0.00267412,10,-3.57984e-06,-3.38812,4.97038,0.0118703,-0.189836,0.0087495,
2,0,0,1,0,52283.1,0.00159739,0.00124183,-0.415542,27,0.00203903,10,-5.16035e-07,-3.38138, , , ,0.00124183,
2,0,0,0,0,52283.4,0.000199195,-0.000199347,-0.413408,27,0.00191971,10,8.24118e-08,-3.38362, , , ,-0.000199347,