Folder: Figs_alphaMnO2_OER_Tafel_sleope/Figure_codes/Fig_3-5/rawdata_trumpetplot_data/after 10th (part 103)

File: 20221101_1-115_003_TrumpetPlot_ParaChange_from10_every3_07_CV_C01_32.csv
mode,ox/red,error,control changes,counter inc.,time/s,control/V,Ewe/V,<I>/mA,cycle number,(Q-Qo)/C,I Range,P/W,log(|I|),Tafel slope mV/dec,alpha_eff,dI/d(E-IR),E-IR/V,
2,0,0,0,0,64209.2,2.44065e-05,-0.000382585,-2.6785,33,0.0000000E+000,10,1.02476e-06,-2.57211, , , ,-0.000382585,
2,1,0,1,0,64209.3,0.007288,0.00695825,0.769764,33,-5.03213e-05,10,5.35621e-06,-3.11364,0.00703458,8.38714,204.495,0.00695825,
2,1,0,1,0,64209.4,0.0147816,0.0144297,1.71132,33,0.000115691,10,2.46938e-05,-2.76667,0.0480944,1.22676,80.8516,0.0144297,
2,1,0,1,0,64209.6,0.0222712,0.0219503,2.15628,33,0.000361468,10,4.73312e-05,-2.66629,0.103339,0.570936,47.9087,0.0219503,
2,1,0,1,0,64209.7,0.0297648,0.0294371,2.45316,33,0.000652023,10,7.22138e-05,-2.61027,0.159507,0.36989,35.4054,0.0294371,
2,1,0,1,0,64209.8,0.0372518,0.0369128,2.70232,33,0.000976254,10,9.97502e-05,-2.56826,0.204943,0.287885,30.4128,0.0369128,
2,1,0,1,0,64209.9,0.0447467,0.0444313,2.94677,33,0.0013311,10,0.000130929,-2.53065,0.227603,0.259224,29.7539,0.04443134,
2,1,0,1,0,64210.1,0.052235,0.0518839,3.16485,33,0.00171427,10,0.000164205,-2.49965,0.229591,0.256979,31.7294,0.0518839,
2,1,0,1,0,64210.2,0.0597299,0.0594034,3.38067,33,0.00212533,10,0.000200823,-2.471,0.263908,0.223563,29.4851,0.0594034,
2,1,0,1,0,64210.3,0.0672156,0.0668266,3.57836,33,0.0025618,10,0.000239129,-2.44632,0.320558,0.184054,25.7154,0.0668266,
2,1,0,1,0,64210.4,0.0747105,0.0743966,3.75873,33,0.00302229,10,0.000279637,-2.42496,0.408127,0.144563,21.1999,0.0743966,
2,1,0,1,0,64210.6,0.0821988,0.0818631,3.91135,33,0.00350331,10,0.000320196,-2.40767,0.456274,0.129308,19.7397,0.0818631,
2,1,0,1,0,64210.7,0.0896937,0.0893861,4.04992,33,0.0040027,10,0.000362007,-2.39255,0.467833,0.126113,19.9621,0.0893861,
2,1,0,1,0,64210.8,0.0971794,0.096857,4.20901,33,0.00452,10,0.000407672,-2.37582,0.361035,0.163419,26.8961,0.096857,
2,1,0,1,0,64210.9,0.104674,0.104361,4.45969,33,0.00506243,10,0.000465416,-2.3507,0.278131,0.212131,36.8908,0.104361,
2,1,0,1,0,64211.1,0.112163,0.11183,4.77961,33,0.00563995,10,0.000534506,-2.32061,0.236787,0.249169,46.4269,0.11183,
2,1,0,1,0,64211.2,0.119657,0.119331,5.11585,33,0.00626031,10,0.00061048,-2.29108,0.291209,0.202604,40.4437,0.119331,
2,1,0,1,0,64211.3,0.127143,0.126783,5.3649,33,0.00691789,10,0.000680178,-2.27044,0.476434,0.123837,25.9648,0.126783,
2,1,0,1,0,64211.4,0.134638,0.134288,5.52241,33,0.00760128,10,0.000741592,-2.25787,1.04952,0.056216,12.1237,0.1342877,
2,1,0,1,0,64211.6,0.142126,0.141781,5.57931,33,0.00829732,10,0.00079104,-2.25342,-3.26334,-0.0180796,-3.92683,0.141781,
2,1,0,1,0,64211.7,0.149621,0.149302,5.37272,33,0.00898665,10,0.00080216,-2.26981,-0.241396,-0.244412,-51.0673,0.149302,
2,1,0,1,0,64211.8,0.157107,0.156783,4.78727,33,0.00962588,10,0.000750564,-2.31991,-0.115541,-0.510643,-95.2624,0.1567834,
2,1,0,1,0,64211.9,0.164602,0.164284,4.06132,33,0.0101798,10,0.000667208,-2.39133,-0.104989,-0.561963,-89.2865,0.164284,
2,1,0,1,0,64212.1,0.17209,0.171808,3.50046,33,0.0106514,10,0.000601407,-2.45588,-0.124838,-0.472611,-64.6084,0.171808,
2,1,0,1,0,64212.2,0.179585,0.17925,3.12451,33,0.0110651,10,0.000560068,-2.50522,-0.181854,-0.324437,-39.5817,0.17925,
2,1,0,1,0,64212.3,0.187072,0.186769,2.87294,33,0.0114401,10,0.000536577,-2.54167,-0.267007,-0.220968,-24.8246,0.186769,
2,1,0,1,0,64212.4,0.194566,0.194179,2.71309,33,0.0117904,10,0.000526825,-2.56654,-0.349989,-0.168577,-17.875,0.1941788,
2,1,0,1,0,64212.6,0.202055,0.201717,2.60597,33,0.0121237,10,0.000525668,-2.58403,-0.424754,-0.138904,-14.1124,0.201717,
2,1,0,1,0,64212.7,0.209549,0.209223,2.53837,33,0.012446,10,0.000531085,-2.59544,-0.604079,-0.0976693,-9.64895,0.209223,
2,1,0,1,0,64212.8,0.217036,0.21671,2.46965,33,0.01276,10,0.000535198,-2.60736,-1.01785,-0.0579651,-5.6042,0.21671,
2,1,0,1,0,64212.9,0.224529,0.224216,2.43014,33,0.0130684,10,0.000544875,-2.61437,-0.970049,-0.0608217,-5.79031,0.224216,
2,1,0,1,0,64213.1,0.232019,0.231674,2.40419,33,0.0133719,10,0.000556989,-2.61903,-1.34111,-0.0439934,-4.12139,0.231674,
2,1,0,1,0,64213.2,0.239513,0.239188,2.38103,33,0.0136722,10,0.000569514,-2.62324,-1.40927,-0.0418655,-3.87932,0.239188,
2,1,0,1,0,64213.3,0.247001,0.24671,2.35469,33,0.0139693,10,0.000580926,-2.62807,-2.43253,-0.0242546,-2.22927,0.24671,
2,1,0,1,0,64213.4,0.254493,0.254174,2.33182,33,0.0142642,10,0.00059269,-2.6323,-1.60495,-0.0367614,-3.3548,0.254174,
2,1,0,1,0,64213.6,0.261983,0.26163,2.31983,33,0.0145566,10,0.000606939,-2.63454,-1.46825,-0.0401838,-3.63673,0.2616303,
2,1,0,1,0,64213.7,0.269477,0.269144,2.30624,33,0.0148471,10,0.00062071,-2.6371,-2.79075,-0.0211413,-1.89983,0.269144,
2,1,0,1,0,64213.8,0.276965,0.27667,2.29012,33,0.0151354,10,0.000633607,-2.64014,-6.16253,-0.00957399,-0.855229,0.27667,
2,1,0,1,0,64213.9,0.284457,0.284121,2.26904,33,0.0154219,10,0.00064468,-2.64416,-3.41992,-0.0172519,-1.53119,0.284121,
2,1,0,1,0,64214.1,0.291947,0.291635,2.24706,33,0.015706,10,0.000655322,-2.64838,-1.22303,-0.0482408,-4.23707,0.2916348,
2,1,0,1,0,64214.2,0.29944,0.299162,2.23564,33,0.0159881,10,0.00066882,-2.6506,-0.00995421,-5.92714,-421.61,0.299162,
2,0,0,1,0,64214.3,0.293742,0.293383,-0.227483,33,0.016065,10,-6.67398e-05,-3.64305,-0.00667253,-8.84222,136.135,0.293383,
2,0,0,1,0,64214.4,0.286254,0.28589,-0.766868,33,0.0159945,10,-0.00021924,-3.11528,-0.0383339,-1.53911,45.602,0.28589,
2,0,0,1,0,64214.5,0.278761,0.278392,-1.00337,33,0.0158799,10,-0.00027933,-2.99854,-0.0982276,-0.600646,23.5793,0.278392,
2,0,0,1,0,64214.7,0.271272,0.270939,-1.15889,33,0.0157422,10,-0.000313989,-2.93596,-0.163631,-0.360568,16.299,0.2709395,
2,0,0,1,0,64214.8,0.263778,0.263489,-1.27461,33,0.015588,10,-0.000335847,-2.89462,-0.201853,-0.292293,14.4591,0.263489,
2,0,0,1,0,64214.9,0.25629,0.255984,-1.36488,33,0.0154212,10,-0.000349388,-2.86491,-0.247421,-0.23846,12.6952,0.255984,
2,0,0,1,0,64215,0.248797,0.248457,-1.44213,33,0.0152436,10,-0.000358309,-2.84099,-0.366103,-0.161157,9.09024,0.248457,
2,0,0,1,0,64215.2,0.241308,0.240981,-1.5174,33,0.0150567,10,-0.000365663,-2.8189,-0.475315,-0.124128,7.3478,0.240981,
2,0,0,1,0,64215.3,0.233814,0.233509,-1.58406,33,0.0148611,10,-0.000369892,-2.80023,-0.39025,-0.151185,9.33362,0.233509,
2,0,0,1,0,64215.4,0.226326,0.225996,-1.64437,33,0.0146576,10,-0.000371622,-2.784,-0.403703,-0.146147,9.37237,0.225996,
2,0,0,1,0,64215.5,0.218834,0.218478,-1.70306,33,0.0144465,10,-0.000372081,-2.76877,-0.426217,-0.138427,9.22457,0.218478,
2,0,0,1,0,64215.7,0.211344,0.211038,-1.76336,33,0.014228,10,-0.000372136,-2.75366,-0.63769,-0.0925215,6.37071,0.211038,
2,0,0,1,0,64215.8,0.203856,0.203502,-1.82653,33,0.0140021,10,-0.000371703,-2.73837,-0.627748,-0.0939868,6.67696,0.203502,
2,0,0,1,0,64215.9,0.196362,0.196051,-1.88425,33,0.0137688,10,-0.000369409,-2.72486,-0.48229,-0.122333,8.98232,0.196051,
2,0,0,1,0,64216,0.18887,0.188511,-1.94287,33,0.0135277,10,-0.000366253,-2.71156,-0.411306,-0.143446,10.9104,0.188511,
2,0,0,1,0,64216.2,0.18138,0.181077,-2.012,33,0.0132785,10,-0.000364327,-2.69637,-0.507545,-0.116246,9.15054,0.1810772,
2,0,0,1,0,64216.3,0.173892,0.173542,-2.10038,33,0.01302,10,-0.000364503,-2.6777,-0.44576,-0.132358,10.8155,0.173542,
2,0,0,1,0,64216.4,0.166398,0.166091,-2.19585,33,0.0127503,10,-0.00036471,-2.6584,-0.33043,-0.178555,15.2955,0.166091,
2,0,0,1,0,64216.5,0.158905,0.158554,-2.31464,33,0.0124666,10,-0.000366995,-2.63552,-0.266447,-0.221432,20.077,0.158554,
2,0,0,1,0,64216.7,0.151417,0.151053,-2.49661,33,0.0121645,10,-0.00037712,-2.60265,-0.195583,-0.301662,29.5226,0.151053,
2,0,0,1,0,64216.8,0.143927,0.143573,-2.79265,33,0.0118335,10,-0.000400951,-2.55398,-0.131528,-0.448572,48.8984,0.143573,
2,0,0,1,0,64216.9,0.136435,0.136132,-3.25081,33,0.0114562,10,-0.000442539,-2.48801,-0.100161,-0.58905,74.6183,0.136132,
2,0,0,1,0,64217,0.128941,0.128619,-3.84882,33,0.0110116,10,-0.00049503,-2.41467,-0.103256,-0.571393,85.7323,0.128619,
2,0,0,1,0,64217.2,0.121453,0.121159,-4.45005,33,0.0104909,10,-0.000539162,-2.35164,-0.137642,-0.428649,74.3941,0.121159,
2,0,0,1,0,64217.3,0.113963,0.113648,-4.96806,33,0.0098996,10,-0.000564608,-2.30381,-0.196952,-0.299566,58.0641,0.113648,
2,0,0,1,0,64217.4,0.106471,0.106152,-5.36204,33,0.00925054,10,-0.000569193,-2.27067,-0.302376,-0.195121,40.7746,0.106152,
2,0,0,1,0,64217.5,0.0989825,0.0986351,-5.56359,33,0.00856443,10,-0.000548765,-2.25464,-0.768359,-0.0767871,16.6513,0.09863513,
2,0,0,1,0,64217.7,0.0914889,0.0911161,-5.57066,33,0.00786516,10,-0.000507577,-2.25409,1.56361,0.0377331,-8.19916,0.0911161,
2,0,0,1,0,64217.8,0.0839993,0.083631,-5.45161,33,0.0071747,10,-0.000455923,-2.26348,0.590913,0.0998456,-21.2182,0.083631,
2,0,0,1,0,64217.9,0.076507,0.07619,-5.31646,33,0.00650077,10,-0.000405061,-2.27438,0.716281,0.0823699,-17.0715,0.07619,
2,0,0,1,0,64218,0.0690187,0.0686911,-5.20505,33,0.00584274,10,-0.000357541,-2.28357,1.06276,0.0555158,-11.2784,0.0686911,
2,0,0,1,0,64218.2,0.0615251,0.0612055,-5.10672,33,0.00519644,10,-0.000312559,-2.29186,0.815019,0.0723909,-14.4499,0.06120548,
2,0,0,1,0,64218.3,0.0540355,0.0536864,-5.00226,33,0.00456308,10,-0.000268553,-2.30083,0.730065,0.0808147,-15.7859,0.0536864,
2,0,0,1,0,64218.4,0.0465432,0.0461925,-4.88476,33,0.00394307,10,-0.000225639,-2.31116,0.694993,0.0848929,-16.177,0.0461925,
2,0,0,1,0,64218.5,0.0390549,0.0386708,-4.75951,33,0.00333941,10,-0.000184054,-2.32244,0.604413,0.0976154,-18.0877,0.0386708,
2,0,0,1,0,64218.7,0.0315613,0.0311628,-4.59561,33,0.00275314,10,-0.000143212,-2.33766,0.513579,0.11488,-20.6139,0.0311628,
2,0,0,1,0,64218.8,0.0240717,0.02376,-4.4271,33,0.00218754,10,-0.000105188,-2.35388,0.442594,0.133305,-23.0796,0.02376,
2,0,0,1,0,64218.9,0.0165781,0.0162653,-4.27354,33,0.00164222,10,-6.95105e-05,-2.36921,0.458091,0.128795,-21.4785,0.0162653,
2,0,0,1,0,64219,0.00909108,0.00873512,-4.13825,33,0.00111584,10,-3.61482e-05,-2.38318,0.630894,0.0935181,-15.088,0.008735125,
2,0,0,1,0,64219.2,0.00159616,0.00118619,-4.0573,33,0.000603695,10,-4.81271e-06,-2.39176, , , ,0.00118619,
2,0,0,1,0,64219.2,0.000199195,-0.000214617,-4.03341,33,0.000509021,10,8.65639e-07,-2.39433, , , ,-0.000214617,

File: 20221101_1-115_003_TrumpetPlot_ParaChange_from10_every3_07_CV_C01_33.csv
mode,ox/red,error,control changes,counter inc.,time/s,control/V,Ewe/V,<I>/mA,cycle number,(Q-Qo)/C,I Range,P/W,log(|I|),Tafel slope mV/dec,alpha_eff,dI/d(E-IR),E-IR/V,
2,0,0,0,0,66179.3,2.44065e-05,-0.000268062,-2.69949,34,0.0000000E+000,10,7.2363e-07,-2.56872, , , ,-0.000268062,
2,1,0,1,0,66179.4,0.007288,0.00696603,0.757521,34,-5.34811e-05,10,5.27691e-06,-3.12061,0.00662272,8.90873,212.329,0.00696603,
2,1,0,1,0,66179.6,0.0147816,0.0144372,1.72646,34,0.000113396,10,2.49252e-05,-2.76284,0.0483134,1.22119,81.6411,0.0144372,
2,1,0,1,0,66179.7,0.0222712,0.0219769,2.18965,34,0.000362382,10,4.81217e-05,-2.65963,0.107902,0.546794,46.428,0.0219769,
2,1,0,1,0,66179.8,0.0297648,0.029423,2.48878,34,0.000656956,10,7.32274e-05,-2.60401,0.156271,0.377549,36.5237,0.029423,
2,1,0,1,0,66179.9,0.0372518,0.0369628,2.73609,34,0.000985123,10,0.000101133,-2.56287,0.192948,0.305783,32.6758,0.0369628,
2,1,0,1,0,66180.1,0.0447467,0.0444316,2.96917,34,0.0013438,10,0.000131925,-2.52736,0.228165,0.258584,30.0007,0.0444316,
2,1,0,1,0,66180.2,0.052235,0.0518803,3.19592,34,0.00173073,10,0.000165805,-2.4954,0.255151,0.231235,28.8295,0.0518803,
2,1,0,1,0,66180.3,0.0597299,0.0593823,3.40918,34,0.00214543,10,0.000202445,-2.46735,0.272594,0.216439,28.7618,0.0593823,
2,1,0,1,0,66180.4,0.0672156,0.0668638,3.60951,34,0.00258546,10,0.000241346,-2.44255,0.304587,0.193705,27.2929,0.06686379,
2,1,0,1,0,66180.6,0.0747105,0.074424,3.78281,34,0.00304956,10,0.000281532,-2.42219,0.423714,0.139245,20.5866,0.074424,
2,1,0,1,0,66180.7,0.0821988,0.0818755,3.93967,34,0.00353388,10,0.000322562,-2.40454,0.529104,0.111509,17.1382,0.0818755,
2,1,0,1,0,66180.8,0.0896937,0.0893343,4.08218,34,0.00403643,10,0.000364679,-2.38911,0.50716,0.116334,18.5081,0.0893343,
2,1,0,1,0,66180.9,0.0971794,0.0968296,4.23291,34,0.00455653,10,0.000409871,-2.37336,0.349777,0.168679,27.9065,0.0968296,
2,1,0,1,0,66181.1,0.104674,0.104383,4.46746,34,0.0051012,10,0.000466326,-2.34994,0.275343,0.214279,37.4046,0.104383,
2,1,0,1,0,66181.2,0.112163,0.111818,4.79044,34,0.00568011,10,0.000535657,-2.31962,0.253339,0.232889,43.5305,0.111818,
2,1,0,1,0,66181.3,0.119657,0.119327,5.13295,34,0.00630178,10,0.0006125,-2.28963,0.298961,0.19735,39.4751,0.119327,
2,1,0,1,0,66181.4,0.127143,0.126819,5.38574,34,0.00696102,10,0.000683016,-2.26875,0.416551,0.141639,29.7781,0.126819,
2,1,0,1,0,66181.6,0.134638,0.134272,5.55118,34,0.00764716,10,0.000745371,-2.25561,0.779485,0.075691,16.4071,0.134272,
2,1,0,1,0,66181.7,0.142126,0.14183,5.60868,34,0.00834735,10,0.000795479,-2.25114,-2.92688,-0.020158,-4.40972,0.14183,
2,1,0,1,0,66181.8,0.149621,0.149296,5.43374,34,0.00904266,10,0.000811234,-2.2649,-0.24874,-0.237195,-50.114,0.149296,
2,1,0,1,0,66181.9,0.157107,0.156819,4.87135,34,0.00969072,10,0.000763922,-2.31235,-0.118182,-0.499229,-94.6422,0.1568193,
2,1,0,1,0,66182.1,0.164602,0.164279,4.13989,34,0.0102547,10,0.000680096,-2.38301,-0.104187,-0.566291,-91.6476,0.164279,
2,1,0,1,0,66182.2,0.17209,0.171731,3.55777,34,0.0107351,10,0.000610978,-2.44882,-0.126558,-0.46619,-64.9649,0.171731,
2,1,0,1,0,66182.3,0.179585,0.179276,3.17734,34,0.0111562,10,0.00056962,-2.49794,-0.180364,-0.327116,-40.6058,0.179276,
2,1,0,1,0,66182.4,0.187072,0.186748,2.92242,34,0.0115373,10,0.000545755,-2.53426,-0.268061,-0.220099,-25.1043,0.186748,
2,1,0,1,0,66182.6,0.194566,0.194266,2.74901,34,0.0118923,10,0.000534038,-2.56082,-0.382437,-0.154274,-16.5716,0.194266,
2,1,0,1,0,66182.7,0.202055,0.201743,2.62999,34,0.0122294,10,0.000530581,-2.58005,-0.433841,-0.135995,-13.97,0.201743,
2,1,0,1,0,66182.8,0.209549,0.209242,2.55524,34,0.0125548,10,0.000534665,-2.59257,-0.517723,-0.11396,-11.355,0.209242,
2,1,0,1,0,66182.9,0.217036,0.216715,2.48993,34,0.0128713,10,0.000539607,-2.60381,-0.990083,-0.059591,-5.79623,0.216715,
2,1,0,1,0,66183.1,0.22453,0.224233,2.44757,34,0.0131818,10,0.000548827,-2.61126,-1.22551,-0.0481431,-4.61132,0.224233,
2,1,0,1,0,66183.2,0.232019,0.231735,2.4195,34,0.0134874,10,0.000560683,-2.61627,-1.76607,-0.0334075,-3.15551,0.231735,
2,1,0,1,0,66183.3,0.239513,0.239203,2.39557,34,0.0137895,10,0.000573027,-2.62059,-1.76261,-0.0334731,-3.12269,0.239203,
2,1,0,1,0,66183.4,0.247001,0.246722,2.37428,34,0.0140885,10,0.000585787,-2.62447,-3.25985,-0.018099,-1.67443,0.246722,
2,1,0,1,0,66183.6,0.254493,0.254206,2.35017,34,0.0143852,10,0.000597428,-2.6289,-3.39689,-0.0173688,-1.59334,0.254206,
2,1,0,1,0,66183.7,0.261983,0.261653,2.32984,34,0.0146794,10,0.000609611,-2.63267,-2.16618,-0.0272369,-2.48144,0.261653,
2,1,0,1,0,66183.8,0.269477,0.269185,2.31897,34,0.0149716,10,0.000624233,-2.6347,-1.96537,-0.0300198,-2.7149,0.269185,
2,1,0,1,0,66183.9,0.276965,0.276663,2.30258,34,0.0152616,10,0.000637041,-2.63778,-3.14928,-0.0187345,-1.68228,0.276663,
2,1,0,1,0,66184.1,0.284457,0.284137,2.28343,34,0.0155497,10,0.000648809,-2.64141,-7.07195,-0.00834282,-0.743846,0.284137,
2,1,0,1,0,66184.2,0.291947,0.291648,2.26331,34,0.0158354,10,0.000660091,-2.64526,-1.41007,-0.0418418,-3.70286,0.291648,
2,1,0,1,0,66184.3,0.29944,0.299112,2.24902,34,0.0161192,10,0.00067271,-2.64801,-0.0100704,-5.85874,-422.167,0.299112,
2,0,0,1,0,66184.4,0.293742,0.29338,-0.227232,34,0.0161979,10,-6.66653e-05,-3.64353,-0.0070022,-8.42593,141.541,0.29338,
2,0,0,1,0,66184.5,0.286254,0.285963,-0.788727,34,0.016126,10,-0.000225547,-3.10307,-0.0401247,-1.47042,44.5863,0.285963,
2,0,0,1,0,66184.7,0.278761,0.278435,-1.02317,34,0.016009,10,-0.000284888,-2.99005,-0.100515,-0.58698,23.4994,0.278435,
2,0,0,1,0,66184.8,0.271272,0.27097,-1.18381,34,0.0158687,10,-0.000320778,-2.92672,-0.170377,-0.346292,15.9286,0.27097,
2,0,0,1,0,66184.9,0.263778,0.263493,-1.29883,34,0.0157118,10,-0.000342234,-2.88645,-0.206324,-0.285958,14.4103,0.2634933,
2,0,0,1,0,66185,0.25629,0.255958,-1.3919,34,0.0155423,10,-0.000356269,-2.85639,-0.303033,-0.194698,10.5162,0.255958,
2,0,0,1,0,66185.2,0.248797,0.248472,-1.46224,34,0.015362,10,-0.000363327,-2.83498,-0.361971,-0.162996,9.34854,0.248472,
2,0,0,1,0,66185.3,0.241308,0.241004,-1.53419,34,0.0151724,10,-0.000369746,-2.81412,-0.45765,-0.12892,7.73452,0.241004,
2,0,0,1,0,66185.4,0.233814,0.233502,-1.60389,34,0.0149742,10,-0.000374513,-2.79482,-0.434593,-0.135759,8.50028,0.233502,
2,0,0,1,0,66185.5,0.226326,0.225994,-1.66316,34,0.0147682,10,-0.000375865,-2.77907,-0.41183,-0.143263,9.30632,0.2259945,
2,0,0,1,0,66185.7,0.218834,0.218514,-1.72534,34,0.0145543,10,-0.00037701,-2.76313,-0.470054,-0.125518,8.45984,0.218514,
2,0,0,1,0,66185.8,0.211344,0.211035,-1.78485,34,0.0143333,10,-0.000376666,-2.7484,-0.632518,-0.093278,6.4919,0.211035,
2,0,0,1,0,66185.9,0.203856,0.203527,-1.84626,34,0.0141047,10,-0.000375762,-2.73371,-0.636193,-0.0927391,6.67285,0.203527,
2,0,0,1,0,66186,0.196362,0.196032,-1.90466,34,0.0138688,10,-0.000373373,-2.72018,-0.481814,-0.122454,9.08613,0.196032,
2,0,0,1,0,66186.2,0.18887,0.188531,-1.96634,34,0.0136249,10,-0.000370717,-2.70634,-0.47907,-0.123155,9.46393,0.188531,
2,0,0,1,0,66186.3,0.18138,0.181058,-2.03388,34,0.013373,10,-0.000368251,-2.69167,-0.467145,-0.126299,10.0442,0.181058,
2,0,0,1,0,66186.4,0.173892,0.173536,-2.1196,34,0.0131117,10,-0.000367827,-2.67375,-0.442707,-0.133271,11.0076,0.1735359,
2,0,0,1,0,66186.5,0.166398,0.166074,-2.22222,34,0.0128391,10,-0.000369053,-2.65321,-0.373512,-0.15796,13.6692,0.166074,
2,0,0,1,0,66186.7,0.158905,0.158571,-2.34104,34,0.0125526,10,-0.000371222,-2.63059,-0.264823,-0.22279,20.4049,0.158571,
2,0,0,1,0,66186.8,0.151417,0.151077,-2.52295,34,0.0122474,10,-0.00038116,-2.59809,-0.200826,-0.293787,29.0318,0.151077,
2,0,0,1,0,66186.9,0.143927,0.14362,-2.81416,34,0.0119134,10,-0.000404171,-2.55065,-0.131828,-0.447552,49.2408,0.14362,
2,0,0,1,0,66187,0.136435,0.136109,-3.27327,34,0.0115329,10,-0.000445522,-2.48502,-0.104609,-0.564006,72.0238,0.136109,
2,0,0,1,0,66187.2,0.128941,0.128626,-3.86996,34,0.0110858,10,-0.000497778,-2.41229,-0.106407,-0.554474,83.6282,0.128626,
2,0,0,1,0,66187.3,0.121453,0.121137,-4.46764,34,0.0105627,10,-0.000541196,-2.34992,-0.135794,-0.434482,75.7445,0.1211368,
2,0,0,1,0,66187.4,0.113963,0.113635,-4.99401,34,0.00996878,10,-0.000567493,-2.30155,-0.191896,-0.307459,59.8526,0.113635,
2,0,0,1,0,66187.5,0.106471,0.106157,-5.38861,34,0.00931691,10,-0.00057204,-2.26852,-0.295239,-0.199838,41.9554,0.106157,
2,0,0,1,0,66187.7,0.0989825,0.0986723,-5.59536,34,0.00862724,10,-0.000552107,-2.25217,-0.755327,-0.0781118,17.041,0.0986723,
2,0,0,1,0,66187.8,0.0914889,0.091188,-5.60352,34,0.00792384,10,-0.000510974,-2.25154,1.42546,0.0413901,-9.05096,0.091188,
2,0,0,1,0,66187.9,0.0839993,0.0836697,-5.48943,34,0.00722875,10,-0.000459299,-2.26047,0.585638,0.100745,-21.5613,0.0836697,
2,0,0,1,0,66188,0.076507,0.0761741,-5.35466,34,0.00654992,10,-0.000407886,-2.27127,0.747906,0.0788869,-16.4803,0.0761741,
2,0,0,1,0,66188.2,0.0690187,0.0686911,-5.24245,34,0.00588678,10,-0.00036011,-2.28047,1.02612,0.0574984,-11.7764,0.0686911,
2,0,0,1,0,66188.3,0.0615251,0.0612145,-5.14543,34,0.00523539,10,-0.000314975,-2.28858,0.866922,0.0680569,-13.6906,0.06121451,
2,0,0,1,0,66188.4,0.0540355,0.0537361,-5.04161,34,0.00459693,10,-0.000270917,-2.29743,0.781596,0.0754865,-14.8508,0.0537361,
2,0,0,1,0,66188.5,0.0465432,0.0461754,-4.92334,34,0.00397205,10,-0.000227337,-2.30774,0.70366,0.0838473,-16.1081,0.0461754,
2,0,0,1,0,66188.7,0.0390549,0.0387133,-4.79301,34,0.00336383,10,-0.000185553,-2.31939,0.597288,0.0987799,-18.4517,0.0387133,
2,0,0,1,0,66188.8,0.0315613,0.0312165,-4.6289,34,0.00277323,10,-0.000144498,-2.33452,0.473765,0.124534,-22.5212,0.0312165,
2,0,0,1,0,66188.9,0.0240717,0.0237551,-4.45804,34,0.00220377,10,-0.000105901,-2.35086,0.417026,0.141478,-24.6466,0.0237551,
2,0,0,1,0,66189,0.0165781,0.0162987,-4.3014,34,0.00165486,10,-7.01073e-05,-2.36639,0.485016,0.121645,-20.411,0.0162987,
2,0,0,1,0,66189.2,0.00909108,0.00878209,-4.16016,34,0.00112512,10,-3.65349e-05,-2.38089,0.646689,0.091234,-14.8127,0.00878209,
2,0,0,1,0,66189.3,0.00159616,0.00126202,-4.08198,34,0.000609803,10,-5.15153e-06,-2.38913, , , ,0.00126202,
2,0,0,1,0,66189.3,0.000199195,-0.000197439,-4.05748,34,0.000514543,10,8.01104e-07,-2.39174, , , ,-0.000197439,