Folder: Figs_alphaMnO2_OER_Tafel_sleope/Figure_codes/Fig_3-5/rawdata_trumpetplot_data/after 10th (part 72)

File: 20221101_1-115_003_TrumpetPlot_ParaChange_from10_every3_06_CV_C01_4.csv
mode,ox/red,error,control changes,counter inc.,time/s,control/V,Ewe/V,<I>/mA,cycle number,(Q-Qo)/C,I Range,P/W,log(|I|),Tafel slope mV/dec,alpha_eff,dI/d(E-IR),E-IR/V,
2,0,0,0,0,9030.54,2.44065e-05,-0.000229887,-1.41852,5,0.0000000E+000,10,3.261e-07,-2.84816, , , ,-0.000229887,
2,1,0,1,0,9030.72,0.00729063,0.00700148,1.41712,5,0.000139143,10,9.9219e-06,-2.84859,0.0483416,1.22048,65.8112,0.00700148,
2,1,0,1,0,9030.91,0.014778,0.0144777,1.71206,5,0.000438324,10,2.47868e-05,-2.76648,0.125966,0.46838,31.1256,0.0144777,
2,1,0,1,0,9031.1,0.0222743,0.0220326,1.89836,5,0.00078057,10,4.18257e-05,-2.72162,0.169343,0.348406,25.9091,0.0220326,
2,1,0,1,0,9031.28,0.0297626,0.0294918,2.08977,5,0.0011571,10,6.16311e-05,-2.6799,0.188331,0.313279,25.4925,0.0294918,
2,1,0,1,0,9031.47,0.0372544,0.0369554,2.27134,5,0.0015684,10,8.39384e-05,-2.64372,0.217083,0.271785,24.0743,0.0369554,
2,1,0,1,0,9031.66,0.0447472,0.0444142,2.45287,5,0.00201467,10,0.000108942,-2.61033,0.23499,0.251074,24.1101,0.0444142,
2,1,0,1,0,9031.85,0.0522345,0.0519025,2.63815,5,0.0024948,10,0.000136927,-2.5787,0.238047,0.24785,25.4552,0.0519025,
2,1,0,1,0,9032.03,0.0597309,0.059435,2.80844,5,0.00300851,10,0.00016692,-2.55153,0.27927,0.211265,23.141,0.059435,
2,1,0,1,0,9032.22,0.0672182,0.0669242,2.96397,5,0.00355246,10,0.000198362,-2.52813,0.323392,0.182441,21.1125,0.0669242,
2,1,0,1,0,9032.41,0.0747074,0.0743937,3.11489,5,0.00412458,10,0.000231728,-2.50656,0.383987,0.153651,18.5992,0.0743937,
2,1,0,1,0,9032.59,0.0822019,0.0818815,3.2333,5,0.00472312,10,0.000264747,-2.49035,0.425235,0.138747,17.5511,0.0818815,
2,1,0,1,0,9032.78,0.0896911,0.0893972,3.3771,5,0.00534588,10,0.000301903,-2.47146,0.3777,0.156209,20.6445,0.08939717,
2,1,0,1,0,9032.97,0.097182,0.0968464,3.57791,5,0.0059995,10,0.000346507,-2.44637,0.236833,0.249121,34.7613,0.0968464,
2,1,0,1,0,9033.16,0.104675,0.10439,3.86657,5,0.00669838,10,0.000403631,-2.41267,0.198018,0.297953,45.0084,0.10439,
2,1,0,1,0,9033.34,0.112162,0.111829,4.19787,5,0.00745692,10,0.000469445,-2.37697,0.224608,0.262679,43.0102,0.1118292,
2,1,0,1,0,9033.53,0.119655,0.119346,4.48329,5,0.00827474,10,0.000535062,-2.3484,0.365976,0.161213,28.159,0.119346,
2,1,0,1,0,9033.72,0.127146,0.126788,4.67114,5,0.00913662,10,0.000592244,-2.33058,0.416538,0.141644,25.8876,0.126788,
2,1,0,1,0,9033.91,0.134635,0.134302,4.85881,5,0.0100334,10,0.00065255,-2.31347,0.579111,0.10188,19.308,0.134302,
2,1,0,1,0,9034.09,0.14213,0.141809,4.88178,5,0.0109544,10,0.00069228,-2.31142,-0.548226,-0.10762,-20.436,0.141809,
2,1,0,1,0,9034.28,0.149619,0.149314,4.42862,5,0.0118382,10,0.000661256,-2.35373,-0.105777,-0.557778,-96.0719,0.1493143,
2,1,0,1,0,9034.47,0.157106,0.156809,3.59376,5,0.0125935,10,0.000563534,-2.44445,-0.0751584,-0.785009,-109.838,0.156809,
2,1,0,1,0,9034.65,0.164602,0.164289,2.90843,5,0.0132004,10,0.000477822,-2.53634,-0.0959128,-0.615142,-70.0051,0.164289,
2,1,0,1,0,9034.84,0.172091,0.171787,2.4933,5,0.0137062,10,0.000428317,-2.60322,-0.1344,-0.438987,-42.8648,0.171787,
2,1,0,1,0,9035.03,0.179582,0.179301,2.24962,5,0.0141515,10,0.000403359,-2.64789,-0.192917,-0.305831,-26.8115,0.179301,
2,1,0,1,0,9035.22,0.187074,0.186758,2.0797,5,0.0145589,10,0.000388402,-2.682,-0.30298,-0.194733,-15.8622,0.186758,
2,1,0,1,0,9035.4,0.194563,0.194239,1.98235,5,0.014942,10,0.000385051,-2.70282,-0.422805,-0.139544,-10.7952,0.194239,
2,1,0,1,0,9035.59,0.202059,0.20176,1.91591,5,0.0153098,10,0.000386553,-2.71763,-0.520891,-0.113267,-8.45007,0.20176,
2,1,0,1,0,9035.78,0.209546,0.209244,1.86327,5,0.0156669,10,0.000389878,-2.72972,-0.584923,-0.100868,-7.36871,0.2092437,
2,1,0,1,0,9035.97,0.217035,0.216741,1.82592,5,0.016016,10,0.000395752,-2.73852,-1.17846,-0.0500652,-3.57614,0.216741,
2,1,0,1,0,9036.15,0.22453,0.224204,1.80044,5,0.0163595,10,0.000403665,-2.74462,-1.50706,-0.039149,-2.75211,0.224204,
2,1,0,1,0,9036.34,0.232019,0.231731,1.77704,5,0.0166978,10,0.000411796,-2.7503,-2.78886,-0.0211556,-1.47051,0.231731,
2,1,0,1,0,9036.53,0.23951,0.239174,1.76298,5,0.0170323,10,0.00042166,-2.75375,-2.598,-0.0227098,-1.55768,0.239174,
2,1,0,1,0,9036.71,0.247003,0.246699,1.74132,5,0.0173632,10,0.000429583,-2.75912,-1.12817,-0.0522971,-3.54934,0.246699,
2,1,0,1,0,9036.9,0.25449,0.254182,1.71946,5,0.0176905,10,0.000437055,-2.76461,-1.39042,-0.0424332,-2.85532,0.254182,
2,1,0,1,0,9037.09,0.261983,0.261701,1.71048,5,0.0180146,10,0.000447636,-2.76688,-1.5216,-0.038775,-2.5716,0.261701,
2,1,0,1,0,9037.28,0.269474,0.269186,1.68169,5,0.0183356,10,0.000452689,-2.77425,-2.70223,-0.0218338,-1.44098,0.269186,
2,1,0,1,0,9037.46,0.276963,0.276666,1.67089,5,0.0186533,10,0.000462279,-2.77705,-4.14648,-0.0142289,-0.927955,0.276666,
2,1,0,1,0,9037.65,0.284458,0.284192,1.65693,5,0.0189681,10,0.000470887,-2.7807,-1.83005,-0.0322395,-2.07555,0.284192,
2,1,0,1,0,9037.84,0.291947,0.291674,1.62987,5,0.0192792,10,0.00047539,-2.78785,-0.964931,-0.0611443,-3.91098,0.291674,
2,1,0,1,0,9038.03,0.299434,0.299136,1.61805,5,0.0195871,10,0.000484017,-2.79101,-0.0107677,-5.47936,-275.477,0.299136,
2,0,0,1,0,9038.18,0.294196,0.293912,-0.441379,5,0.0195983,10,-0.000129726,-3.35519,-0.0225061,-2.62151,42.9016,0.293912,
2,0,0,1,0,9038.37,0.286701,0.286373,-0.635664,5,0.0194908,10,-0.000182037,-3.19677,-0.0788441,-0.748312,18.6347,0.286373,
2,0,0,1,0,9038.56,0.279212,0.278924,-0.762571,5,0.0193553,10,-0.000212699,-3.11772,-0.130726,-0.451325,13.3604,0.278924,
2,0,0,1,0,9038.75,0.271725,0.271401,-0.848221,5,0.0192006,10,-0.000230208,-3.07149,-0.145405,-0.405763,13.4497,0.2714012,
2,0,0,1,0,9038.93,0.264228,0.263889,-0.92151,5,0.0190309,10,-0.000243177,-3.0355,-0.265449,-0.222265,7.98992,0.263889,
2,0,0,1,0,9039.12,0.256741,0.25642,-0.985882,5,0.0188487,10,-0.0002528,-3.00617,-0.36128,-0.163308,6.25034,0.2564199,
2,0,0,1,0,9039.31,0.249248,0.248922,-1.03817,5,0.0186554,10,-0.000258424,-2.98373,-0.401979,-0.146774,5.97603,0.248922,
2,0,0,1,0,9039.5,0.241756,0.241432,-1.08946,5,0.0184518,10,-0.000263031,-2.96279,-0.419492,-0.140646,5.98511,0.241432,
2,0,0,1,0,9039.68,0.234268,0.233974,-1.14085,5,0.0182391,10,-0.000266928,-2.94277,-0.360184,-0.163805,7.31092,0.233974,
2,0,0,1,0,9039.87,0.226772,0.226487,-1.18914,5,0.0180169,10,-0.000269325,-2.92477,-0.324166,-0.182005,8.45651,0.226487,
2,0,0,1,0,9040.06,0.219284,0.218974,-1.24455,5,0.0177862,10,-0.000272524,-2.90499,-0.399069,-0.147844,7.11317,0.218974,
2,0,0,1,0,9040.24,0.211796,0.211502,-1.28726,5,0.0175465,10,-0.000272258,-2.89033,-0.643666,-0.0916624,4.58433,0.211502,
2,0,0,1,0,9040.43,0.204301,0.203932,-1.34099,5,0.0172969,10,-0.00027347,-2.87258,-0.612779,-0.0962827,5.03984,0.203932,
2,0,0,1,0,9040.62,0.196812,0.196484,-1.39081,5,0.0170381,10,-0.000273271,-2.85673,-0.425498,-0.138661,7.50782,0.196484,
2,0,0,1,0,9040.81,0.189321,0.18902,-1.45118,5,0.0167681,10,-0.000274303,-2.83828,-0.359324,-0.164197,9.3476,0.18902,
2,0,0,1,0,9040.99,0.181828,0.181517,-1.5285,5,0.0164853,10,-0.000277449,-2.81574,-0.296173,-0.199208,11.8916,0.181517,
2,0,0,1,0,9041.18,0.174341,0.174013,-1.63204,5,0.0161864,10,-0.000283997,-2.78727,-0.219816,-0.268406,17.0329,0.174013,
2,0,0,1,0,9041.37,0.166848,0.166524,-1.76422,5,0.0158655,10,-0.000293785,-2.75345,-0.192507,-0.306483,21.1728,0.166524,
2,0,0,1,0,9041.56,0.159357,0.159051,-1.9691,5,0.0155135,10,-0.000313188,-2.70573,-0.137328,-0.429628,33.0185,0.159051,
2,0,0,1,0,9041.74,0.151868,0.151543,-2.2896,5,0.0151139,10,-0.000346973,-2.64024,-0.0980535,-0.601712,53.8599,0.151543,
2,0,0,1,0,9041.93,0.144373,0.144057,-2.79817,5,0.0146368,10,-0.000403095,-2.55313,-0.0758124,-0.778237,85.3766,0.144057,
2,0,0,1,0,9042.12,0.136884,0.136586,-3.52206,5,0.014043,10,-0.000481065,-2.4532,-0.07911,-0.745797,102.35,0.136586,
2,0,0,1,0,9042.3,0.129393,0.129069,-4.24377,5,0.0133104,10,-0.000547738,-2.37225,-0.111995,-0.526809,87.0604,0.129069,
2,0,0,1,0,9042.49,0.1219,0.121603,-4.75875,5,0.0124594,10,-0.000578678,-2.32251,-0.22799,-0.258783,47.9488,0.121603,
2,0,0,1,0,9042.68,0.114413,0.114114,-4.99188,5,0.0115393,10,-0.000569645,-2.30174,-0.893909,-0.0660022,12.8222,0.114114,
2,0,0,1,0,9042.87,0.10692,0.106595,-4.97642,5,0.0105988,10,-0.000530462,-2.30308,0.704571,0.0837389,-16.2524,0.106595,
2,0,0,1,0,9043.05,0.0994284,0.0991327,-4.78603,5,0.00967788,10,-0.000474453,-2.32002,0.340219,0.173418,-32.3802,0.0991327,
2,0,0,1,0,9043.24,0.0919401,0.0916249,-4.50247,5,0.00880454,10,-0.000412539,-2.34655,0.278868,0.21157,-37.1172,0.0916249,
2,0,0,1,0,9043.43,0.0844447,0.0841523,-4.23296,5,0.00798369,10,-0.000356213,-2.37336,0.349611,0.168759,-27.9151,0.0841523,
2,0,0,1,0,9043.62,0.0769565,0.0766417,-4.0525,5,0.00720563,10,-0.000310591,-2.39228,0.419016,0.140806,-22.2619,0.0766417,
2,0,0,1,0,9043.8,0.0694682,0.0691407,-3.91876,5,0.00645687,10,-0.000270946,-2.40685,0.557368,0.105855,-16.165,0.0691407,
2,0,0,1,0,9043.99,0.0619728,0.0616756,-3.79041,5,0.00573041,10,-0.000233776,-2.42131,0.513918,0.114804,-17.0319,0.0616756,
2,0,0,1,0,9044.18,0.0544836,0.0541494,-3.67744,5,0.0050271,10,-0.000199131,-2.43445,0.600873,0.0981904,-14.0742,0.0541494,
2,0,0,1,0,9044.36,0.0469927,0.0466846,-3.55205,5,0.00434655,10,-0.000165826,-2.44952,0.467738,0.126139,-17.4648,0.0466846,
2,0,0,1,0,9044.55,0.0394999,0.0391999,-3.40556,5,0.00369144,10,-0.000133498,-2.46781,0.373012,0.158172,-21.0232,0.0391999,
2,0,0,1,0,9044.74,0.0320125,0.0316921,-3.24878,5,0.00306508,10,-0.000102961,-2.48828,0.333731,0.176789,-22.3808,0.0316921,
2,0,0,1,0,9044.93,0.0245198,0.0241953,-3.08319,5,0.00246825,10,-7.45989e-05,-2.511,0.347048,0.170005,-20.5072,0.0241953,
2,0,0,1,0,9045.11,0.0170289,0.0167036,-2.95227,5,0.0018991,10,-4.93137e-05,-2.52984,0.46983,0.125577,-14.5195,0.01670363,
2,0,0,1,0,9045.3,0.0095397,0.00921646,-2.86534,5,0.00135172,10,-2.64083e-05,-2.54282,0.828637,0.0712012,-7.93566,0.00921646,
2,0,0,1,0,9045.49,0.00204518,0.00169674,-2.8541,5,0.000817582,10,-4.84267e-06,-2.54453,3.088,0.0191062,-2.10194,0.00169674,
2,0,0,1,0,9045.53,0.000177222,-0.000231796,-2.81475,5,0.000684484,10,6.52447e-07,-2.55056, , , ,-0.0002317957,

File: 20221101_1-115_003_TrumpetPlot_ParaChange_from10_every3_06_CV_C01_5.csv
mode,ox/red,error,control changes,counter inc.,time/s,control/V,Ewe/V,<I>/mA,cycle number,(Q-Qo)/C,I Range,P/W,log(|I|),Tafel slope mV/dec,alpha_eff,dI/d(E-IR),E-IR/V,
2,0,0,0,0,11000.7,2.44065e-05,-0.000382585,-1.41598,6,0.0000000E+000,10,5.41733e-07,-2.84894, , , ,-0.000382585,
2,1,0,1,0,11000.9,0.00729063,0.006957,1.40731,6,0.00013054,10,9.79066e-06,-2.85161,0.0424032,1.3914,74.5251,0.006957,
2,1,0,1,0,11001,0.014778,0.0144868,1.72768,6,0.000431195,10,2.50285e-05,-2.76254,0.127413,0.463062,31.0699,0.0144868,
2,1,0,1,0,11001.2,0.0222743,0.0219901,1.92385,6,0.000776789,10,4.23057e-05,-2.71583,0.174311,0.338475,25.4429,0.0219901,
2,1,0,1,0,11001.4,0.0297626,0.0294604,2.11132,6,0.00115707,10,6.22003e-05,-2.67545,0.21312,0.276839,22.7279,0.0294604,
2,1,0,1,0,11001.6,0.0372544,0.0369316,2.29332,6,0.00157211,10,8.46961e-05,-2.63953,0.215555,0.273712,24.4767,0.0369316,
2,1,0,1,0,11001.8,0.0447472,0.0444412,2.47235,6,0.00202185,10,0.000109874,-2.60689,0.230789,0.255645,24.7149,0.0444412,
2,1,0,1,0,11002,0.0522345,0.0519081,2.65508,6,0.00250507,10,0.00013782,-2.57592,0.253083,0.233126,24.0976,0.0519081,
2,1,0,1,0,11002.2,0.0597309,0.0594308,2.81661,6,0.00302126,10,0.000167393,-2.55027,0.281012,0.209956,23.1067,0.0594308,
2,1,0,1,0,11002.4,0.0672182,0.0669186,2.9748,6,0.00356689,10,0.000199069,-2.52654,0.322337,0.183039,21.2308,0.0669186,
2,1,0,1,0,11002.5,0.0747074,0.0743872,3.11836,6,0.00413999,10,0.000231966,-2.50607,0.428226,0.137778,16.7324,0.0743872,
2,1,0,1,0,11002.7,0.0822019,0.0818776,3.23281,6,0.00473851,10,0.000264695,-2.49042,0.441395,0.133667,16.9182,0.0818776,
2,1,0,1,0,11002.9,0.0896911,0.0893586,3.37274,6,0.00536,10,0.000301384,-2.47202,0.404306,0.145929,19.219,0.08935865,
2,1,0,1,0,11003.1,0.097182,0.0968301,3.55819,6,0.00601135,10,0.000344539,-2.44877,0.248895,0.237048,32.9445,0.0968301,
2,1,0,1,0,11003.3,0.104675,0.10436,3.84454,6,0.00670648,10,0.000401215,-2.41516,0.198386,0.297399,44.6359,0.10436,
2,1,0,1,0,11003.5,0.112162,0.111838,4.18029,6,0.00746026,10,0.000467514,-2.37879,0.228905,0.257749,41.9018,0.111838,
2,1,0,1,0,11003.7,0.119655,0.119344,4.4463,6,0.0082725,10,0.000530642,-2.352,0.388426,0.151895,26.3656,0.119344,
2,1,0,1,0,11003.8,0.127146,0.126804,4.64013,6,0.00912783,10,0.000588385,-2.33347,0.444457,0.132746,24.0637,0.126804,
2,1,0,1,0,11004,0.134635,0.134303,4.82213,6,0.0100172,10,0.000647625,-2.31676,0.614006,0.0960903,18.0583,0.134303,
2,1,0,1,0,11004.2,0.14213,0.141825,4.84296,6,0.0109306,10,0.000686853,-2.31489,-0.586341,-0.100624,-18.9717,0.141825,
2,1,0,1,0,11004.4,0.149619,0.14929,4.39822,6,0.0118082,10,0.00065661,-2.35672,-0.106885,-0.551996,-94.2863,0.14929,
2,1,0,1,0,11004.6,0.157106,0.156783,3.55131,6,0.012557,10,0.000556786,-2.44961,-0.0715065,-0.8251,-114.16,0.156783,
2,1,0,1,0,11004.8,0.164602,0.164314,2.8487,6,0.0131541,10,0.00046808,-2.54535,-0.0940425,-0.627376,-70.0551,0.164314,
2,1,0,1,0,11005,0.172091,0.171792,2.4429,6,0.0136492,10,0.000419671,-2.61209,-0.132773,-0.444367,-42.4321,0.171792,
2,1,0,1,0,11005.2,0.179582,0.179295,2.20319,6,0.0140862,10,0.000395021,-2.65695,-0.214858,-0.2746,-23.7157,0.179295,
2,1,0,1,0,11005.3,0.187074,0.186761,2.06044,6,0.0144882,10,0.00038481,-2.68604,-0.362119,-0.16293,-13.1313,0.186761,
2,1,0,1,0,11005.5,0.194563,0.194242,1.97864,6,0.0148686,10,0.000384334,-2.70363,-0.494402,-0.119336,-9.19194,0.194242,
2,1,0,1,0,11005.7,0.202059,0.201769,1.91521,6,0.0152355,10,0.000386429,-2.71778,-0.750159,-0.07865,-5.86629,0.2017688,
2,1,0,1,0,11005.9,0.209546,0.209242,1.87156,6,0.0155926,10,0.000391608,-2.7278,-0.661123,-0.089242,-6.52141,0.209242,
2,1,0,1,0,11006.1,0.217035,0.216721,1.83007,6,0.0159421,10,0.000396615,-2.73753,-0.910473,-0.0648015,-4.63278,0.216721,
2,1,0,1,0,11006.3,0.22453,0.224279,1.80176,6,0.0162861,10,0.000404097,-2.7443,-1.49498,-0.0394655,-2.78504,0.224279,
2,1,0,1,0,11006.5,0.232019,0.231708,1.78314,6,0.0166249,10,0.000413168,-2.74881,-2.46326,-0.023952,-1.66395,0.231708,
2,1,0,1,0,11006.7,0.23951,0.23923,1.76251,6,0.0169598,10,0.000421645,-2.75387,-1.17724,-0.050117,-3.44969,0.23923,
2,1,0,1,0,11006.8,0.247003,0.246682,1.73973,6,0.0172909,10,0.00042916,-2.75952,-1.2788,-0.0461371,-3.13493,0.246682,
2,1,0,1,0,11007,0.25449,0.254189,1.72588,6,0.0176182,10,0.000438699,-2.76299,-1.86535,-0.0316294,-2.11853,0.254189,
2,1,0,1,0,11007.2,0.261983,0.261666,1.69888,6,0.0179423,10,0.000444539,-2.76984,-1.49136,-0.0395611,-2.63569,0.261666,
2,1,0,1,0,11007.4,0.269474,0.269184,1.6858,6,0.0182629,10,0.000453792,-2.77319,-3.50622,-0.0168272,-1.10895,0.269184,
2,1,0,1,0,11007.6,0.276963,0.276633,1.66873,6,0.0185802,10,0.000461625,-2.77761,-12.1834,-0.00484266,-0.315044,0.276633,
2,1,0,1,0,11007.8,0.284458,0.284124,1.65166,6,0.0188945,10,0.000469277,-2.78208,-2.21526,-0.0266335,-1.72029,0.284124,
2,1,0,1,0,11008,0.291947,0.291647,1.63544,6,0.0192051,10,0.000476971,-2.78637,-1.13749,-0.0518687,-3.30418,0.291647,
2,1,0,1,0,11008.2,0.299434,0.299113,1.61331,6,0.0195124,10,0.000482561,-2.79228,-0.0115738,-5.09772,-260.421,0.299113,
2,0,0,1,0,11008.3,0.294196,0.293879,-0.44518,6,0.0195265,10,-0.000130829,-3.35146,-0.0202066,-2.91984,47.9787,0.293879,
2,0,0,1,0,11008.5,0.286701,0.286373,-0.650799,6,0.0194171,10,-0.000186371,-3.18655,-0.0755437,-0.781005,19.7336,0.286373,
2,0,0,1,0,11008.7,0.279212,0.278913,-0.770032,6,0.0192794,10,-0.000214772,-3.11349,-0.128113,-0.460532,13.9202,0.278913,
2,0,0,1,0,11008.9,0.271725,0.271415,-0.85612,6,0.0191226,10,-0.000232364,-3.06747,-0.140561,-0.419748,14.092,0.271415,
2,0,0,1,0,11009.1,0.264228,0.263873,-0.938806,6,0.0189505,10,-0.000247726,-3.02742,-0.226248,-0.260776,9.49189,0.263873,
2,0,0,1,0,11009.3,0.256741,0.256408,-0.993368,6,0.0187661,10,-0.000254707,-3.00289,-0.328323,-0.179701,6.99055,0.256408,
2,0,0,1,0,11009.4,0.249248,0.248957,-1.05386,6,0.0185707,10,-0.000262365,-2.97722,-0.445914,-0.132312,5.40805,0.248957,
2,0,0,1,0,11009.6,0.241756,0.24145,-1.09915,6,0.0183653,10,-0.000265391,-2.95894,-0.37801,-0.15608,6.736,0.24145,
2,0,0,1,0,11009.8,0.234268,0.233936,-1.14662,6,0.0181507,10,-0.000268237,-2.94058,-0.424722,-0.138914,6.26015,0.233936,
2,0,0,1,0,11010,0.226772,0.226449,-1.20126,6,0.0179269,10,-0.000272025,-2.92036,-0.34385,-0.171587,7.98667,0.226449,
2,0,0,1,0,11010.2,0.219284,0.21895,-1.24493,6,0.0176946,10,-0.000272578,-2.90485,-0.460835,-0.128028,6.22376,0.21895,
2,0,0,1,0,11010.4,0.211796,0.211473,-1.296,6,0.0174536,10,-0.000274069,-2.8874,-0.606236,-0.0973218,4.89886,0.211473,
2,0,0,1,0,11010.6,0.204301,0.203949,-1.34438,6,0.0172031,10,-0.000274185,-2.87148,-0.624536,-0.0944702,4.95438,0.203949,
2,0,0,1,0,11010.7,0.196812,0.196502,-1.38889,6,0.0169435,10,-0.00027292,-2.85733,-0.473719,-0.124547,6.81127,0.196502,
2,0,0,1,0,11010.9,0.189321,0.18901,-1.45385,6,0.0166732,10,-0.000274791,-2.83748,-0.394727,-0.14947,8.49551,0.1890098,
2,0,0,1,0,11011.1,0.181828,0.181538,-1.53353,6,0.0163904,10,-0.000278393,-2.81431,-0.331678,-0.177883,10.617,0.181538,
2,0,0,1,0,11011.3,0.174341,0.174039,-1.61736,6,0.0160923,10,-0.000281484,-2.79119,-0.235807,-0.250204,15.8727,0.1740392,
2,0,0,1,0,11011.5,0.166848,0.16651,-1.75412,6,0.0157736,10,-0.000292078,-2.75594,-0.194714,-0.303009,20.6747,0.16651,
2,0,0,1,0,11011.7,0.159357,0.159067,-1.93732,6,0.0154258,10,-0.000308163,-2.7128,-0.144394,-0.408605,30.932,0.159067,
2,0,0,1,0,11011.9,0.151868,0.151533,-2.23397,6,0.0150338,10,-0.000338521,-2.65092,-0.0998251,-0.591034,51.7509,0.151533,
2,0,0,1,0,11012.1,0.144373,0.144026,-2.71859,6,0.0145696,10,-0.000391547,-2.56566,-0.0779785,-0.756619,80.3003,0.144026,
2,0,0,1,0,11012.2,0.136884,0.13657,-3.39959,6,0.0139954,10,-0.000464282,-2.46857,-0.0787682,-0.749033,99.4313,0.13657,
2,0,0,1,0,11012.4,0.129393,0.129056,-4.11737,6,0.0132859,10,-0.000531369,-2.38538,-0.106925,-0.551786,88.5232,0.129056,
2,0,0,1,0,11012.6,0.1219,0.121602,-4.65927,6,0.0124564,10,-0.000566575,-2.33168,-0.206878,-0.285193,51.6352,0.121602,
2,0,0,1,0,11012.8,0.114413,0.1141,-4.91939,6,0.0115521,10,-0.000561304,-2.30809,-0.637483,-0.0925515,17.764,0.1141,
2,0,0,1,0,11013,0.10692,0.106645,-4.94615,6,0.0106209,10,-0.000527481,-2.30573,0.982128,0.0600737,-11.5781,0.106645,
2,0,0,1,0,11013.2,0.0994284,0.0991164,-4.78344,6,0.00970346,10,-0.000474117,-2.32026,0.362767,0.162639,-30.3028,0.09911637,
2,0,0,1,0,11013.4,0.0919401,0.0916268,-4.50439,6,0.00882968,10,-0.000412723,-2.34636,0.277037,0.212968,-37.4826,0.0916268,
2,0,0,1,0,11013.6,0.0844447,0.0841335,-4.24461,6,0.00800775,10,-0.000357114,-2.37216,0.330704,0.178407,-29.5178,0.0841335,
2,0,0,1,0,11013.7,0.0769565,0.0766221,-4.05356,6,0.0072291,10,-0.000310592,-2.39216,0.43828,0.134617,-21.313,0.0766221,
2,0,0,1,0,11013.9,0.0694682,0.069173,-3.91904,6,0.00647948,10,-0.000271091,-2.40682,0.61372,0.0961351,-14.7239,0.069173,
2,0,0,1,0,11014.1,0.0619728,0.0616681,-3.80646,6,0.00575155,10,-0.000234737,-2.41948,0.531352,0.111038,-16.5001,0.0616681,
2,0,0,1,0,11014.3,0.0544836,0.0541083,-3.68828,6,0.00504628,10,-0.000199566,-2.43318,0.660167,0.0893713,-12.8701,0.0541083,
2,0,0,1,0,11014.5,0.0469927,0.0466985,-3.56608,6,0.00436301,10,-0.000166531,-2.44781,0.477883,0.123461,-17.1607,0.0466985,
2,0,0,1,0,11014.7,0.0394999,0.0391856,-3.43477,6,0.00370457,10,-0.000134594,-2.4641,0.405307,0.145569,-19.4277,0.0391856,
2,0,0,1,0,11014.9,0.0320125,0.0317335,-3.27265,6,0.00307378,10,-0.000103853,-2.4851,0.333627,0.176844,-22.6099,0.0317335,
2,0,0,1,0,11015.1,0.0245198,0.0242439,-3.11321,6,0.0024719,10,-7.54763e-05,-2.50679,0.362094,0.162941,-19.8168,0.0242439,
2,0,0,1,0,11015.2,0.0170289,0.016722,-2.98007,6,0.00189769,10,-4.98328e-05,-2.52577,0.459579,0.128378,-14.9707,0.016722,
2,0,0,1,0,11015.4,0.0095397,0.00922635,-2.87822,6,0.00134606,10,-2.65555e-05,-2.54088,0.741205,0.0796001,-8.95308,0.00922635,
2,0,0,1,0,11015.6,0.00204518,0.00168737,-2.86854,6,0.00080866,10,-4.84028e-06,-2.54234,4.61174,0.0127934,-1.41136,0.001687366,
2,0,0,1,0,11015.7,0.000177222,-0.000205455,-2.82396,6,0.000674971,10,5.80196e-07,-2.54914, , , ,-0.000205455,