Folder: Figs_alphaMnO2_OER_Tafel_sleope/Figure_codes/Fig_3-5/rawdata_trumpetplot_data/after 10th (part 178)

File: 20221101_1-115_003_TrumpetPlot_ParaChange_from10_every3_12_CV_C01_7.csv
mode,ox/red,error,control changes,counter inc.,time/s,control/V,Ewe/V,<I>/mA,cycle number,(Q-Qo)/C,I Range,P/W,log(|I|),Tafel slope mV/dec,alpha_eff,dI/d(E-IR),E-IR/V,
2,1,0,1,0,14987.4,2.44065e-05,-0.000344411,18.5777,8,0.0000000E+000,10,-6.39836e-06,-1.73101, , , ,-0.000344411,
2,1,0,1,0,14987.5,0.0104008,0.0100667,22.3216,8,0.000355455,10,0.000224704,-1.65127,0.201343,0.293032,253.624,0.0100667,
2,1,0,1,0,14987.5,0.0212099,0.0208902,24.5752,8,0.000778751,10,0.000513381,-1.6095,0.322372,0.183019,174.953,0.0208902,
2,1,0,1,0,14987.5,0.0320052,0.0316618,26.2587,8,0.00123685,10,0.000831399,-1.58073,0.416324,0.141716,145.054,0.0316618,
2,1,0,1,0,14987.5,0.0428033,0.0424674,27.7568,8,0.00172323,10,0.00117876,-1.55663,0.473575,0.124584,134.887,0.0424674,
2,1,0,1,0,14987.5,0.0535986,0.0532496,29.2193,8,0.00223593,10,0.00155592,-1.53433,0.480776,0.122718,139.92,0.0532496,
2,1,0,1,0,14987.5,0.0644077,0.0640392,30.7481,8,0.00277577,10,0.00196909,-1.51218,0.479523,0.123039,147.715,0.06403923,
2,1,0,1,0,14987.6,0.075203,0.0748469,32.3831,8,0.00334409,10,0.00242378,-1.48968,0.471398,0.12516,158.255,0.0748469,
2,1,0,1,0,14987.6,0.0860011,0.0856111,34.1204,8,0.00394275,10,0.00292108,-1.46699,0.481556,0.122519,163.19,0.0856111,
2,1,0,1,0,14987.6,0.0968075,0.0964262,35.8663,8,0.00457311,10,0.00345845,-1.44531,0.502359,0.117446,164.526,0.0964262,
2,1,0,1,0,14987.6,0.107606,0.107224,37.7388,8,0.00523569,10,0.00404652,-1.42321,0.50175,0.117588,173.124,0.107224,
2,1,0,1,0,14987.6,0.118401,0.11807,39.6085,8,0.00593182,10,0.00467658,-1.40221,0.507223,0.11632,179.864,0.11807,
2,1,0,1,0,14987.6,0.129207,0.128864,41.6771,8,0.00666311,10,0.00537068,-1.3801,0.473527,0.124597,202.685,0.128864,
2,1,0,1,0,14987.7,0.140005,0.139657,44.0089,8,0.00743408,10,0.00614615,-1.35646,0.442919,0.133207,228.801,0.139657,
2,1,0,1,0,14987.7,0.150803,0.150452,46.5047,8,0.00824888,10,0.00699671,-1.3325,0.474606,0.124314,225.477,0.150452,
2,1,0,1,0,14987.7,0.161604,0.16125,48.8285,8,0.00910753,10,0.00787359,-1.31133,0.562957,0.104804,199.523,0.16125,
2,1,0,1,0,14987.7,0.172405,0.172118,50.712,8,0.0100046,10,0.00872845,-1.29489,0.830227,0.0710649,140.392,0.172118,
2,1,0,1,0,14987.7,0.183203,0.182848,51.6641,8,0.0109281,10,0.00944669,-1.28681,6.26868,0.00941187,18.9166,0.182848,
2,1,0,1,0,14987.8,0.194001,0.193667,50.8752,8,0.0118541,10,0.00985283,-1.29349,-0.661916,-0.0891352,-176.21,0.193667,
2,1,0,1,0,14987.8,0.204808,0.204489,47.8287,8,0.0127457,10,0.00978045,-1.32031,-0.29036,-0.203196,-377.669,0.204489,
2,1,0,1,0,14987.8,0.215603,0.215296,42.9656,8,0.0135643,10,0.00925031,-1.36688,-0.202645,-0.291149,-487.225,0.215296,
2,1,0,1,0,14987.8,0.226401,0.226105,37.5984,8,0.0142885,10,0.00850119,-1.42483,-0.182073,-0.324046,-475.854,0.226105,
2,1,0,1,0,14987.8,0.237207,0.236932,32.9527,8,0.0149213,10,0.00780755,-1.48211,-0.199357,-0.295951,-381.308,0.236932,
2,1,0,1,0,14987.8,0.248005,0.247693,29.43,8,0.0154805,10,0.0072896,-1.53121,-0.247754,-0.23814,-274.193,0.247693,
2,1,0,1,0,14987.9,0.258801,0.258499,26.9252,8,0.0159861,10,0.00696013,-1.56984,-0.320449,-0.184116,-193.878,0.2584987,
2,1,0,1,0,14987.9,0.26961,0.269285,25.1554,8,0.0164536,10,0.00677397,-1.59937,-0.418471,-0.14099,-138.594,0.269285,
2,1,0,1,0,14987.9,0.280405,0.280085,23.8499,8,0.016894,10,0.00668001,-1.62251,-0.535334,-0.110212,-102.75,0.280085,
2,1,0,1,0,14987.9,0.291203,0.290876,22.8837,8,0.0173143,10,0.00665631,-1.64047,-0.655078,-0.0900655,-80.5458,0.290876,
2,1,0,0,0,14987.9,0.300012,0.299613,22.226,8,0.0176458,10,0.00665918,-1.65314,0.00144817,40.741,29592.4,0.299613,
2,1,0,1,0,14987.9,0.290843,0.290591,7.07017,8,0.0178501,10,0.00205453,-2.15057,0.0139932,4.21633,1090.29,0.290591,
2,0,0,1,0,14988,0.280047,0.2798,-1.21372,8,0.0178936,10,-0.0003396,-2.91588,-0.0322741,-1.82809,554.761,0.2798,
2,0,0,1,0,14988,0.269244,0.268948,-5.7704,8,0.0178266,10,-0.00155194,-2.23879,-0.038735,-1.52317,324.458,0.268948,
2,0,0,1,0,14988,0.258443,0.258168,-8.5618,8,0.0176956,10,-0.00221038,-2.06744,-0.0935013,-0.631008,207.559,0.258168,
2,0,0,1,0,14988,0.247645,0.247353,-10.4396,8,0.0175234,10,-0.00258226,-1.98132,-0.160752,-0.367026,148.718,0.247353,
2,0,0,1,0,14988,0.236849,0.236565,-11.8256,8,0.0173223,10,-0.00279753,-1.92718,-0.237952,-0.247949,114.109,0.236565,
2,0,0,1,0,14988.1,0.22604,0.225718,-12.9411,8,0.017099,10,-0.00292103,-1.88803,-0.321144,-0.183718,92.5497,0.225718,
2,0,0,1,0,14988.1,0.215245,0.214983,-13.8722,8,0.0168574,10,-0.00298229,-1.85785,-0.378188,-0.156007,84.4036,0.214983,
2,0,0,1,0,14988.1,0.204447,0.204122,-14.7455,8,0.0165998,10,-0.00300988,-1.83134,-0.434756,-0.135708,78.0111,0.2041221,
2,0,0,1,0,14988.1,0.19364,0.193323,-15.5679,8,0.0163271,10,-0.00300963,-1.80777,-0.467777,-0.126128,76.5772,0.193323,
2,0,0,1,0,14988.1,0.182842,0.182539,-16.4106,8,0.0160393,10,-0.00299556,-1.78488,-0.456559,-0.129228,82.8169,0.182539,
2,0,0,1,0,14988.1,0.172047,0.171721,-17.3666,8,0.0157355,10,-0.00298222,-1.76028,-0.40901,-0.144251,97.9136,0.171721,
2,0,0,1,0,14988.2,0.161241,0.160964,-18.5563,8,0.0154125,10,-0.00298689,-1.73151,-0.341238,-0.1729,125.455,0.160964,
2,0,0,1,0,14988.2,0.150443,0.15013,-20.1622,8,0.0150647,10,-0.00302696,-1.69546,-0.265016,-0.222628,175.59,0.15013,
2,0,0,1,0,14988.2,0.139645,0.139367,-22.4634,8,0.0146821,10,-0.00313067,-1.64852,-0.205337,-0.287333,252.731,0.139367,
2,0,0,1,0,14988.2,0.128849,0.128559,-25.7081,8,0.0142499,10,-0.003305,-1.58993,-0.170231,-0.346588,348.438,0.128559,
2,0,0,1,0,14988.2,0.118043,0.117768,-29.8538,8,0.0137504,10,-0.00351582,-1.525,-0.168577,-0.349988,407.546,0.117768,
2,0,0,1,0,14988.3,0.107245,0.107002,-34.3357,8,0.0131722,10,-0.00367398,-1.46425,-0.191855,-0.307523,410.984,0.1070016,
2,0,0,1,0,14988.3,0.0964468,0.0961961,-38.5693,8,0.0125154,10,-0.00371022,-1.41376,-0.235989,-0.250012,375.511,0.0961961,
2,0,0,1,0,14988.3,0.0856404,0.0854234,-42.2576,8,0.0117864,10,-0.00360978,-1.3741,-0.317669,-0.185728,305.639,0.08542338,
2,0,0,1,0,14988.3,0.0748451,0.0745903,-45.1488,8,0.0109981,10,-0.00336766,-1.34535,-0.452111,-0.130499,229.477,0.0745903,
2,0,0,1,0,14988.3,0.0640471,0.0637635,-47.1113,8,0.0101658,10,-0.00300398,-1.32687,-0.831516,-0.0709548,130.167,0.0637635,
2,0,0,1,0,14988.3,0.0532407,0.0529145,-47.9802,8,0.00930842,10,-0.00253885,-1.31894,-3.19431,-0.0184704,34.5268,0.0529145,
2,0,0,1,0,14988.4,0.0424426,0.0421312,-47.9761,8,0.00844377,10,-0.00202129,-1.31898,3.89456,0.0151493,-28.3356,0.0421312,
2,0,0,1,0,14988.4,0.0316473,0.0313002,-47.4822,8,0.00758428,10,-0.0014862,-1.32347,1.84876,0.0319133,-59.1122,0.0313002,
2,0,0,1,0,14988.4,0.0208437,0.0205127,-46.7632,8,0.00673606,10,-0.00095924,-1.3301,1.43762,0.0410401,-74.8587,0.0205127,
2,0,0,1,0,14988.4,0.0100429,0.00971673,-45.8915,8,0.00590211,10,-0.000445915,-1.33827,1.16763,0.0505297,-90.426,0.00971673,
2,0,0,1,0,14988.4,-0.000755207,-0.00112699,-44.8484,8,0.00508541,10,5.05437e-05,-1.34825,0.950089,0.0620994,-108.526,-0.00112699,
2,0,0,1,0,14988.5,-0.0115505,-0.0119156,-43.4204,8,0.00429075,10,0.000517379,-1.36231,0.675942,0.0872856,-147.792,-0.0119156,
2,0,0,1,0,14988.5,-0.0223597,-0.0227126,-41.7016,8,0.00352447,10,0.000947154,-1.37985,0.577343,0.102192,-166.282,-0.0227126,
2,0,0,1,0,14988.5,-0.033155,-0.0335404,-39.9403,8,0.00278997,10,0.00133962,-1.39859,0.616134,0.0957584,-149.406,-0.03354045,
2,0,0,1,0,14988.5,-0.043953,-0.0443354,-38.4545,8,0.00208506,10,0.0017049,-1.41505,0.742822,0.0794268,-119.377,-0.0443354,
2,0,0,1,0,14988.5,-0.0547594,-0.0551272,-37.4245,8,0.00140297,10,0.0020631,-1.42684,1.13741,0.0518722,-75.842,-0.0551272,
2,0,0,1,0,14988.5,-0.0655575,-0.0659073,-36.8427,8,0.000735277,10,0.0024282,-1.43365,2.53241,0.023298,-33.5347,-0.0659073,
2,0,0,1,0,14988.6,-0.0763528,-0.0767393,-36.6768,8,7.42445e-05,10,0.00281455,-1.43561,244.43,0.000241378,-0.345752,-0.0767393,
2,0,0,1,0,14988.6,-0.0871592,-0.0875141,-36.8479,8,-0.00058681,10,0.00322471,-1.43359,-3.06425,-0.0192543,27.6918,-0.0875141,
2,0,0,1,0,14988.6,-0.0979573,-0.0983186,-37.2798,8,-0.00125345,10,0.0036653,-1.42853,-2.03337,-0.0290159,42.1063,-0.0983186,
2,0,0,1,1,14988.6,-0.0955546,-0.0960398,-27.1113,8,-0.00162172,10,0.00260377,-1.56685,-0.0322253,-1.83086,1950.52,-0.0960398,
2,0,0,1,1,14988.6,-0.0847538,-0.0852067,-11.7019,8,-0.00195852,10,0.000997079,-1.93174,-0.0227457,-2.59389,1145.47,-0.0852067,
2,0,0,1,1,14988.6,-0.0739557,-0.0743492,-1.40015,8,-0.0020704,10,0.0001041,-2.85383,-0.0241942,-2.4386,806.514,-0.07434915,
2,1,0,1,1,14988.7,-0.0631604,-0.0635934,6.10372,8,-0.00202399,10,-0.000388157,-2.21441,0.0206029,2.86367,607.733,-0.0635934,
2,1,0,1,1,14988.7,-0.0523512,-0.0528282,11.8408,8,-0.00185963,10,-0.000625526,-1.92662,0.0572752,1.03011,465.098,-0.0528282,
2,1,0,1,1,14988.7,-0.0415559,-0.0419972,16.2448,8,-0.00160462,10,-0.000682237,-1.78929,0.104998,0.561918,352.863,-0.0419972,
2,1,0,1,1,14988.7,-0.0307579,-0.0311429,19.5687,8,-0.00128047,10,-0.000609426,-1.70844,0.168385,0.350388,266.267,-0.0311429,
2,1,0,1,1,14988.7,-0.0199515,-0.0203299,22.0841,8,-0.000904233,10,-0.000448967,-1.65592,0.252366,0.233788,200.702,-0.0203299,
2,1,0,1,1,14988.8,-0.0091534,-0.00954344,23.9564,8,-0.000488954,10,-0.000228626,-1.62058,0.372336,0.158459,147.697,-0.00954344,
2,1,0,0,1,14988.8,-7.54729e-05,-0.000497109,25.0512,8,-0.000118017,10,-1.24532e-05,-1.60117, , , ,-0.000497109,

File: 20221101_1-115_003_TrumpetPlot_ParaChange_from10_every3_12_CV_C01_8.csv
mode,ox/red,error,control changes,counter inc.,time/s,control/V,Ewe/V,<I>/mA,cycle number,(Q-Qo)/C,I Range,P/W,log(|I|),Tafel slope mV/dec,alpha_eff,dI/d(E-IR),E-IR/V,
2,1,0,1,0,16957.6,2.44065e-05,-0.000306236,19.0204,9,0.0000000E+000,10,-5.82472e-06,-1.72078, , , ,-0.000306236,
2,1,0,1,0,16957.6,0.0104008,0.0100804,22.8418,9,0.000364056,10,0.000230256,-1.64127,0.202512,0.291341,258.162,0.0100804,
2,1,0,1,0,16957.6,0.0212099,0.020887,25.1209,9,0.000797169,10,0.000524701,-1.59996,0.321136,0.183723,179.7,0.020887,
2,1,0,1,0,16957.6,0.0320052,0.0316576,26.8402,9,0.00126559,10,0.000849695,-1.57121,0.422251,0.139727,146.245,0.0316576,
2,1,0,1,0,16957.6,0.0428033,0.0424642,28.3474,9,0.00176265,10,0.00120375,-1.54749,0.483683,0.121981,134.97,0.0424642,
2,1,0,1,0,16957.7,0.0535986,0.053275,29.821,9,0.00228633,10,0.00158872,-1.52548,0.49392,0.119453,139.072,0.053275,
2,1,0,1,0,16957.7,0.0644077,0.0640435,31.3809,9,0.00283729,10,0.00200974,-1.50334,0.493044,0.119665,146.558,0.06404347,
2,1,0,1,0,16957.7,0.075203,0.0748617,33.0359,9,0.003417,10,0.00247313,-1.48101,0.473302,0.124656,160.749,0.0748617,
2,1,0,1,0,16957.7,0.0860011,0.0856376,34.7944,9,0.0040274,10,0.00297971,-1.45849,0.494518,0.119308,161.932,0.0856376,
2,1,0,1,0,16957.7,0.0968075,0.0963763,36.5396,9,0.0046695,10,0.00352155,-1.43724,0.495405,0.119094,169.982,0.09637633,
2,1,0,1,0,16957.7,0.107606,0.107241,38.45,9,0.00534472,10,0.00412342,-1.4151,0.5043,0.116994,175.465,0.107241,
2,1,0,1,0,16957.8,0.118401,0.118069,40.3275,9,0.00605361,10,0.00476143,-1.3944,0.508247,0.116085,182.794,0.118069,
2,1,0,1,0,16957.8,0.129207,0.12889,42.4128,9,0.00679813,10,0.0054666,-1.3725,0.472106,0.124972,206.993,0.1288905,
2,1,0,1,0,16957.8,0.140005,0.139708,44.7867,9,0.00758291,10,0.00625704,-1.34885,0.448585,0.131525,229.945,0.1397077,
2,1,0,1,0,16957.8,0.150803,0.150444,47.2643,9,0.00841177,10,0.00711065,-1.32547,0.487364,0.121059,223.232,0.150444,
2,1,0,1,0,16957.8,0.161604,0.161267,49.5603,9,0.009284,10,0.00799244,-1.30487,0.586715,0.10056,194.311,0.161267,
2,1,0,1,0,16957.9,0.172405,0.172049,51.3829,9,0.0101937,10,0.00884038,-1.28918,0.888355,0.0664149,132.938,0.172049,
2,1,0,1,0,16957.9,0.183203,0.182892,52.2756,9,0.0111286,10,0.00956077,-1.2817,9.68427,0.00609235,12.3861,0.182892,
2,1,0,1,0,16957.9,0.194001,0.193643,51.4258,9,0.0120648,10,0.00995826,-1.28882,-0.651935,-0.0904999,-180.782,0.193643,
2,1,0,1,0,16957.9,0.204808,0.204468,48.3474,9,0.0129658,10,0.00988548,-1.31563,-0.291875,-0.202141,-379.775,0.2044678,
2,1,0,1,0,16957.9,0.215603,0.215316,43.4996,9,0.0137937,10,0.00936615,-1.36151,-0.205632,-0.28692,-486.103,0.215316,
2,1,0,1,0,16957.9,0.226401,0.226093,38.1397,9,0.0145277,10,0.00862311,-1.41862,-0.186221,-0.316828,-472.028,0.226093,
2,1,0,1,0,16958,0.237207,0.236927,33.4589,9,0.0151702,10,0.00792731,-1.47549,-0.201456,-0.292867,-383.397,0.236927,
2,1,0,1,0,16958,0.248005,0.247738,29.8833,9,0.0157383,10,0.00740321,-1.52457,-0.244374,-0.241434,-282.356,0.247738,
2,1,0,1,0,16958,0.258801,0.258499,27.2949,9,0.0162514,10,0.0070557,-1.56392,-0.310829,-0.189815,-202.713,0.2584987,
2,1,0,1,0,16958,0.26961,0.269312,25.4573,9,0.016725,10,0.00685595,-1.59419,-0.402077,-0.146738,-146.016,0.269312,
2,1,0,1,0,16958,0.280405,0.280107,24.1077,9,0.0171704,10,0.00675271,-1.61784,-0.512423,-0.115139,-108.455,0.2801066,
2,1,0,1,0,16958.1,0.291203,0.290906,23.1059,9,0.0175948,10,0.00672163,-1.63628,-0.635465,-0.0928455,-83.7894,0.290906,
2,1,0,0,0,16958.1,0.300012,0.299766,22.4308,9,0.0179293,10,0.00672397,-1.64916,0.0017093,34.5171,25231,0.299766,
2,1,0,1,0,16958.1,0.290843,0.290582,7.0502,9,0.0181342,10,0.00204867,-2.1518,0.0137667,4.28571,1102.59,0.290582,
2,0,0,1,0,16958.1,0.280047,0.279767,-1.33429,9,0.0181767,10,-0.000373289,-2.87475,-0.0293316,-2.01148,562.308,0.279767,
2,0,0,1,0,16958.1,0.269244,0.268991,-5.98661,9,0.0181068,10,-0.00161035,-2.22282,-0.0390545,-1.51071,333.447,0.268991,
2,0,0,1,0,16958.1,0.258443,0.258154,-8.84204,9,0.0179714,10,-0.00228261,-2.05345,-0.0932896,-0.632439,214.718,0.258154,
2,0,0,1,0,16958.2,0.247645,0.247326,-10.7735,9,0.0177936,10,-0.00266456,-1.96764,-0.15961,-0.369651,154.611,0.247326,
2,0,0,1,0,16958.2,0.236849,0.236561,-12.188,9,0.0175861,10,-0.00288321,-1.91407,-0.239154,-0.246703,117.124,0.236561,
2,0,0,1,0,16958.2,0.22604,0.225763,-13.3295,9,0.0173559,10,-0.00300931,-1.87519,-0.323592,-0.182328,94.7124,0.225763,
2,0,0,1,0,16958.2,0.215245,0.214896,-14.2785,9,0.0171071,10,-0.0030684,-1.84532,-0.386499,-0.152652,85.0408,0.214896,
2,0,0,1,0,16958.2,0.204447,0.204113,-15.1572,9,0.016842,10,-0.00309378,-1.81938,-0.446731,-0.132071,78.0755,0.204113,
2,0,0,1,0,16958.2,0.19364,0.193273,-15.9904,9,0.0165617,10,-0.00309052,-1.79614,-0.491654,-0.120003,74.8409,0.1932731,
2,0,0,1,0,16958.3,0.182842,0.182547,-16.8341,9,0.0162664,10,-0.00307302,-1.77381,-0.471676,-0.125086,82.1919,0.182547,
2,0,0,1,0,16958.3,0.172047,0.17178,-17.7962,9,0.0159549,10,-0.00305703,-1.74967,-0.41785,-0.141199,98.1701,0.17178,
2,0,0,1,0,16958.3,0.161241,0.160946,-18.9997,9,0.0156242,10,-0.00305792,-1.72125,-0.348656,-0.169221,125.601,0.160946,
2,0,0,1,0,16958.3,0.150443,0.150121,-20.6012,9,0.0152685,10,-0.00309267,-1.68611,-0.266848,-0.221099,178.205,0.150121,
2,0,0,1,0,16958.3,0.139645,0.139362,-22.913,9,0.0148779,10,-0.0031932,-1.63992,-0.206196,-0.286135,256.758,0.139362,
2,0,0,1,0,16958.4,0.128849,0.128548,-26.1778,9,0.0144373,10,-0.0033651,-1.58207,-0.171948,-0.343128,351.541,0.128548,
2,0,0,1,0,16958.4,0.118043,0.117771,-30.3815,9,0.0139286,10,-0.00357806,-1.51739,-0.170326,-0.346395,410.66,0.117771,
2,0,0,1,0,16958.4,0.107245,0.106975,-34.9018,9,0.0133404,10,-0.00373363,-1.45715,-0.194881,-0.302749,411.504,0.106975,
2,0,0,1,0,16958.4,0.0964468,0.0961696,-39.1776,9,0.0126729,10,-0.00376769,-1.40696,-0.238544,-0.247334,377.389,0.0961696,
2,0,0,1,0,16958.4,0.0856404,0.0854011,-42.8847,9,0.0119328,10,-0.0036624,-1.3677,-0.322733,-0.182813,305.229,0.08540111,
2,0,0,1,0,16958.4,0.0748451,0.0745871,-45.796,9,0.0111333,10,-0.00341579,-1.33917,-0.461548,-0.127831,227.895,0.0745871,
2,0,0,1,0,16958.5,0.0640471,0.0637709,-47.7348,9,0.0102897,10,-0.00304409,-1.32116,-0.856408,-0.0688924,128.025,0.0637709,
2,0,0,1,0,16958.5,0.0532407,0.0529209,-48.5929,9,0.00942132,10,-0.00257158,-1.31343,-3.2605,-0.0180954,34.2411,0.05292087,
2,0,0,1,0,16958.5,0.0424426,0.042128,-48.5799,9,0.00854589,10,-0.00204657,-1.31354,4.30189,0.0137149,-25.9755,0.042128,
2,0,0,1,0,16958.5,0.0316473,0.031313,-48.0966,9,0.00767535,10,-0.00150605,-1.31789,1.97757,0.0298346,-55.98,0.031313,
2,0,0,1,0,16958.5,0.0208437,0.0205477,-47.3841,9,0.00681586,10,-0.000973634,-1.32437,1.48131,0.0398296,-73.6388,0.0205477,
2,0,0,1,0,16958.5,0.0100429,0.00971567,-46.5055,9,0.00597057,10,-0.000451832,-1.3325,1.17761,0.0501017,-90.9178,0.00971567,
2,0,0,1,0,16958.6,-0.000755207,-0.00111321,-45.4618,9,0.00514257,10,5.06083e-05,-1.34235,0.946534,0.0623327,-110.461,-0.00111321,
2,0,0,1,0,16958.6,-0.0115505,-0.0118763,-44.0154,9,0.00433682,10,0.000522741,-1.3564,0.681098,0.0866248,-148.735,-0.0118763,
2,0,0,1,0,16958.6,-0.0223597,-0.0226501,-42.2909,9,0.00355982,10,0.000957892,-1.37375,0.57707,0.102241,-168.702,-0.02265007,
2,0,0,1,0,16958.6,-0.033155,-0.0335002,-40.531,9,0.00281481,10,0.0013578,-1.39221,0.614636,0.0959918,-151.917,-0.0335002,
2,0,0,1,0,16958.6,-0.043953,-0.0443025,-39.0353,9,0.00209956,10,0.00172936,-1.40854,0.759995,0.0776321,-118.371,-0.0443025,
2,0,0,1,0,16958.7,-0.0547594,-0.0550784,-37.9859,9,0.00140729,10,0.0020922,-1.42038,1.13115,0.0521591,-77.39,-0.0550784,
2,0,0,1,0,16958.7,-0.0655575,-0.065955,-37.3921,9,0.000729653,10,0.0024662,-1.42722,2.63338,0.0224047,-32.7243,-0.065955,
2,0,0,1,0,16958.7,-0.0763528,-0.0767319,-37.2086,9,5.88371e-05,10,0.00285509,-1.42936,-93.1042,-0.000633698,0.921085,-0.07673189,
2,0,0,1,0,16958.7,-0.0871592,-0.0875279,-37.3594,9,-0.00061179,10,0.00326999,-1.4276,-3.20856,-0.0183883,26.8292,-0.0875279,
2,0,0,1,0,16958.7,-0.0979573,-0.0982825,-37.7858,9,-0.0012878,10,0.00371369,-1.42267,-2.26405,-0.0260594,38.3426,-0.0982825,
2,0,0,1,1,16958.7,-0.0955546,-0.0959814,-27.3709,9,-0.00166051,10,0.0026271,-1.56271,-0.0321604,-1.83455,1975.04,-0.0959814,
2,0,0,1,1,16958.8,-0.0847538,-0.0851823,-11.7975,9,-0.00199995,10,0.00100494,-1.92821,-0.0227658,-2.59161,1152.32,-0.0851823,
2,0,0,1,1,16958.8,-0.0739557,-0.0743735,-1.427,9,-0.00211272,10,0.000106131,-2.84557,-0.0238641,-2.47233,818.203,-0.0743735,
2,1,0,1,1,16958.8,-0.0631604,-0.0635934,6.15609,9,-0.00206603,10,-0.000391487,-2.2107,0.0207825,2.83893,607.338,-0.0635934,
2,1,0,1,1,16958.8,-0.0523512,-0.0528685,11.9791,9,-0.00190013,10,-0.000633319,-1.92157,0.0573039,1.0296,469.474,-0.0528685,
2,1,0,1,1,16958.8,-0.0415559,-0.0419898,16.4587,9,-0.00164224,10,-0.000691099,-1.7836,0.103988,0.567372,360.453,-0.0419898,
2,1,0,1,1,16958.8,-0.0307579,-0.0311291,19.8564,9,-0.00131376,10,-0.00061811,-1.7021,0.166762,0.353798,272.612,-0.0311291,
2,1,0,1,1,16958.9,-0.0199515,-0.0203299,22.4542,9,-0.000931768,10,-0.000456491,-1.6487,0.248983,0.236964,206.775,-0.0203299,
2,1,0,1,1,16958.9,-0.0091534,-0.00953602,24.3876,9,-0.00050935,10,-0.00023256,-1.61283,0.361575,0.163175,154.857,-0.00953602,
2,1,0,0,1,16958.9,-7.54729e-05,-0.000382585,25.5327,9,-0.000131448,10,-9.76844e-06,-1.5929, , , ,-0.000382585,