Folder: Figs_alphaMnO2_OER_Tafel_sleope/Figure_codes/Fig_3-5/rawdata_trumpetplot_data/after 10th (part 112)

File: 20221101_1-115_003_TrumpetPlot_ParaChange_from10_every3_08_CV_C01_15.csv
mode,ox/red,error,control changes,counter inc.,time/s,control/V,Ewe/V,<I>/mA,cycle number,(Q-Qo)/C,I Range,P/W,log(|I|),Tafel slope mV/dec,alpha_eff,dI/d(E-IR),E-IR/V,
2,0,0,0,0,30727,2.44065e-05,-0.000306236,-4.0358,16,0.0000000E+000,10,1.23591e-06,-2.39407, , , ,-0.000306236,
2,1,0,1,0,30727.1,0.0072942,0.00697762,0.862252,16,-7.87407e-05,10,6.01647e-06,-3.06437,0.00440836,13.3837,304.672,0.006977621,
2,1,0,1,0,30727.2,0.0147816,0.0144442,2.24267,16,7.78316e-05,10,3.23936e-05,-2.64923,0.0440089,1.34064,115.961,0.01444417,
2,1,0,1,0,30727.3,0.0222707,0.0219366,2.90484,16,0.000322422,10,6.37224e-05,-2.53688,0.0963713,0.612216,69.021,0.0219366,
2,1,0,1,0,30727.3,0.0297581,0.0294206,3.33277,16,0.000616113,10,9.8052e-05,-2.47719,0.145719,0.40489,52.6436,0.0294206,
2,1,0,1,0,30727.4,0.0372544,0.0369117,3.7042,16,0.000947442,10,0.000136729,-2.43131,0.186903,0.315672,45.6412,0.03691173,
2,1,0,1,0,30727.5,0.0447507,0.0444167,4.05293,16,0.00131215,10,0.000180018,-2.39223,0.203089,0.290512,45.9284,0.0444167,
2,1,0,1,0,30727.6,0.0522381,0.0519245,4.37502,16,0.00170784,10,0.00022717,-2.35902,0.219706,0.268541,45.8629,0.0519245,
2,1,0,1,0,30727.7,0.0597273,0.0594084,4.68473,16,0.00213337,10,0.000278313,-2.32931,0.278389,0.211934,38.7693,0.05940843,
2,1,0,1,0,30727.8,0.0672147,0.0669022,4.98549,16,0.0025869,10,0.00033354,-2.30229,0.30634,0.192597,37.3799,0.06690225,
2,1,0,1,0,30727.9,0.0747038,0.0743937,5.24187,16,0.00306642,10,0.000389962,-2.28051,0.353612,0.16685,34.1295,0.07439369,
2,1,0,1,0,30728,0.0822055,0.0818824,5.46443,16,0.00357015,10,0.000447441,-2.26246,0.468931,0.125818,26.8667,0.0818824,
2,1,0,1,0,30728.1,0.0896946,0.0893646,5.6799,16,0.00409302,10,0.000507582,-2.24566,0.488245,0.120841,26.7691,0.0893646,
2,1,0,1,0,30728.2,0.097182,0.0968724,5.90705,16,0.00463584,10,0.00057223,-2.22863,0.35119,0.168,38.7588,0.0968724,
2,1,0,1,0,30728.3,0.104671,0.104353,6.22871,16,0.00520432,10,0.000649986,-2.2056,0.288237,0.204693,49.8072,0.104353,
2,1,0,1,0,30728.4,0.112159,0.1118,6.68281,16,0.0058086,10,0.000747139,-2.17504,0.244627,0.241184,62.8168,0.1118,
2,1,0,1,0,30728.5,0.119655,0.119338,7.15618,16,0.00645782,10,0.000854004,-2.14532,0.267867,0.220259,61.4947,0.119338,
2,1,0,1,0,30728.6,0.127149,0.126829,7.54909,16,0.00714913,10,0.000957444,-2.12211,0.368526,0.160097,47.1781,0.126829,
2,1,0,1,0,30728.7,0.134639,0.134294,7.85573,16,0.00787231,10,0.00105498,-2.10481,0.558312,0.105676,32.3734,0.134294,
2,1,0,1,0,30728.8,0.142126,0.141837,8.04444,16,0.0086183,10,0.001141,-2.0945,1.12053,0.0526537,16.5122,0.141837,
2,1,0,1,0,30728.8,0.149615,0.149293,7.95887,16,0.00937174,10,0.0011882,-2.09915,-0.404457,-0.145875,-45.1868,0.149293,
2,1,0,1,0,30728.9,0.157103,0.156777,7.29362,16,0.0100916,10,0.00114347,-2.13706,-0.126971,-0.464674,-131.796,0.156777,
2,1,0,1,0,30729,0.164606,0.164277,6.14856,16,0.0107244,10,0.00101007,-2.21123,-0.09111,-0.647569,-155.328,0.1642769,
2,1,0,1,0,30729.1,0.172095,0.171806,5.10146,16,0.0112494,10,0.000876462,-2.29231,-0.102003,-0.578416,-115.534,0.171806,
2,1,0,1,0,30729.2,0.179582,0.179286,4.41971,16,0.0116936,10,0.000792394,-2.35461,-0.138746,-0.425237,-73.4495,0.179286,
2,1,0,1,0,30729.3,0.18707,0.186727,3.9953,16,0.0120868,10,0.00074603,-2.39845,-0.215361,-0.273958,-42.7429,0.186727,
2,1,0,1,0,30729.4,0.194559,0.194282,3.72873,16,0.0124482,10,0.000724425,-2.42844,-0.314736,-0.187459,-27.2738,0.194282,
2,1,0,1,0,30729.5,0.202062,0.201718,3.54814,16,0.0127901,10,0.000715722,-2.45,-0.38316,-0.153983,-21.3294,0.2017177,
2,1,0,1,0,30729.6,0.20955,0.209253,3.43971,16,0.0131176,10,0.000719771,-2.46348,-0.55409,-0.106481,-14.2664,0.2092531,
2,1,0,1,0,30729.7,0.217039,0.216753,3.33283,16,0.0134356,10,0.000722402,-2.47719,-0.749641,-0.0787044,-10.2808,0.216753,
2,1,0,1,0,30729.8,0.224526,0.224239,3.2761,16,0.0137465,10,0.000734629,-2.48464,-0.779933,-0.0756475,-9.69016,0.224239,
2,1,0,1,0,30729.9,0.232016,0.231714,3.23215,16,0.014052,10,0.000748935,-2.49051,-1.44602,-0.0408016,-5.14121,0.231714,
2,1,0,1,0,30730,0.23951,0.239153,3.18013,16,0.0143536,10,0.000760538,-2.49755,-2.94082,-0.0200624,-2.49534,0.239153,
2,1,0,1,0,30730.1,0.247006,0.246642,3.1521,16,0.0146516,10,0.00077744,-2.5014,-1.03499,-0.0570054,-7.01091,0.246642,
2,1,0,1,0,30730.2,0.254494,0.254203,3.12609,16,0.0149461,10,0.000794662,-2.505,-1.46298,-0.0403288,-4.91432,0.254203,
2,1,0,1,0,30730.2,0.261983,0.261679,3.09305,16,0.0152379,10,0.000809387,-2.50961,-3.92748,-0.0150224,-1.81464,0.261679,
2,1,0,1,0,30730.3,0.26947,0.269139,3.06484,16,0.0155272,10,0.000824865,-2.51359,-1.89314,-0.0311651,-3.72769,0.269139,
2,1,0,1,0,30730.4,0.276959,0.276639,3.0431,16,0.015814,10,0.000841843,-2.51668,-1.38558,-0.0425813,-5.05226,0.276639,
2,1,0,1,0,30730.5,0.284461,0.284168,3.01577,16,0.0160989,10,0.000856987,-2.5206,-4.56301,-0.0129301,-1.52013,0.284168,
2,1,0,1,0,30730.6,0.29195,0.291647,2.98117,16,0.0163807,10,0.00086945,-2.52561,-1.16586,-0.0506065,-5.89611,0.291647,
2,1,0,1,0,30730.7,0.299438,0.299147,2.96036,16,0.01666,10,0.000885582,-2.52866,-0.0300304,-1.96468,-208.915,0.299147,
2,0,0,1,0,30730.8,0.29424,0.293923,-0.326923,16,0.0167324,10,-9.60904e-05,-3.48555,-0.00695227,-8.48644,200.697,0.293923,
2,0,0,1,0,30730.9,0.286753,0.286451,-1.07495,16,0.0166584,10,-0.00030792,-2.96861,-0.0451387,-1.30708,54.1652,0.286451,
2,0,0,1,0,30731,0.279264,0.278963,-1.38106,16,0.0165408,10,-0.000385265,-2.85979,-0.104911,-0.562382,30.2504,0.278963,
2,0,0,1,0,30731.1,0.271776,0.271504,-1.57325,16,0.0164009,10,-0.000427144,-2.8032,-0.145866,-0.404481,24.8436,0.271504,
2,0,0,1,0,30731.2,0.26428,0.263961,-1.72459,16,0.016245,10,-0.000455226,-2.76331,-0.263053,-0.22429,15.0825,0.263961,
2,0,0,1,0,30731.3,0.256786,0.256494,-1.84898,16,0.0160766,10,-0.000474252,-2.73307,-0.282505,-0.208846,15.0198,0.256494,
2,0,0,1,0,30731.4,0.249296,0.248997,-1.94737,16,0.0158979,10,-0.000484891,-2.71055,-0.341458,-0.172788,13.1461,0.248997,
2,0,0,1,0,30731.5,0.241809,0.241482,-2.04161,16,0.0157099,10,-0.000493012,-2.69003,-0.476414,-0.123842,9.87487,0.241482,
2,0,0,1,0,30731.5,0.23432,0.233948,-2.13664,16,0.0155134,10,-0.000499863,-2.67027,-0.393969,-0.149758,12.4747,0.233948,
2,0,0,1,0,30731.6,0.226833,0.226507,-2.21402,16,0.0153089,10,-0.000501493,-2.65482,-0.357909,-0.164847,14.25,0.226507,
2,0,0,1,0,30731.7,0.219329,0.218973,-2.2935,16,0.0150964,10,-0.000502214,-2.6395,-0.591878,-0.0996827,8.92676,0.218973,
2,0,0,1,0,30731.8,0.21184,0.211515,-2.37403,16,0.0148769,10,-0.000502141,-2.62451,-0.581548,-0.101453,9.39875,0.211515,
2,0,0,1,0,30731.9,0.204353,0.203986,-2.45651,16,0.0146499,10,-0.000501094,-2.60968,-0.523154,-0.112778,10.8039,0.203986,
2,0,0,1,0,30732,0.196863,0.196517,-2.53207,16,0.0144154,10,-0.000497596,-2.59652,-0.616092,-0.095765,9.48627,0.196517,
2,0,0,1,0,30732.1,0.189376,0.189043,-2.6261,16,0.0141729,10,-0.000496447,-2.58069,-0.555926,-0.106129,10.8922,0.189043,
2,0,0,1,0,30732.2,0.18188,0.181542,-2.72786,16,0.0139212,10,-0.000495219,-2.56418,-0.353806,-0.166758,17.7485,0.181542,
2,0,0,1,0,30732.3,0.174385,0.17404,-2.83884,16,0.0136594,10,-0.000494073,-2.54686,-0.381052,-0.154835,17.1953,0.17404,
2,0,0,1,0,30732.4,0.166896,0.166559,-2.99904,16,0.0133854,10,-0.000499516,-2.52302,-0.334879,-0.176183,20.6145,0.166559,
2,0,0,1,0,30732.5,0.159409,0.159097,-3.2046,16,0.0130949,10,-0.000509841,-2.49423,-0.215536,-0.273736,34.2307,0.159097,
2,0,0,1,0,30732.6,0.151919,0.151582,-3.49628,16,0.0127812,10,-0.000529974,-2.45639,-0.158212,-0.372917,51.0702,0.151582,
2,0,0,1,0,30732.7,0.144425,0.144071,-3.97991,16,0.0124313,10,-0.000573391,-2.40013,-0.116605,-0.505983,78.7387,0.144071,
2,0,0,1,0,30732.8,0.136929,0.136605,-4.7141,16,0.0120253,10,-0.000643968,-2.3266,-0.0949404,-0.621443,114.292,0.136605,
2,0,0,1,0,30732.9,0.129441,0.129135,-5.61783,16,0.0115416,10,-0.000725457,-2.25043,-0.0994307,-0.593378,130.023,0.129135,
2,0,0,1,0,30732.9,0.121952,0.121639,-6.53205,16,0.0109709,10,-0.000794553,-2.18495,-0.138765,-0.425181,108.16,0.121639,
2,0,0,1,0,30733,0.114465,0.114171,-7.26973,16,0.0103226,10,-0.000829995,-2.13848,-0.192129,-0.307085,87.0126,0.114171,
2,0,0,1,0,30733.1,0.106976,0.106641,-7.78337,16,0.00961508,10,-0.000830024,-2.10883,-0.329627,-0.17899,54.3655,0.106641,
2,0,0,1,0,30733.2,0.0994721,0.0991619,-8.06275,16,0.00886841,10,-0.000799517,-2.09352,-1.14234,-0.0516483,16.2316,0.0991619,
2,0,0,1,0,30733.3,0.0919847,0.0916892,-8.04881,16,0.0081113,10,-0.000737989,-2.09427,1.16141,0.0508005,-15.9442,0.0916892,
2,0,0,1,0,30733.4,0.0844973,0.0841725,-7.82631,16,0.007366,10,-0.00065876,-2.10644,0.531427,0.111022,-33.9225,0.0841725,
2,0,0,1,0,30733.5,0.0770082,0.0766801,-7.55469,16,0.00664549,10,-0.000579294,-2.12178,0.47386,0.124509,-36.6898,0.0766801,
2,0,0,1,0,30733.6,0.0695208,0.0691764,-7.32693,16,0.00594916,10,-0.000506851,-2.13508,0.637097,0.0926075,-26.4706,0.0691764,
2,0,0,1,0,30733.7,0.0620245,0.0617239,-7.13987,16,0.00527078,10,-0.000440701,-2.14631,0.777024,0.0759307,-21.1733,0.0617239,
2,0,0,1,0,30733.8,0.0545282,0.0541976,-6.96951,16,0.00460847,10,-0.000377731,-2.1568,0.688872,0.0856472,-23.3106,0.0541976,
2,0,0,1,0,30733.9,0.0470408,0.0467038,-6.79732,16,0.00396302,10,-0.00031746,-2.16766,0.615204,0.0959032,-25.4447,0.0467038,
2,0,0,1,0,30734,0.0395517,0.0392072,-6.60969,16,0.00333491,10,-0.000259148,-2.17982,0.626159,0.0942252,-24.2691,0.0392072,
2,0,0,1,0,30734.1,0.0320643,0.031741,-6.38192,16,0.00272588,10,-0.000202569,-2.19505,0.419577,0.140618,-35.0165,0.031741,
2,0,0,1,0,30734.2,0.0245751,0.0242816,-6.13987,16,0.00213878,10,-0.000149086,-2.21184,0.39951,0.147681,-35.3651,0.0242816,
2,0,0,1,0,30734.3,0.0170735,0.0167633,-5.87329,16,0.00157446,10,-9.84555e-05,-2.23112,0.441805,0.133543,-30.6505,0.0167633,
2,0,0,1,0,30734.4,0.00958429,0.00928719,-5.64136,16,0.00103425,10,-5.23924e-05,-2.24862,0.451812,0.130585,-28.7895,0.00928719,
2,0,0,1,0,30734.4,0.0020969,0.0017477,-5.51835,16,0.00051333,10,-9.64439e-06,-2.25819,0.90849,0.064943,-13.9036,0.0017477,
2,0,0,1,0,30734.5,0.000199195,-0.000197439,-5.4579,16,0.000383146,10,1.0776e-06,-2.26297, , , ,-0.000197439,

File: 20221101_1-115_003_TrumpetPlot_ParaChange_from10_every3_08_CV_C01_16.csv
mode,ox/red,error,control changes,counter inc.,time/s,control/V,Ewe/V,<I>/mA,cycle number,(Q-Qo)/C,I Range,P/W,log(|I|),Tafel slope mV/dec,alpha_eff,dI/d(E-IR),E-IR/V,
2,0,0,0,0,32697.1,2.44065e-05,-0.000439847,-4.00336,17,0.0000000E+000,10,1.76087e-06,-2.39758, , , ,-0.000439847,
2,1,0,1,0,32697.2,0.0072942,0.00697728,1.21369,17,-5.13318e-05,10,8.46828e-06,-2.91589,0.00778219,7.58141,295.678,0.00697728,
2,1,0,1,0,32697.3,0.0147816,0.0144878,2.50829,17,0.000134001,10,3.63396e-05,-2.60062,0.0526252,1.12114,108.797,0.0144878,
2,1,0,1,0,32697.4,0.0222707,0.0219745,3.10189,17,0.000400642,10,6.81623e-05,-2.50837,0.118524,0.497789,60.1925,0.0219745,
2,1,0,1,0,32697.5,0.0297581,0.0294056,3.50912,17,0.000711783,10,0.000103188,-2.4548,0.166817,0.353681,48.3203,0.02940556,
2,1,0,1,0,32697.6,0.0372544,0.036915,3.85029,17,0.00105781,10,0.000142134,-2.41451,0.187975,0.313872,47.1764,0.036915,
2,1,0,1,0,32697.7,0.0447507,0.0444586,4.18111,17,0.00143567,10,0.000185887,-2.37871,0.234703,0.251381,41.0422,0.0444586,
2,1,0,1,0,32697.8,0.0522381,0.0518877,4.50559,17,0.00184358,10,0.000233785,-2.34625,0.251067,0.234997,41.31,0.0518877,
2,1,0,1,0,32697.9,0.0597273,0.0593716,4.81394,17,0.00228083,10,0.000285811,-2.3175,0.262002,0.225189,42.2633,0.05937162,
2,1,0,1,0,32697.9,0.0672147,0.0668862,5.0906,17,0.00274569,10,0.000340491,-2.29323,0.315425,0.187049,37.1574,0.0668862,
2,1,0,1,0,32698,0.0747038,0.0743807,5.35716,17,0.003236,10,0.000398469,-2.27107,0.402422,0.146612,30.6083,0.0743807,
2,1,0,1,0,32698.1,0.0822055,0.0818977,5.5775,17,0.00375011,10,0.000456785,-2.25356,0.420323,0.140368,30.5431,0.0818977,
2,1,0,1,0,32698.2,0.0896946,0.0893411,5.77537,17,0.00428288,10,0.000515978,-2.23842,0.493889,0.11946,26.9534,0.0893411,
2,1,0,1,0,32698.3,0.097182,0.0968966,6.01981,17,0.00483571,10,0.000583299,-2.22042,0.363856,0.162152,38.1141,0.0968966,
2,1,0,1,0,32698.4,0.104671,0.104386,6.37822,17,0.00541572,10,0.000665796,-2.1953,0.258091,0.228601,56.8168,0.104386,
2,1,0,1,0,32698.5,0.112159,0.11183,6.83927,17,0.00603453,10,0.000764838,-2.16499,0.236152,0.249839,66.7398,0.11183,
2,1,0,1,0,32698.6,0.119655,0.119324,7.35185,17,0.00670114,10,0.000877248,-2.1336,0.292648,0.201608,57.8067,0.119324,
2,1,0,1,0,32698.7,0.127149,0.126859,7.74911,17,0.0074108,10,0.000983044,-2.11075,0.379914,0.155298,46.9514,0.126859,
2,1,0,1,0,32698.8,0.134639,0.134303,8.01735,17,0.00815108,10,0.00107675,-2.09597,0.651471,0.0905642,28.3552,0.134303,
2,1,0,1,0,32698.9,0.142126,0.141811,8.1666,17,0.00891137,10,0.00115811,-2.08796,4.61069,0.0127964,4.07326,0.141811,
2,1,0,1,0,32699,0.149615,0.149271,7.98535,17,0.00967237,10,0.00119198,-2.09771,-0.276755,-0.213185,-66.1582,0.149271,
2,1,0,1,0,32699.1,0.157103,0.156818,7.14297,17,0.0103864,10,0.00112015,-2.14612,-0.110192,-0.535429,-148.8,0.156818,
2,1,0,1,0,32699.2,0.164606,0.164257,5.89632,17,0.0109998,10,0.000968512,-2.22942,-0.0830007,-0.710838,-163.852,0.164257,
2,1,0,1,0,32699.3,0.172095,0.171794,4.89223,17,0.0115028,10,0.000840458,-2.31049,-0.102121,-0.577747,-110.613,0.171794,
2,1,0,1,0,32699.3,0.179582,0.179266,4.25922,17,0.0119299,10,0.000763531,-2.37067,-0.153078,-0.385425,-64.3136,0.179266,
2,1,0,1,0,32699.4,0.18707,0.186816,3.88466,17,0.0123111,10,0.000725719,-2.41065,-0.219702,-0.268546,-40.7596,0.186816,
2,1,0,1,0,32699.5,0.194559,0.194255,3.65355,17,0.0126639,10,0.000709719,-2.43728,-0.337569,-0.174779,-24.9177,0.194255,
2,1,0,1,0,32699.6,0.202062,0.201705,3.4862,17,0.0129992,10,0.000703182,-2.45765,-0.510312,-0.115616,-15.729,0.201705,
2,1,0,1,0,32699.7,0.20955,0.209256,3.37893,17,0.0133216,10,0.00070706,-2.47122,-0.525933,-0.112181,-14.8164,0.2092558,
2,1,0,1,0,32699.8,0.217039,0.21672,3.30252,17,0.0136354,10,0.000715722,-2.48115,-0.659543,-0.0894559,-11.5332,0.21672,
2,1,0,1,0,32699.9,0.224526,0.224225,3.24519,17,0.0139427,10,0.000727653,-2.48876,-1.49055,-0.0395827,-5.00976,0.224225,
2,1,0,1,0,32700,0.232016,0.231677,3.19377,17,0.0142451,10,0.000739921,-2.4957,-1.57499,-0.0374604,-4.67411,0.231677,
2,1,0,1,0,32700.1,0.23951,0.239184,3.15996,17,0.0145441,10,0.000755811,-2.50032,-1.05504,-0.055922,-6.89947,0.239184,
2,1,0,1,0,32700.2,0.247006,0.246705,3.13508,17,0.0148398,10,0.00077344,-2.50375,-2.19374,-0.0268947,-3.28324,0.246705,
2,1,0,1,0,32700.3,0.254494,0.254184,3.1016,17,0.0151325,10,0.000788377,-2.50841,-2.05714,-0.0286806,-3.47284,0.254184,
2,1,0,1,0,32700.4,0.261983,0.261699,3.07762,17,0.0154228,10,0.000805411,-2.51179,-1.19055,-0.0495571,-5.94987,0.261699,
2,1,0,1,0,32700.5,0.26947,0.269142,3.05581,17,0.0157106,10,0.000822448,-2.51487,-5.54062,-0.0106486,-1.26771,0.269142,
2,1,0,1,0,32700.6,0.276959,0.276658,3.02265,17,0.0159963,10,0.000836241,-2.51961,270.628,0.000218011,0.0257499,0.276658,
2,1,0,1,0,32700.7,0.284461,0.284134,2.99906,17,0.0162802,10,0.000852133,-2.52302,-1.50458,-0.0392135,-4.59095,0.284134,
2,1,0,1,0,32700.8,0.29195,0.291609,2.9788,17,0.0165611,10,0.000868644,-2.52596,-1.55868,-0.0378526,-4.39469,0.291609,
2,1,0,1,0,32700.8,0.299438,0.299158,2.94414,17,0.0168397,10,0.000880765,-2.53104,-0.0263263,-2.2411,-234.266,0.299158,
2,0,0,1,0,32700.9,0.29424,0.29393,-0.496704,17,0.0169001,10,-0.000145996,-3.3039,-0.00270901,-21.7792,187.248,0.2939302,
2,0,0,1,0,32701,0.286753,0.286437,-1.19077,17,0.0168132,10,-0.000341081,-2.92417,-0.0510684,-1.15531,53.2008,0.286437,
2,0,0,1,0,32701.1,0.279264,0.278959,-1.46183,17,0.0166864,10,-0.000407789,-2.8351,-0.123738,-0.476815,27.2947,0.278959,
2,0,0,1,0,32701.2,0.271776,0.271452,-1.64662,17,0.0165393,10,-0.000446978,-2.78341,-0.170495,-0.346051,22.2121,0.2714515,
2,0,0,1,0,32701.3,0.26428,0.263984,-1.78553,17,0.0163773,10,-0.00047135,-2.74823,-0.21133,-0.279184,19.4329,0.263984,
2,0,0,1,0,32701.4,0.256786,0.256488,-1.90105,17,0.0162035,10,-0.000487595,-2.72101,-0.294392,-0.200413,14.8393,0.256488,
2,0,0,1,0,32701.5,0.249296,0.248982,-2.0007,17,0.0160198,10,-0.000498137,-2.69882,-0.479563,-0.123029,9.59492,0.248982,
2,0,0,1,0,32701.6,0.241809,0.241505,-2.08652,17,0.0158273,10,-0.000503905,-2.68058,-0.360288,-0.163758,13.3707,0.241505,
2,0,0,1,0,32701.7,0.23432,0.233981,-2.16879,17,0.0156266,10,-0.000507455,-2.66378,-0.416413,-0.141686,12.0383,0.233981,
2,0,0,1,0,32701.8,0.226833,0.226479,-2.25444,17,0.0154182,10,-0.000510584,-2.64696,-0.489063,-0.120639,10.6255,0.226479,
2,0,0,1,0,32701.9,0.219329,0.219001,-2.34496,17,0.0152018,10,-0.000513548,-2.62987,-0.441861,-0.133526,12.1686,0.219001,
2,0,0,1,0,32702,0.21184,0.211569,-2.41339,17,0.0149787,10,-0.000510599,-2.61737,-0.495368,-0.119103,11.1929,0.211569,
2,0,0,1,0,32702.1,0.204353,0.203988,-2.49476,17,0.0147481,10,-0.000508902,-2.60297,-0.831329,-0.0709707,6.91099,0.203988,
2,0,0,1,0,32702.1,0.196863,0.196558,-2.57331,17,0.01451,10,-0.000505804,-2.58951,-0.505338,-0.116754,11.7431,0.196558,
2,0,0,1,0,32702.2,0.189376,0.189086,-2.6605,17,0.0142638,10,-0.000503063,-2.57504,-0.447559,-0.131826,13.7213,0.189086,
2,0,0,1,0,32702.3,0.18188,0.181546,-2.76612,17,0.0140085,10,-0.000502177,-2.55813,-0.434653,-0.13574,14.6702,0.181546,
2,0,0,1,0,32702.4,0.174385,0.174032,-2.89043,17,0.0137427,10,-0.000503025,-2.53904,-0.36819,-0.160243,18.0665,0.174032,
2,0,0,1,0,32702.5,0.166896,0.16658,-3.04956,17,0.0134644,10,-0.000507997,-2.51576,-0.284145,-0.207641,24.6679,0.16658,
2,0,0,1,0,32702.6,0.159409,0.15904,-3.2544,17,0.0131688,10,-0.000517579,-2.48753,-0.236334,-0.249647,31.8059,0.1590398,
2,0,0,1,0,32702.7,0.151919,0.151559,-3.58564,17,0.0128488,10,-0.000543438,-2.44543,-0.159894,-0.368995,51.6644,0.151559,
2,0,0,1,0,32702.8,0.144425,0.144081,-4.09439,17,0.01249,10,-0.000589926,-2.38781,-0.104972,-0.562053,89.9945,0.144081,
2,0,0,1,0,32702.9,0.136929,0.136626,-4.87718,17,0.0120701,10,-0.000666347,-2.31183,-0.0939935,-0.627703,119.736,0.1366255,
2,0,0,1,0,32703,0.129441,0.129107,-5.86707,17,0.0115668,10,-0.000757479,-2.23158,-0.102038,-0.578213,132.169,0.1291068,
2,0,0,1,0,32703.1,0.121952,0.121635,-6.79765,17,0.0109722,10,-0.000826833,-2.16764,-0.135903,-0.434133,114.918,0.121635,
2,0,0,1,0,32703.2,0.114465,0.114136,-7.52812,17,0.010299,10,-0.00085923,-2.12331,-0.214092,-0.275583,80.9149,0.1141362,
2,0,0,1,0,32703.3,0.106976,0.106612,-8.02741,17,0.00956786,10,-0.000855822,-2.09542,-0.402894,-0.14644,45.8094,0.1066124,
2,0,0,1,0,32703.4,0.0994721,0.0991806,-8.22881,17,0.00880204,10,-0.000816138,-2.08466,-2.1442,-0.0275161,8.82467,0.0991806,
2,0,0,1,0,32703.5,0.0919847,0.0916684,-8.12523,17,0.00803334,10,-0.000744826,-2.09016,0.702671,0.0839654,-26.6266,0.09166839,
2,0,0,1,0,32703.5,0.0844973,0.0842001,-7.83352,17,0.00728429,10,-0.000659584,-2.10604,0.402307,0.146654,-44.8428,0.0842001,
2,0,0,1,0,32703.6,0.0770082,0.0766794,-7.52299,17,0.00656531,10,-0.000576859,-2.12361,0.455916,0.12941,-37.9896,0.0766794,
2,0,0,1,0,32703.7,0.0695208,0.0691753,-7.27977,17,0.00587216,10,-0.000503581,-2.13788,0.658063,0.089657,-25.5031,0.0691753,
2,0,0,1,0,32703.8,0.0620245,0.0617009,-7.10724,17,0.00519712,10,-0.000438523,-2.1483,0.621387,0.094949,-26.3254,0.0617009,
2,0,0,1,0,32703.9,0.0545282,0.0542003,-6.9332,17,0.00453852,10,-0.000375782,-2.15907,0.77934,0.0757051,-20.4888,0.0542003,
2,0,0,1,0,32704,0.0470408,0.0467065,-6.74629,17,0.00389713,10,-0.000315096,-2.17093,0.67302,0.0876646,-23.0815,0.0467065,
2,0,0,1,0,32704.1,0.0395517,0.0392512,-6.55094,17,0.00327363,10,-0.000257132,-2.1837,0.508764,0.115967,-29.6367,0.0392512,
2,0,0,1,0,32704.2,0.0320643,0.0317271,-6.32027,17,0.00267025,10,-0.000200524,-2.19926,0.415861,0.141874,-34.983,0.0317271,
2,0,0,1,0,32704.3,0.0245751,0.0242772,-6.05888,17,0.00208991,10,-0.000147093,-2.21761,0.425365,0.138705,-32.8124,0.0242772,
2,0,0,1,0,32704.4,0.0170735,0.0167374,-5.79494,17,0.00153272,10,-9.6992e-05,-2.23695,0.406227,0.145239,-32.9209,0.0167374,
2,0,0,1,0,32704.5,0.00958429,0.00925685,-5.59017,17,0.000999241,10,-5.17474e-05,-2.25257,0.506996,0.116372,-25.3606,0.00925685,
2,0,0,1,0,32704.6,0.0020969,0.00171293,-5.47177,17,0.000483536,10,-9.37275e-06,-2.26187,1.52296,0.0387404,-8.21399,0.00171293,
2,0,0,1,0,32704.6,0.000199195,-0.000199347,-5.41656,17,0.00035437,10,1.07978e-06,-2.26628, , , ,-0.000199347,