Folder: Figs_alphaMnO2_OER_Tafel_sleope/Figure_codes/Fig_3-5/rawdata_trumpetplot_data/after 10th (part 142)

File: 20221101_1-115_003_TrumpetPlot_ParaChange_from10_every3_10_CV_C01_5.csv
mode,ox/red,error,control changes,counter inc.,time/s,control/V,Ewe/V,<I>/mA,cycle number,(Q-Qo)/C,I Range,P/W,log(|I|),Tafel slope mV/dec,alpha_eff,dI/d(E-IR),E-IR/V,
2,1,0,0,0,11041.2,-2.44065e-05,-0.000287149,5.35458,6,0.0000000E+000,10,-1.53756e-06,-2.27127, , , ,-0.0002871489,
2,1,0,1,0,11041.2,0.00977853,0.0094014,8.58049,6,0.000357692,10,8.06686e-05,-2.06649,0.110953,0.531757,177.133,0.0094014,
2,1,0,1,0,11041.3,0.0197755,0.0194439,9.8056,6,0.000820756,10,0.000190659,-2.00853,0.250484,0.235544,90.0994,0.0194439,
2,1,0,1,0,11041.3,0.0297726,0.0294492,10.5825,6,0.00133152,10,0.000311647,-1.97541,0.354265,0.166542,68.7829,0.0294492,
2,1,0,1,0,11041.4,0.0397514,0.0393842,11.2926,6,0.00187763,10,0.00044475,-1.94721,0.33378,0.176763,77.9952,0.0393842,
2,1,0,1,0,11041.4,0.0497393,0.0493737,12.0556,6,0.0024598,10,0.000595229,-1.91881,0.358152,0.164734,77.3812,0.0493737,
2,1,0,1,0,11041.5,0.0597364,0.0594041,12.8338,6,0.00308179,10,0.00076238,-1.89164,0.363222,0.162435,81.3362,0.0594041,
2,1,0,1,0,11041.5,0.0697152,0.0693998,13.6277,6,0.00374204,10,0.000945763,-1.86558,0.389075,0.151642,80.6593,0.0693998,
2,1,0,1,0,11041.6,0.0796941,0.0793842,14.4114,6,0.00444226,10,0.00114404,-1.84129,0.437333,0.134909,75.8875,0.0793842,
2,1,0,1,0,11041.6,0.0896911,0.0893599,15.1374,6,0.00518165,10,0.00135268,-1.81995,0.488709,0.120726,71.3657,0.0893599,
2,1,0,1,0,11041.7,0.099679,0.0993717,15.8573,6,0.00595487,10,0.00157576,-1.79977,0.498763,0.118293,73.1506,0.0993717,
2,1,0,1,0,11041.7,0.109658,0.109327,16.6906,6,0.00676565,10,0.00182474,-1.77753,0.387145,0.152398,99.3081,0.109327,
2,1,0,1,0,11041.8,0.119655,0.119337,17.8564,6,0.0076281,10,0.00213094,-1.74821,0.322096,0.183175,127.643,0.119337,
2,1,0,1,0,11041.8,0.129652,0.129324,19.1865,6,0.00855421,10,0.00248128,-1.71701,0.328936,0.179366,134.285,0.129324,
2,1,0,1,0,11041.9,0.139631,0.139312,20.4042,6,0.00954347,10,0.00284255,-1.69028,0.434938,0.135651,108.02,0.139312,
2,1,0,1,0,11041.9,0.149619,0.149273,21.3589,6,0.0105868,10,0.00318831,-1.67042,0.616883,0.0956421,79.6375,0.149273,
2,1,0,1,0,11042,0.159616,0.159285,21.6866,6,0.0116672,10,0.00345437,-1.66381,-1.5052,-0.0391975,-33.133,0.159285,
2,1,0,1,0,11042,0.169595,0.16926,20.3187,6,0.0127246,10,0.00343914,-1.6921,-0.176359,-0.334546,-264.502,0.16926,
2,1,0,1,0,11042.1,0.179573,0.179258,16.7761,6,0.0136555,10,0.00300725,-1.77531,-0.0979652,-0.602255,-394.312,0.179258,
2,1,0,1,0,11042.1,0.18957,0.189285,13.2729,6,0.0144014,10,0.00251237,-1.87703,-0.108764,-0.542459,-281.467,0.189285,
2,1,0,1,0,11042.2,0.199558,0.199291,11.1712,6,0.0150056,10,0.00222631,-1.9519,-0.172126,-0.342772,-149.491,0.199291,
2,1,0,1,0,11042.2,0.209537,0.209216,10.0139,6,0.0155311,10,0.00209507,-1.9994,-0.255648,-0.230786,-90.2864,0.209216,
2,1,0,1,0,11042.3,0.219534,0.219206,9.32071,6,0.0160129,10,0.00204315,-2.03055,-0.398769,-0.147955,-53.8171,0.219206,
2,1,0,1,0,11042.3,0.229531,0.229227,8.84548,6,0.0164665,10,0.00202762,-2.05328,-0.482495,-0.122281,-42.2677,0.229227,
2,1,0,1,0,11042.4,0.23951,0.239214,8.52623,6,0.0168997,10,0.00203959,-2.06924,-0.690274,-0.0854733,-28.4445,0.239214,
2,1,0,1,0,11042.4,0.249498,0.249205,8.28111,6,0.0173187,10,0.00206369,-2.08191,-0.877514,-0.0672354,-21.7206,0.2492049,
2,1,0,1,0,11042.5,0.259495,0.259234,8.09257,6,0.0177277,10,0.00209787,-2.09191,-0.945609,-0.0623936,-19.6834,0.259234,
2,1,0,1,0,11042.5,0.269474,0.269163,7.92358,6,0.018127,10,0.00213273,-2.10108,-1.30678,-0.045149,-13.9697,0.269163,
2,1,0,1,0,11042.6,0.279453,0.279127,7.78411,6,0.0185188,10,0.00217275,-2.10879,-1.17538,-0.0501967,-15.2394,0.279127,
2,1,0,1,0,11042.6,0.28945,0.28907,7.64437,6,0.0189045,10,0.00220975,-2.11666,-1.61119,-0.036619,-10.933,0.28907,
2,1,0,1,0,11042.7,0.299438,0.299134,7.53213,6,0.0192833,10,0.00225312,-2.12308,-0.0522293,-1.12963,-316.953,0.299134,
2,0,0,1,0,11042.7,0.291747,0.291401,-0.716822,6,0.0193931,10,-0.000208883,-3.14459,-0.00463933,-12.7174,394.092,0.291401,
2,0,0,1,0,11042.8,0.28175,0.281427,-2.78531,6,0.0192945,10,-0.000783862,-2.55513,-0.0559562,-1.0544,113.754,0.281427,
2,0,0,1,0,11042.8,0.27178,0.271497,-3.59703,6,0.0191334,10,-0.000976585,-2.44406,-0.130995,-0.4504,62.9273,0.271497,
2,0,0,1,0,11042.9,0.261783,0.261448,-4.08877,6,0.0189405,10,-0.001069,-2.38841,-0.231747,-0.254588,40.6216,0.2614477,
2,0,0,1,0,11042.9,0.251786,0.251452,-4.47211,6,0.0187261,10,-0.00112452,-2.34949,-0.296431,-0.199034,34.6977,0.251452,
2,0,0,1,0,11043,0.241807,0.241501,-4.78521,6,0.0184946,10,-0.00115563,-2.3201,-0.380133,-0.155209,29.0843,0.241501,
2,0,0,1,0,11043,0.231824,0.231512,-5.09086,6,0.0182482,10,-0.00117859,-2.29321,-0.373769,-0.157852,31.2819,0.231512,
2,0,0,1,0,11043.1,0.221822,0.221523,-5.34713,6,0.0179872,10,-0.00118451,-2.27188,-0.43841,-0.134577,28.1089,0.221523,
2,0,0,1,0,11043.1,0.211843,0.211537,-5.62309,6,0.0177136,10,-0.00118949,-2.25002,-0.542249,-0.108806,23.8208,0.211537,
2,0,0,1,0,11043.2,0.201865,0.201507,-5.88796,6,0.0174264,10,-0.00118647,-2.23003,-0.502265,-0.117468,27.0339,0.201507,
2,0,0,1,0,11043.2,0.191868,0.191538,-6.18978,6,0.0171245,10,-0.00118558,-2.20833,-0.424038,-0.139138,33.5939,0.191538,
2,0,0,1,0,11043.3,0.18188,0.181543,-6.54473,6,0.0168073,10,-0.00118815,-2.18411,-0.338505,-0.174296,44.475,0.181543,
2,0,0,1,0,11043.3,0.171901,0.17156,-6.99331,6,0.0164704,10,-0.00119978,-2.15532,-0.311664,-0.189307,51.5557,0.1715603,
2,0,0,1,0,11043.4,0.161904,0.161589,-7.60868,6,0.0161064,10,-0.00122948,-2.11869,-0.230175,-0.256327,76.211,0.161589,
2,0,0,1,0,11043.4,0.151907,0.15158,-8.58306,6,0.0157031,10,-0.00130102,-2.06636,-0.166188,-0.35502,119.001,0.15158,
2,0,0,1,0,11043.5,0.141928,0.141603,-10.1561,6,0.0152385,10,-0.00143814,-1.99327,-0.116292,-0.507344,201.375,0.141603,
2,0,0,1,0,11043.5,0.13194,0.131673,-12.4929,6,0.0146762,10,-0.00164497,-1.90334,-0.109315,-0.539727,263.013,0.131673,
2,0,0,1,0,11043.6,0.121943,0.12168,-15.1945,6,0.0139834,10,-0.00184887,-1.81831,-0.133435,-0.442164,262.346,0.12168,
2,0,0,1,0,11043.6,0.111964,0.111654,-17.6683,6,0.0131607,10,-0.00197272,-1.75281,-0.189687,-0.311039,214.185,0.111654,
2,0,0,1,0,11043.7,0.101985,0.101708,-19.466,6,0.0122311,10,-0.00197984,-1.71072,-0.315698,-0.186887,141.829,0.101708,
2,0,0,1,0,11043.7,0.0919883,0.0916808,-20.5005,6,0.0112282,10,-0.0018795,-1.68824,-0.757626,-0.0778748,62.2575,0.0916808,
2,0,0,1,0,11043.8,0.0820004,0.0816968,-20.6299,6,0.0101978,10,-0.0016854,-1.6855,1.50372,0.0392359,-31.5654,0.0816968,
2,0,0,1,0,11043.8,0.0720215,0.0716903,-19.9083,6,0.0091837,10,-0.00142723,-1.70097,0.463581,0.12727,-98.8695,0.0716903,
2,0,0,1,0,11043.9,0.0620245,0.0617397,-18.891,6,0.00821388,10,-0.00116632,-1.72375,0.4536,0.13007,-95.9647,0.0617397,
2,0,0,1,0,11043.9,0.0520275,0.0516928,-18.0756,6,0.00729081,10,-0.00093438,-1.74291,0.564882,0.104447,-73.6301,0.0516928,
2,0,0,1,0,11044,0.0420486,0.0417216,-17.3891,6,0.00640633,10,-0.000725503,-1.75972,0.633296,0.0931634,-63.2978,0.0417216,
2,0,0,1,0,11044,0.0320607,0.031685,-16.77,6,0.00555397,10,-0.000531357,-1.77547,0.590613,0.0998963,-65.3019,0.031685,
2,0,0,1,0,11044.1,0.0220637,0.0217518,-16.0451,6,0.00473317,10,-0.000349009,-1.79466,0.464017,0.127151,-79.6183,0.0217518,
2,0,0,1,0,11044.1,0.0120848,0.0117402,-15.1755,6,0.00395367,10,-0.000178164,-1.81886,0.356868,0.165327,-97.8448,0.0117402,
2,0,0,1,0,11044.2,0.00210598,0.00171789,-14.2623,6,0.00322077,10,-2.4501e-05,-1.84581,0.412714,0.142956,-79.4343,0.00171789,
2,0,0,1,0,11044.2,-0.00789103,-0.00819798,-13.4273,6,0.00252975,10,0.000110077,-1.87201,0.47652,0.123814,-64.9535,-0.00819798,
2,0,0,1,0,11044.3,-0.017879,-0.0182602,-12.9553,6,0.00187278,10,0.000236566,-1.88755,0.974177,0.060564,-30.6184,-0.01826025,
2,0,0,1,0,11044.3,-0.0278578,-0.0281989,-12.7577,6,0.00123251,10,0.000359754,-1.89423,3.21367,0.0183591,-9.14666,-0.0281989,
2,0,0,1,0,11044.4,-0.0378548,-0.0382024,-12.7936,6,0.00059455,10,0.000488747,-1.89301,-2.58577,-0.0228172,11.3893,-0.03820239,
2,0,0,1,0,11044.4,-0.0478519,-0.0482085,-12.9776,6,-4.9275e-05,10,0.00062563,-1.88681,-1.00237,-0.0588607,29.8284,-0.0482085,
2,0,0,1,0,11044.5,-0.0578126,-0.0581972,-13.2884,6,-0.000703087,10,0.000773346,-1.87653,-0.879396,-0.0670915,34.8015,-0.0581972,
2,0,0,1,0,11044.5,-0.0678187,-0.0681999,-13.7031,6,-0.0013773,10,0.000934548,-1.86318,-0.688978,-0.0856341,45.7499,-0.0681999,
2,0,0,1,0,11044.6,-0.0778157,-0.0781886,-14.195,6,-0.0020744,10,0.00110989,-1.84786,-0.596077,-0.0989804,54.8711,-0.0781886,
2,0,0,1,0,11044.6,-0.0877945,-0.088158,-14.8253,6,-0.002798,10,0.00130697,-1.829,-0.497322,-0.118635,68.6114,-0.088158,
2,0,0,1,0,11044.7,-0.0977734,-0.0981583,-15.5235,6,-0.00355512,10,0.00152376,-1.80901,-0.470507,-0.125397,76.0389,-0.0981583,
2,0,0,1,1,11044.7,-0.0936874,-0.0940775,-5.87022,6,-0.00404427,10,0.000552255,-2.23135,-0.0125449,-4.70312,1066.54,-0.0940775,
2,1,0,1,1,11044.8,-0.0837086,-0.0841005,1.40089,6,-0.00413336,10,-0.000117815,-2.8536,0.00469341,12.5708,507.917,-0.08410047,
2,1,0,1,1,11044.8,-0.0737025,-0.0741056,5.32493,6,-0.00395589,10,-0.000394607,-2.27369,0.0404089,1.46007,299.381,-0.07410565,
2,1,0,1,1,11044.9,-0.0637236,-0.0641017,7.60032,6,-0.00362821,10,-0.000487193,-2.11917,0.101944,0.578751,171.571,-0.0641017,
2,1,0,1,1,11044.9,-0.0537447,-0.0541004,8.97022,6,-0.00321148,10,-0.000485292,-2.0472,0.205066,0.287712,100.502,-0.0541004,
2,1,0,1,1,11045,-0.0437477,-0.0440726,9.76383,6,-0.00274106,10,-0.000430317,-2.01038,0.389115,0.151626,57.7812,-0.0440726,
2,1,0,1,1,11045,-0.0337507,-0.0340977,10.2114,6,-0.00224038,10,-0.000348185,-1.99092,0.754148,0.078234,31.1533,-0.0340977,
2,1,0,1,1,11045.1,-0.0237809,-0.0241723,10.4162,6,-0.00172598,10,-0.000251783,-1.98229,1.60606,0.0367359,14.9281,-0.0241723,
2,1,0,1,1,11045.1,-0.0137839,-0.0141463,10.4922,6,-0.00120288,10,-0.000148425,-1.97913,28.1148,0.00209854,0.858943,-0.0141463,
2,1,0,1,1,11045.2,-0.0037869,-0.00416448,10.5005,6,-0.000677976,10,-4.37293e-05,-1.97879,12.3767,0.00476704,1.95414,-0.00416448,
2,1,0,1,1,11045.2,-2.55332e-05,-0.000382585,10.495,6,-0.000481583,10,-4.01523e-06,-1.97902, , , ,-0.000382585,

File: 20221101_1-115_003_TrumpetPlot_ParaChange_from10_every3_10_CV_C01_6.csv
mode,ox/red,error,control changes,counter inc.,time/s,control/V,Ewe/V,<I>/mA,cycle number,(Q-Qo)/C,I Range,P/W,log(|I|),Tafel slope mV/dec,alpha_eff,dI/d(E-IR),E-IR/V,
2,1,0,0,0,13011.3,-2.44065e-05,-0.000478022,5.23373,7,0.0000000E+000,10,-2.50184e-06,-2.28119, , , ,-0.000478022,
2,1,0,1,0,13011.4,0.00977853,0.00947081,8.24497,7,0.000344783,10,7.80865e-05,-2.08381,0.112309,0.525337,168.388,0.00947081,
2,1,0,1,0,13011.4,0.0197755,0.0194379,9.4535,7,0.000790597,10,0.000183756,-2.02441,0.252702,0.233477,86.0912,0.0194379,
2,1,0,1,0,13011.5,0.0297726,0.0294544,10.2295,7,0.00128359,10,0.000301304,-1.99014,0.343913,0.171555,68.5014,0.0294544,
2,1,0,1,0,13011.5,0.0397514,0.0393906,10.9292,7,0.00181163,10,0.000430507,-1.96141,0.326952,0.180454,76.9679,0.0393906,
2,1,0,1,0,13011.6,0.0497393,0.0493963,11.6588,7,0.00237503,10,0.000575899,-1.93335,0.361326,0.163287,74.259,0.0493963,
2,1,0,1,0,13011.6,0.0597364,0.0594119,12.4232,7,0.00297667,10,0.000738089,-1.90576,0.368302,0.160195,77.5592,0.0594119,
2,1,0,1,0,13011.7,0.0697152,0.0693275,13.1623,7,0.00361515,10,0.000912508,-1.88067,0.398547,0.148038,76.1371,0.0693275,
2,1,0,1,0,13011.7,0.0796941,0.0793712,13.9304,7,0.00429172,10,0.00110568,-1.85604,0.44656,0.132121,71.7856,0.0793712,
2,1,0,1,0,13011.8,0.0896911,0.0893773,14.6095,7,0.00500581,10,0.00130576,-1.83536,0.497189,0.118667,67.7381,0.0893773,
2,1,0,1,0,13011.8,0.099679,0.0993224,15.2959,7,0.00575201,10,0.00151923,-1.81542,0.50523,0.116779,69.6385,0.0993224,
2,1,0,1,0,13011.9,0.109658,0.109359,16.0725,7,0.00653339,10,0.00175767,-1.79392,0.409826,0.143963,90.3194,0.109359,
2,1,0,1,0,13011.9,0.119655,0.11935,17.1493,7,0.00736256,10,0.00204677,-1.76575,0.335911,0.175642,117.525,0.11935,
2,1,0,1,0,13012,0.129652,0.129307,18.3838,7,0.00825086,10,0.00237715,-1.73556,0.342749,0.172137,123.512,0.129307,
2,1,0,1,0,13012,0.139631,0.139298,19.5281,7,0.00919791,10,0.00272021,-1.70934,0.430236,0.137134,104.458,0.1392976,
2,1,0,1,0,13012.1,0.149619,0.149291,20.4198,7,0.0101958,10,0.00304848,-1.68995,0.62935,0.0937476,74.6761,0.149291,
2,1,0,1,0,13012.1,0.159616,0.159314,20.7805,7,0.0112295,10,0.00331063,-1.68234,-2.06905,-0.0285154,-23.0892,0.159314,
2,1,0,1,0,13012.1,0.169595,0.169293,19.618,7,0.0122459,10,0.00332119,-1.70734,-0.199276,-0.296071,-226.166,0.169293,
2,1,0,1,0,13012.2,0.179573,0.179289,16.5392,7,0.013153,10,0.00296529,-1.78149,-0.106238,-0.555356,-358.197,0.179289,
2,1,0,1,0,13012.2,0.18957,0.189258,13.3711,7,0.0138965,10,0.00253058,-1.87383,-0.120547,-0.489434,-255.943,0.189258,
2,1,0,1,0,13012.3,0.199558,0.199197,11.3785,7,0.0145092,10,0.00226656,-1.94391,-0.180191,-0.32743,-145.463,0.199197,
2,1,0,1,0,13012.3,0.209537,0.209214,10.2226,7,0.0150454,10,0.00213871,-1.99044,-0.251987,-0.234139,-93.5631,0.209214,
2,1,0,1,0,13012.4,0.219534,0.219301,9.49701,7,0.0155369,10,0.00208271,-2.02241,-0.359135,-0.164284,-60.855,0.219301,
2,1,0,1,0,13012.4,0.229531,0.229191,8.98519,7,0.0159984,10,0.00205933,-2.04647,-0.465639,-0.126707,-44.5178,0.229191,
2,1,0,1,0,13012.5,0.23951,0.239213,8.63722,7,0.0164376,10,0.00206613,-2.06363,-0.705425,-0.0836375,-28.1726,0.239213,
2,1,0,1,0,13012.5,0.249498,0.249195,8.35163,7,0.016861,10,0.00208118,-2.07823,-0.736945,-0.0800602,-26.1142,0.249195,
2,1,0,1,0,13012.6,0.259495,0.259225,8.13878,7,0.0172729,10,0.00210977,-2.08944,-0.821226,-0.0718438,-22.7912,0.259225,
2,1,0,1,0,13012.6,0.269474,0.269163,7.94231,7,0.0176739,10,0.00213778,-2.10005,-1.05154,-0.0561083,-17.415,0.269163,
2,1,0,1,0,13012.7,0.279453,0.279162,7.79336,7,0.0180665,10,0.00217561,-2.10828,-1.21978,-0.0483693,-14.7059,0.279162,
2,1,0,1,0,13012.7,0.28945,0.28916,7.6367,7,0.0184524,10,0.00220823,-2.11709,-1.71747,-0.0343529,-10.2554,0.28916,
2,1,0,1,0,13012.8,0.299438,0.299125,7.52314,7,0.0188306,10,0.00225036,-2.1236,-0.0601462,-0.980943,-275.765,0.299125,
2,0,0,1,0,13012.8,0.291747,0.291443,-0.290016,7,0.0189536,10,-8.45232e-05,-3.53758,-0.0188875,-3.12376,390.959,0.291443,
2,0,0,1,0,13012.9,0.28175,0.281443,-2.44644,7,0.0188744,10,-0.000688534,-2.61147,-0.0454116,-1.29923,122.1,0.281443,
2,0,0,1,0,13012.9,0.27178,0.271464,-3.30517,7,0.0187291,10,-0.000897235,-2.48081,-0.114759,-0.514119,66.1628,0.271464,
2,0,0,1,0,13013,0.261783,0.261423,-3.84885,7,0.0185495,10,-0.00100618,-2.41467,-0.203243,-0.290293,43.4364,0.261423,
2,0,0,1,0,13013,0.251786,0.251469,-4.24245,7,0.0183468,10,-0.00106685,-2.37238,-0.268779,-0.219511,36.395,0.251469,
2,0,0,1,0,13013.1,0.241807,0.241546,-4.58474,7,0.018126,10,-0.00110743,-2.33868,-0.329392,-0.179118,32.0735,0.241546,
2,0,0,1,0,13013.1,0.231824,0.231508,-4.88376,7,0.0178896,10,-0.00113063,-2.31125,-0.364438,-0.161893,30.87,0.231508,
2,0,0,1,0,13013.2,0.221822,0.221543,-5.1578,7,0.0176384,10,-0.00114267,-2.28754,-0.426747,-0.138255,27.7997,0.221543,
2,0,0,1,0,13013.2,0.211844,0.211544,-5.42203,7,0.0173743,10,-0.001147,-2.26584,-0.519749,-0.113516,24.0462,0.211544,
2,0,0,1,0,13013.3,0.201865,0.201535,-5.69685,7,0.0170968,10,-0.00114812,-2.24437,-0.511674,-0.115308,25.6162,0.201535,
2,0,0,1,0,13013.3,0.191868,0.191544,-5.97584,7,0.0168051,10,-0.00114464,-2.2236,-0.447479,-0.13185,30.8114,0.191544,
2,0,0,1,0,13013.4,0.18188,0.181579,-6.32527,7,0.0164986,10,-0.00114854,-2.19892,-0.374006,-0.157751,38.8532,0.181579,
2,0,0,1,0,13013.4,0.171901,0.171605,-6.7243,7,0.0161738,10,-0.00115392,-2.17235,-0.330347,-0.1786,46.8649,0.171605,
2,0,0,1,0,13013.5,0.161904,0.161595,-7.28679,7,0.0158244,10,-0.00117751,-2.13746,-0.246246,-0.239598,68.1333,0.161595,
2,0,0,1,0,13013.5,0.151907,0.151607,-8.13836,7,0.0154402,10,-0.00123383,-2.08946,-0.178876,-0.329838,105.008,0.151607,
2,0,0,1,0,13013.6,0.141928,0.141581,-9.53798,7,0.0150018,10,-0.0013504,-2.02054,-0.123456,-0.477905,177.963,0.141581,
2,0,0,1,0,13013.6,0.13194,0.131651,-11.6452,7,0.014476,10,-0.00153311,-1.93385,-0.112176,-0.525961,239.244,0.131651,
2,0,0,1,0,13013.7,0.121943,0.121606,-14.1864,7,0.0138305,10,-0.00172515,-1.84813,-0.134281,-0.439376,242.567,0.121606,
2,0,0,1,0,13013.7,0.111964,0.111642,-16.5025,7,0.0130634,10,-0.00184238,-1.78245,-0.182112,-0.323976,208.507,0.111642,
2,0,0,1,0,13013.8,0.101985,0.101742,-18.2811,7,0.0121926,10,-0.00185995,-1.738,-0.295822,-0.199444,142.102,0.101742,
2,0,0,1,0,13013.8,0.0919883,0.0916929,-19.3843,7,0.0112479,10,-0.0017774,-1.71255,-0.57295,-0.102976,77.8804,0.0916929,
2,0,0,1,0,13013.9,0.0820004,0.0816801,-19.6903,7,0.0102692,10,-0.00160831,-1.70575,3.45562,0.0170736,-13.1013,0.0816801,
2,0,0,1,0,13013.9,0.0720215,0.0716764,-19.1647,7,0.00929741,10,-0.00137366,-1.7175,0.587325,0.100455,-75.1478,0.0716764,
2,0,0,1,0,13014,0.0620245,0.0617432,-18.334,7,0.00835975,10,-0.001132,-1.73674,0.516919,0.114138,-81.6711,0.06174317,
2,0,0,1,0,13014,0.0520275,0.0516833,-17.6303,7,0.00746144,10,-0.000911192,-1.75374,0.640301,0.0921441,-63.4095,0.0516833,
2,0,0,1,0,13014.1,0.0420486,0.0417041,-17.0578,7,0.00659617,10,-0.00071138,-1.76808,0.769839,0.0766394,-51.0238,0.0417041,
2,0,0,1,0,13014.1,0.0320607,0.0317622,-16.5166,7,0.00575855,10,-0.000524603,-1.78208,0.682878,0.0863991,-55.6767,0.03176219,
2,0,0,1,0,13014.2,0.0220637,0.021757,-15.8983,7,0.0049479,10,-0.000345898,-1.79865,0.520777,0.113292,-70.249,0.021757,
2,0,0,1,0,13014.2,0.0120848,0.0118047,-15.1163,7,0.00417353,10,-0.000178443,-1.82055,0.387834,0.152127,-89.7992,0.0118047,
2,0,0,1,0,13014.3,0.00210598,0.0016988,-14.2985,7,0.00344083,10,-2.42903e-05,-1.84471,0.436684,0.135109,-75.2038,0.0016988,
2,0,0,1,0,13014.3,-0.00789103,-0.0082214,-13.4891,7,0.00274707,10,0.000110899,-1.87002,0.477831,0.123475,-65.0987,-0.0082214,
2,0,0,1,0,13014.4,-0.017879,-0.018242,-13.0027,7,0.00208715,10,0.000237194,-1.88597,0.843471,0.069949,-35.4702,-0.018242,
2,0,0,1,0,13014.4,-0.0278578,-0.0282041,-12.7511,7,0.00144587,10,0.000359634,-1.89445,1.87245,0.0315095,-15.6964,-0.0282041,
2,0,0,1,0,13014.5,-0.0378548,-0.0381972,-12.734,7,0.000809527,10,0.000486404,-1.89503,-5.54713,-0.0106361,5.28337,-0.0381972,
2,0,0,1,0,13014.5,-0.0478519,-0.048166,-12.855,7,0.000170194,10,0.000619173,-1.89093,-1.24949,-0.0472193,23.7216,-0.048166,
2,0,0,1,0,13014.6,-0.0578126,-0.0581825,-13.1241,7,-0.000476629,10,0.00076359,-1.88193,-0.960619,-0.0614188,31.4506,-0.0581825,
2,0,0,1,0,13014.6,-0.0678187,-0.0681773,-13.4864,7,-0.00114152,10,0.00091947,-1.8701,-0.739465,-0.0797874,41.999,-0.0681773,
2,0,0,1,0,13014.7,-0.0778157,-0.0781704,-13.9531,7,-0.00182723,10,0.00109072,-1.85533,-0.645625,-0.0913843,49.7621,-0.0781704,
2,0,0,1,0,13014.7,-0.0877945,-0.0881748,-14.5289,7,-0.00253732,10,0.00128108,-1.83777,-0.526911,-0.111973,63.5075,-0.0881748,
2,0,0,1,0,13014.8,-0.0977734,-0.0981531,-15.204,7,-0.00327894,10,0.00149232,-1.81804,-0.47582,-0.123997,73.5843,-0.0981531,
2,0,0,1,1,13014.8,-0.0936874,-0.0940831,-6.22082,7,-0.00376684,10,0.000585274,-2.20615,-0.0145013,-4.06861,981.338,-0.0940831,
2,1,0,1,1,13014.9,-0.0837086,-0.0840944,0.727751,7,-0.00388322,10,-6.11998e-05,-3.13802,0.00547747,10.7714,499.495,-0.0840944,
2,1,0,1,1,13014.9,-0.0737025,-0.0740753,4.57394,7,-0.00374188,10,-0.000338816,-2.33971,0.0350649,1.68259,295.664,-0.0740753,
2,1,0,1,1,13015,-0.0637236,-0.0641168,6.87802,7,-0.00345144,10,-0.000440996,-2.16254,0.0886818,0.6653,178.094,-0.0641168,
2,1,0,1,1,13015,-0.0537447,-0.0540909,8.3011,7,-0.00306969,10,-0.000449013,-2.08086,0.173973,0.339134,109.591,-0.05409085,
2,1,0,1,1,13015.1,-0.0437477,-0.0441507,9.16132,7,-0.00263102,10,-0.000404478,-2.03804,0.324822,0.181638,64.966,-0.0441507,
2,1,0,1,1,13015.1,-0.0337507,-0.0341333,9.6839,7,-0.00215859,10,-0.000330544,-2.01395,0.585367,0.100791,38.0487,-0.0341333,
2,1,0,1,1,13015.2,-0.0237809,-0.024148,9.95092,7,-0.00166903,10,-0.000240295,-2.00214,1.10229,0.053525,20.7726,-0.02414804,
2,1,0,1,1,13015.2,-0.0137839,-0.0141819,10.0809,7,-0.00116793,10,-0.000142966,-1.9965,3.45463,0.0170785,6.71376,-0.0141819,
2,1,0,1,1,13015.3,-0.0037869,-0.00414019,10.1304,7,-0.000662619,10,-4.19416e-05,-1.99438,5.47728,0.0107718,4.25773,-0.00414019,
2,1,0,1,1,13015.3,-2.55332e-05,-0.000458935,10.1293,7,-0.000473099,10,-4.64867e-06,-1.99442, , , ,-0.000458935,