Folder: Figs_alphaMnO2_OER_Tafel_sleope/Figure_codes/Fig_3-5/rawdata_trumpetplot_data/after 10th (part 109)

File: 20221101_1-115_003_TrumpetPlot_ParaChange_from10_every3_08_CV_C01_9.csv
mode,ox/red,error,control changes,counter inc.,time/s,control/V,Ewe/V,<I>/mA,cycle number,(Q-Qo)/C,I Range,P/W,log(|I|),Tafel slope mV/dec,alpha_eff,dI/d(E-IR),E-IR/V,
2,0,0,0,0,18906.2,2.44065e-05,-0.00042076,-4.08477,10,0.0000000E+000,10,1.71871e-06,-2.38883, , , ,-0.00042076,
2,1,0,1,0,18906.3,0.0072942,0.00701886,1.27225,10,-5.06528e-05,10,8.92974e-06,-2.89543,0.00851652,6.92771,288.175,0.00701886,
2,1,0,1,0,18906.4,0.0147816,0.0144619,2.54819,10,0.000139486,10,3.68516e-05,-2.59377,0.0542433,1.08769,107.417,0.0144619,
2,1,0,1,0,18906.5,0.0222707,0.0219479,3.14288,10,0.000409917,10,6.89794e-05,-2.50267,0.115532,0.510683,62.5306,0.0219479,
2,1,0,1,0,18906.6,0.0297581,0.0293711,3.57421,10,0.000725928,10,0.000104979,-2.44682,0.166656,0.354023,49.2689,0.0293711,
2,1,0,1,0,18906.7,0.0372544,0.0369433,3.94165,10,0.001079,10,0.000145617,-2.40432,0.187875,0.314039,48.2892,0.0369433,
2,1,0,1,0,18906.8,0.0447507,0.0444368,4.28768,10,0.00146602,10,0.000190531,-2.36778,0.218985,0.269424,45.1572,0.0444368,
2,1,0,1,0,18906.8,0.0522381,0.0518993,4.63014,10,0.00188492,10,0.000240301,-2.33441,0.24183,0.243973,44.0748,0.0518993,
2,1,0,1,0,18906.9,0.0597273,0.059405,4.94953,10,0.0023346,10,0.000294027,-2.30544,0.261564,0.225566,43.5523,0.059405,
2,1,0,1,0,18907,0.0672147,0.0669104,5.24961,10,0.00281308,10,0.000351254,-2.27987,0.309246,0.190787,39.0539,0.0669104,
2,1,0,1,0,18907.1,0.0747038,0.0743804,5.51865,10,0.00331828,10,0.000410479,-2.25817,0.403555,0.146201,31.4679,0.07438039,
2,1,0,1,0,18907.2,0.0822055,0.0819073,5.75309,10,0.00384837,10,0.00047122,-2.2401,0.414301,0.142409,31.9973,0.0819073,
2,1,0,1,0,18907.3,0.0896946,0.0894266,5.9689,10,0.00439862,10,0.000533779,-2.22411,0.482452,0.122292,28.5457,0.0894266,
2,1,0,1,0,18907.4,0.097182,0.0968581,6.24501,10,0.00497111,10,0.000604879,-2.20447,0.349054,0.169028,41.2168,0.0968581,
2,1,0,1,0,18907.5,0.104671,0.104345,6.62788,10,0.00557321,10,0.000691586,-2.17863,0.242802,0.242996,62.8041,0.104345,
2,1,0,1,0,18907.6,0.112159,0.111821,7.12504,10,0.00621715,10,0.000796731,-2.14721,0.231318,0.255061,70.909,0.111821,
2,1,0,1,0,18907.7,0.119655,0.119335,7.64657,10,0.00691079,10,0.000912502,-2.11653,0.291348,0.202507,60.3862,0.119335,
2,1,0,1,0,18907.8,0.127149,0.126825,8.05247,10,0.00764841,10,0.00102125,-2.09407,0.405558,0.145479,45.7007,0.126825,
2,1,0,1,0,18907.9,0.134639,0.134345,8.35459,10,0.00841832,10,0.0011224,-2.07807,0.538762,0.10951,35.722,0.134345,
2,1,0,1,0,18908,0.142126,0.141807,8.56016,10,0.00921264,10,0.00121389,-2.06752,1.54106,0.0382854,12.7805,0.141807,
2,1,0,1,0,18908.1,0.149615,0.149276,8.42989,10,0.0100135,10,0.00125838,-2.07418,-0.323359,-0.18246,-59.8226,0.1492763,
2,1,0,1,0,18908.2,0.157103,0.156787,7.58019,10,0.0107697,10,0.00118848,-2.12032,-0.110742,-0.532768,-157.084,0.1567875,
2,1,0,1,0,18908.2,0.164606,0.164302,6.25136,10,0.0114199,10,0.00102711,-2.20403,-0.0847373,-0.696269,-170.104,0.164302,
2,1,0,1,0,18908.3,0.172095,0.171793,5.1806,10,0.0119524,10,0.000889989,-2.28562,-0.10367,-0.569114,-115.345,0.171793,
2,1,0,1,0,18908.4,0.179582,0.179278,4.51099,10,0.0124046,10,0.000808724,-2.34573,-0.15339,-0.38464,-67.9643,0.179278,
2,1,0,1,0,18908.5,0.18707,0.186681,4.10489,10,0.0128077,10,0.000766306,-2.3867,-0.22103,-0.266932,-42.8093,0.186681,
2,1,0,1,0,18908.6,0.194559,0.194232,3.84872,10,0.01318,10,0.000747544,-2.41468,-0.297426,-0.198369,-29.7709,0.194232,
2,1,0,1,0,18908.7,0.202062,0.201745,3.65717,10,0.0135323,10,0.000737815,-2.43685,-0.452965,-0.130253,-18.5941,0.201745,
2,1,0,1,0,18908.8,0.20955,0.209237,3.53001,10,0.0138696,10,0.00073861,-2.45222,-0.488292,-0.120829,-16.6767,0.209237,
2,1,0,1,0,18908.9,0.217039,0.216695,3.43367,10,0.0141966,10,0.00074406,-2.46424,-0.702614,-0.0839722,-11.277,0.2166951,
2,1,0,1,0,18909,0.224526,0.224221,3.3693,10,0.014516,10,0.000755467,-2.47246,-0.989251,-0.0596411,-7.83424,0.224221,
2,1,0,1,0,18909.1,0.232016,0.231665,3.30513,10,0.0148296,10,0.000765684,-2.48081,-1.25496,-0.0470136,-6.07345,0.231665,
2,1,0,1,0,18909.2,0.23951,0.239253,3.26895,10,0.0151387,10,0.000782107,-2.48559,-1.35048,-0.0436882,-5.56898,0.239253,
2,1,0,1,0,18909.3,0.247006,0.246758,3.23486,10,0.0154439,10,0.000798226,-2.49015,-1.81281,-0.0325461,-4.09551,0.246758,
2,1,0,1,0,18909.4,0.254494,0.254211,3.18841,10,0.0157453,10,0.00081053,-2.49643,-1.50568,-0.0391849,-4.87808,0.254211,
2,1,0,1,0,18909.5,0.261983,0.26167,3.16003,10,0.0160436,10,0.000826885,-2.50031,-1.04805,-0.0562949,-6.94454,0.26167,
2,1,0,1,0,18909.6,0.26947,0.269154,3.13272,10,0.0163389,10,0.000843185,-2.50408,-2.40742,-0.0245075,-2.99401,0.269154,
2,1,0,1,0,18909.7,0.276959,0.276642,3.09371,10,0.0166315,10,0.000855851,-2.50952,-3.54361,-0.0166497,-2.01347,0.276642,
2,1,0,1,0,18909.7,0.284461,0.284175,3.06651,10,0.0169219,10,0.000871423,-2.51336,-1.22479,-0.0481717,-5.7669,0.284175,
2,1,0,1,0,18909.8,0.29195,0.291641,3.04135,10,0.0172087,10,0.000886981,-2.51693,-1.868,-0.0315847,-3.74092,0.291641,
2,1,0,1,0,18909.9,0.299438,0.299129,2.99923,10,0.0174927,10,0.000897157,-2.52299,-0.0266447,-2.21432,-236.292,0.299129,
2,0,0,1,0,18910,0.29424,0.293913,-0.547956,10,0.0175503,10,-0.000161051,-3.26125,-0.0041898,-14.0818,176.629,0.293913,
2,0,0,1,0,18910.1,0.286753,0.286451,-1.17547,10,0.0174626,10,-0.000336716,-2.92979,-0.0522159,-1.12992,51.4072,0.286451,
2,0,0,1,0,18910.2,0.279264,0.278956,-1.44628,10,0.0173375,10,-0.000403448,-2.83975,-0.123971,-0.475917,26.9017,0.278956,
2,0,0,1,0,18910.3,0.271776,0.271457,-1.6352,10,0.0171918,10,-0.000443887,-2.78643,-0.163655,-0.360514,23.0117,0.271457,
2,0,0,1,0,18910.4,0.26428,0.263992,-1.78062,10,0.0170305,10,-0.000470071,-2.74943,-0.210257,-0.280609,19.4731,0.263992,
2,0,0,1,0,18910.5,0.256786,0.256432,-1.89414,10,0.016857,10,-0.000485719,-2.72259,-0.304922,-0.193492,14.3313,0.256432,
2,0,0,1,0,18910.6,0.249296,0.249015,-2.00198,10,0.0166732,10,-0.000498523,-2.69854,-0.446524,-0.132132,10.3391,0.249015,
2,0,0,1,0,18910.7,0.241809,0.241455,-2.10318,10,0.01648,10,-0.000507825,-2.67712,-0.38232,-0.154321,12.6551,0.241455,
2,0,0,1,0,18910.8,0.23432,0.233977,-2.18347,10,0.0162784,10,-0.000510882,-2.66085,-0.427998,-0.137851,11.7832,0.233977,
2,0,0,1,0,18910.9,0.226833,0.226521,-2.27708,10,0.0160686,10,-0.000515806,-2.64262,-0.455939,-0.129403,11.4575,0.226521,
2,0,0,1,0,18911,0.219329,0.219027,-2.36135,10,0.0158507,10,-0.000517199,-2.62684,-0.415841,-0.141881,13.0365,0.219027,
2,0,0,1,0,18911,0.21184,0.211535,-2.43284,10,0.0156255,10,-0.000514629,-2.61389,-0.536155,-0.110043,10.4521,0.211535,
2,0,0,1,0,18911.1,0.204353,0.204015,-2.52348,10,0.0153925,10,-0.000514828,-2.598,-0.842531,-0.0700271,6.89655,0.204015,
2,0,0,1,0,18911.2,0.196863,0.196558,-2.60601,10,0.0151517,10,-0.000512232,-2.58402,-0.501535,-0.117639,11.9605,0.196558,
2,0,0,1,0,18911.3,0.189376,0.189048,-2.6984,10,0.0149022,10,-0.000510127,-2.56889,-0.39945,-0.147703,15.6024,0.189048,
2,0,0,1,0,18911.4,0.18188,0.181581,-2.8147,10,0.0146429,10,-0.000511097,-2.55057,-0.418118,-0.141108,15.507,0.181581,
2,0,0,1,0,18911.5,0.174385,0.174034,-2.95242,10,0.0143721,10,-0.000513821,-2.52982,-0.345387,-0.170823,19.6676,0.174034,
2,0,0,1,0,18911.6,0.166896,0.166534,-3.12475,10,0.0140873,10,-0.000520376,-2.50518,-0.251221,-0.234853,28.6401,0.166534,
2,0,0,1,0,18911.7,0.159409,0.159041,-3.36502,10,0.013783,10,-0.000535178,-2.47301,-0.217611,-0.271125,35.68,0.159041,
2,0,0,1,0,18911.8,0.151919,0.151581,-3.73533,10,0.0134507,10,-0.000566206,-2.42767,-0.144298,-0.408875,59.7944,0.151581,
2,0,0,1,0,18911.9,0.144425,0.144128,-4.31601,10,0.0130744,10,-0.00062206,-2.36492,-0.0999487,-0.590303,99.6616,0.144128,
2,0,0,1,0,18912,0.136929,0.136602,-5.19064,10,0.0126298,10,-0.000709052,-2.28478,-0.0884901,-0.666741,135.162,0.136602,
2,0,0,1,0,18912.1,0.129441,0.129116,-6.26235,10,0.0120936,10,-0.000808568,-2.20326,-0.100671,-0.586069,143.026,0.129116,
2,0,0,1,0,18912.2,0.121952,0.121627,-7.26777,10,0.0114583,10,-0.000883954,-2.1386,-0.138093,-0.427248,120.847,0.121627,
2,0,0,1,0,18912.3,0.114465,0.11414,-8.02528,10,0.0107393,10,-0.000916003,-2.09554,-0.224371,-0.262958,82.3396,0.11414,
2,0,0,1,0,18912.4,0.106976,0.106656,-8.52426,10,0.00996139,10,-0.000909166,-2.06934,-0.453814,-0.130009,43.1782,0.106656,
2,0,0,1,0,18912.4,0.0994721,0.0991486,-8.70102,10,0.00915015,10,-0.000862694,-2.06043,-2.86678,-0.0205806,6.98223,0.0991486,
2,0,0,1,0,18912.5,0.0919847,0.0916445,-8.56821,10,0.00833851,10,-0.00078523,-2.06711,0.562899,0.104814,-35.0523,0.0916445,
2,0,0,1,0,18912.6,0.0844973,0.0841729,-8.23145,10,0.00755045,10,-0.000692865,-2.08452,0.346609,0.170221,-54.612,0.0841729,
2,0,0,1,0,18912.7,0.0770082,0.0766426,-7.84651,10,0.00679808,10,-0.000601377,-2.10532,0.417059,0.141467,-43.3245,0.07664258,
2,0,0,1,0,18912.8,0.0695208,0.0691764,-7.56053,10,0.00607682,10,-0.00052301,-2.12145,0.553871,0.106523,-31.4492,0.0691764,
2,0,0,1,0,18912.9,0.0620245,0.0617193,-7.35503,10,0.00537712,10,-0.000453947,-2.13342,0.609632,0.0967797,-27.791,0.06171931,
2,0,0,1,0,18913,0.0545282,0.0542075,-7.1767,10,0.00469548,10,-0.000389031,-2.14408,0.848832,0.0695073,-19.4623,0.0542075,
2,0,0,1,0,18913.1,0.0470408,0.0466953,-6.97596,10,0.00403188,10,-0.000325744,-2.1564,0.663864,0.0888736,-24.2067,0.0466953,
2,0,0,1,0,18913.2,0.0395517,0.0392355,-6.78503,10,0.00338684,10,-0.000266214,-2.16845,0.536776,0.109915,-29.0616,0.0392355,
2,0,0,1,0,18913.3,0.0320643,0.0317741,-6.54641,10,0.00276218,10,-0.000208006,-2.184,0.441004,0.133786,-34.158,0.0317741,
2,0,0,1,0,18913.4,0.0245751,0.0242827,-6.26979,10,0.00216137,10,-0.000152247,-2.20275,0.386563,0.152627,-37.3672,0.0242827,
2,0,0,1,0,18913.5,0.0170735,0.0167432,-5.9928,10,0.00158529,10,-0.000100339,-2.22237,0.371711,0.158726,-37.1428,0.01674317,
2,0,0,1,0,18913.6,0.00958429,0.00928548,-5.75261,10,0.00103518,10,-5.34157e-05,-2.24014,0.475127,0.124177,-27.8582,0.00928548,
2,0,0,1,0,18913.7,0.0020969,0.00173917,-5.60329,10,0.00050558,10,-9.7451e-06,-2.25156,1.16142,0.0507999,-11.0431,0.00173917,
2,0,0,1,0,18913.7,0.000199195,-0.000159264,-5.54828,10,0.000373236,10,8.8364e-07,-2.25584, , , ,-0.000159264,

File: 20221101_1-115_003_TrumpetPlot_ParaChange_from10_every3_08_CV_C01_10.csv
mode,ox/red,error,control changes,counter inc.,time/s,control/V,Ewe/V,<I>/mA,cycle number,(Q-Qo)/C,I Range,P/W,log(|I|),Tafel slope mV/dec,alpha_eff,dI/d(E-IR),E-IR/V,
2,0,0,0,0,20876.3,2.44065e-05,-0.000325324,-4.04279,11,0.0000000E+000,10,1.31522e-06,-2.39332, , , ,-0.000325324,
2,1,0,1,0,20876.4,0.0072942,0.00695922,1.14521,11,-5.75577e-05,10,7.96974e-06,-2.94112,0.00747014,7.89811,288.126,0.00695922,
2,1,0,1,0,20876.5,0.0147816,0.0144346,2.43745,11,0.000121168,10,3.51836e-05,-2.61306,0.0528684,1.11598,104.862,0.0144346,
2,1,0,1,0,20876.6,0.0222707,0.0219997,3.0271,11,0.000380072,10,6.65952e-05,-2.51897,0.105923,0.557009,65.5811,0.02199968,
2,1,0,1,0,20876.7,0.0297581,0.0294645,3.43873,11,0.000684329,10,0.00010132,-2.4636,0.161673,0.364933,48.96,0.0294645,
2,1,0,1,0,20876.8,0.0372544,0.0368953,3.81245,11,0.00102534,10,0.000140662,-2.4188,0.19884,0.296721,44.0954,0.0368953,
2,1,0,1,0,20876.9,0.0447507,0.0444389,4.15427,11,0.00139979,10,0.000184611,-2.38151,0.20262,0.291185,47.2467,0.0444389,
2,1,0,1,0,20877,0.0522381,0.0519446,4.47881,11,0.00180564,10,0.00023265,-2.34884,0.24613,0.23971,41.9785,0.0519446,
2,1,0,1,0,20877.1,0.0597273,0.0594207,4.80556,11,0.00224174,10,0.00028555,-2.31826,0.287824,0.204986,38.4068,0.0594207,
2,1,0,1,0,20877.2,0.0672147,0.0669019,5.10255,11,0.00270621,10,0.00034137,-2.29221,0.286114,0.206212,40.9769,0.0669019,
2,1,0,1,0,20877.3,0.0747038,0.0743777,5.35621,11,0.00319697,10,0.000398382,-2.27114,0.36595,0.161224,33.733,0.0743777,
2,1,0,1,0,20877.3,0.0822055,0.0818558,5.5965,11,0.00371213,10,0.000458106,-2.25208,0.484193,0.121852,26.6022,0.0818558,
2,1,0,1,0,20877.4,0.0896946,0.0893667,5.80833,11,0.00424685,10,0.000519071,-2.23595,0.459394,0.12843,29.1348,0.0893667,
2,1,0,1,0,20877.5,0.097182,0.0968813,6.06255,11,0.00480309,10,0.000587347,-2.21734,0.329513,0.179052,42.3894,0.0968813,
2,1,0,1,0,20877.6,0.104671,0.104358,6.4329,11,0.00538796,10,0.000671325,-2.19159,0.262412,0.224837,56.4545,0.104358,
2,1,0,1,0,20877.7,0.112159,0.111852,6.92318,11,0.00601319,10,0.000774372,-2.15969,0.227835,0.258959,69.9278,0.1118522,
2,1,0,1,0,20877.8,0.119655,0.119335,7.42767,11,0.0066868,10,0.000886381,-2.12915,0.270235,0.218328,63.2471,0.119335,
2,1,0,1,0,20877.9,0.127149,0.126866,7.82645,11,0.00740364,10,0.000992909,-2.10643,0.417231,0.141408,43.187,0.126866,
2,1,0,1,0,20878,0.134639,0.134293,8.13155,11,0.00815222,10,0.00109201,-2.08983,0.559342,0.105481,33.4517,0.134293,
2,1,0,1,0,20878.1,0.142126,0.141796,8.32099,11,0.00892452,10,0.00117988,-2.07983,1.17218,0.0503336,16.3354,0.141796,
2,1,0,1,0,20878.2,0.149615,0.149272,8.19243,11,0.00970307,10,0.0012229,-2.08659,-0.309552,-0.190598,-60.7216,0.149272,
2,1,0,1,0,20878.3,0.157103,0.156799,7.37232,11,0.0104382,10,0.00115597,-2.1324,-0.107472,-0.548979,-157.279,0.156799,
2,1,0,1,0,20878.4,0.164606,0.164292,6.05307,11,0.011069,10,0.000994468,-2.21802,-0.0831606,-0.70947,-167.63,0.164292,
2,1,0,1,0,20878.5,0.172095,0.17175,4.9672,11,0.011582,10,0.000853115,-2.30389,-0.100049,-0.589712,-114.586,0.17175,
2,1,0,1,0,20878.6,0.179582,0.179269,4.31462,11,0.0120147,10,0.000773477,-2.36506,-0.150467,-0.392113,-66.1984,0.179269,
2,1,0,1,0,20878.7,0.18707,0.186823,3.93132,11,0.0124001,10,0.000734461,-2.40546,-0.248292,-0.237623,-36.498,0.1868231,
2,1,0,1,0,20878.8,0.194559,0.194282,3.68991,11,0.012757,10,0.000716883,-2.43298,-0.34356,-0.171731,-24.7712,0.194282,
2,1,0,1,0,20878.8,0.202062,0.201737,3.53715,11,0.0130965,10,0.000713574,-2.45135,-0.431781,-0.136643,-18.8542,0.201737,
2,1,0,1,0,20878.9,0.20955,0.209278,3.43705,11,0.0134234,10,0.000719297,-2.46381,-0.554735,-0.106357,-14.2515,0.209278,
2,1,0,1,0,20879,0.217039,0.216762,3.34577,11,0.0137418,10,0.000725234,-2.4755,-0.85627,-0.0689035,-9.02325,0.216762,
2,1,0,1,0,20879.1,0.224526,0.224227,3.29148,11,0.0140539,10,0.000738038,-2.48261,-0.805881,-0.0732118,-9.42745,0.224227,
2,1,0,1,0,20879.2,0.232016,0.231717,3.2559,11,0.0143611,10,0.000754449,-2.48733,-3.25309,-0.0181366,-2.29838,0.2317175,
2,1,0,1,0,20879.3,0.23951,0.239201,3.20568,11,0.0146649,10,0.000766803,-2.49408,-2.6941,-0.0218997,-2.74465,0.239201,
2,1,0,1,0,20879.4,0.247006,0.246698,3.17688,11,0.0149653,10,0.00078373,-2.498,-1.13357,-0.0520482,-6.45389,0.246698,
2,1,0,1,0,20879.5,0.254494,0.25418,3.14987,11,0.0152625,10,0.000800634,-2.50171,-1.7581,-0.033559,-4.12397,0.25418,
2,1,0,1,0,20879.6,0.261983,0.261713,3.11381,11,0.0155569,10,0.000814922,-2.50671,-2.13627,-0.0276183,-3.36393,0.261713,
2,1,0,1,0,20879.7,0.26947,0.269164,3.08768,11,0.0158488,10,0.000831093,-2.51037,-1.4778,-0.0399241,-4.82158,0.269164,
2,1,0,1,0,20879.8,0.276959,0.276642,3.06558,11,0.0161382,10,0.000848069,-2.51349,-1.65195,-0.0357153,-4.27408,0.276642,
2,1,0,1,0,20879.9,0.284461,0.284129,3.03896,11,0.0164256,10,0.000863457,-2.51728,-3.28477,-0.0179617,-2.12944,0.284129,
2,1,0,1,0,20880,0.29195,0.291669,3.00364,11,0.0167096,10,0.00087607,-2.52235,-1.1696,-0.0504446,-5.91991,0.291669,
2,1,0,1,0,20880.1,0.299438,0.299182,2.98152,11,0.016991,10,0.000892017,-2.52556,-0.0269875,-2.1862,-232.125,0.299182,
2,0,0,1,0,20880.1,0.29424,0.293954,-0.45961,11,0.0170528,10,-0.000135104,-3.33761,-0.00208336,-28.3196,178.358,0.293954,
2,0,0,1,0,20880.2,0.286753,0.286447,-1.10982,11,0.0169717,10,-0.000317905,-2.95475,-0.0535407,-1.10197,47.2877,0.286447,
2,0,0,1,0,20880.3,0.279264,0.278952,-1.38409,11,0.016853,10,-0.000386095,-2.85884,-0.109174,-0.540423,29.0607,0.278952,
2,0,0,1,0,20880.4,0.271776,0.271483,-1.55703,11,0.0167139,10,-0.000422707,-2.8077,-0.151249,-0.390086,23.7635,0.271483,
2,0,0,1,0,20880.5,0.26428,0.263975,-1.70389,11,0.0165596,10,-0.000449784,-2.76856,-0.250304,-0.235713,15.696,0.263975,
2,0,0,1,0,20880.6,0.256786,0.25646,-1.83182,11,0.016393,10,-0.000469788,-2.73712,-0.277238,-0.212813,15.1663,0.25646,
2,0,0,1,0,20880.7,0.249296,0.249027,-1.93161,11,0.016216,10,-0.000481023,-2.71408,-0.312816,-0.18861,14.2239,0.249027,
2,0,0,1,0,20880.8,0.241809,0.241539,-2.01669,11,0.0160296,10,-0.00048711,-2.69536,-0.458973,-0.128548,10.1694,0.241539,
2,0,0,1,0,20880.9,0.23432,0.233978,-2.12359,11,0.0158346,10,-0.000496874,-2.67293,-0.423287,-0.139385,11.5367,0.233978,
2,0,0,1,0,20881,0.226833,0.226469,-2.19741,11,0.0156315,10,-0.000497646,-2.65809,-0.334282,-0.176498,15.1561,0.226469,
2,0,0,1,0,20881.1,0.219329,0.219025,-2.28579,11,0.0154202,10,-0.000500646,-2.64096,-0.577487,-0.102167,9.1027,0.219025,
2,0,0,1,0,20881.2,0.21184,0.211497,-2.3735,11,0.0152015,10,-0.000501988,-2.62461,-0.700912,-0.0841761,7.76099,0.211497,
2,0,0,1,0,20881.3,0.204353,0.204007,-2.4503,11,0.0149753,10,-0.00049988,-2.61078,-0.486522,-0.121269,11.5986,0.204007,
2,0,0,1,0,20881.4,0.196863,0.196487,-2.53114,11,0.0147412,10,-0.000497336,-2.59668,-0.528329,-0.111673,11.0449,0.196487,
2,0,0,1,0,20881.5,0.189376,0.189048,-2.6275,11,0.0144986,10,-0.000496723,-2.58046,-0.483292,-0.12208,12.5469,0.189048,
2,0,0,1,0,20881.5,0.18188,0.18154,-2.74057,11,0.0142465,10,-0.000497523,-2.56216,-0.330308,-0.178621,19.0786,0.18154,
2,0,0,1,0,20881.6,0.174385,0.17404,-2.8616,11,0.0139832,10,-0.000498032,-2.54339,-0.337121,-0.175011,19.5973,0.17404,
2,0,0,1,0,20881.7,0.166896,0.16654,-3.04013,11,0.0137065,10,-0.000506303,-2.51711,-0.2967,-0.198854,23.517,0.1665401,
2,0,0,1,0,20881.8,0.159409,0.159109,-3.26521,11,0.0134115,10,-0.000519526,-2.48609,-0.199124,-0.296297,37.7698,0.159109,
2,0,0,1,0,20881.9,0.151919,0.151577,-3.60306,11,0.01309,10,-0.00054614,-2.44333,-0.140383,-0.42028,59.3233,0.151577,
2,0,0,1,0,20882,0.144425,0.144079,-4.16516,11,0.0127268,10,-0.000600113,-2.38037,-0.105218,-0.560741,91.2355,0.1440791,
2,0,0,1,0,20882.1,0.136929,0.136578,-4.99592,11,0.0122989,10,-0.000682333,-2.30138,-0.0885242,-0.666485,129.983,0.136578,
2,0,0,1,0,20882.2,0.129441,0.129089,-6.00916,11,0.0117833,10,-0.000775717,-2.22119,-0.0957266,-0.616339,144.493,0.129089,
2,0,0,1,0,20882.3,0.121952,0.121596,-6.99075,11,0.0111723,10,-0.00085005,-2.15548,-0.139788,-0.422069,114.935,0.121596,
2,0,0,1,0,20882.4,0.114465,0.114121,-7.74856,11,0.0104798,10,-0.00088427,-2.11078,-0.215357,-0.273964,82.6976,0.114121,
2,0,0,1,0,20882.5,0.106976,0.106612,-8.22547,11,0.00972927,10,-0.000876931,-2.08484,-0.408281,-0.144508,46.3433,0.106612,
2,0,0,1,0,20882.6,0.0994721,0.0991387,-8.42719,11,0.00894483,10,-0.00083546,-2.07432,-5.95931,-0.00990048,3.25137,0.0991387,
2,0,0,1,0,20882.7,0.0919847,0.0916704,-8.32462,11,0.00815808,10,-0.000763122,-2.07964,0.619674,0.0952113,-30.8852,0.0916704,
2,0,0,1,0,20882.8,0.0844973,0.0841541,-7.99512,11,0.00739253,10,-0.000672823,-2.09717,0.381693,0.154574,-48.2091,0.0841541,
2,0,0,1,0,20882.9,0.0770082,0.0766555,-7.63081,11,0.00666064,10,-0.000584944,-2.11743,0.392455,0.150336,-44.8315,0.0766555,
2,0,0,1,0,20883,0.0695208,0.0691948,-7.3736,11,0.00595822,10,-0.000510215,-2.13232,0.548496,0.107567,-30.9479,0.0691948,
2,0,0,1,0,20883,0.0620245,0.0616969,-7.17225,11,0.0052762,10,-0.000442506,-2.14434,0.722319,0.0816814,-22.8758,0.0616969,
2,0,0,1,0,20883.1,0.0545282,0.0541935,-6.99649,11,0.00461124,10,-0.000379164,-2.15512,0.731264,0.0806822,-22.0519,0.0541935,
2,0,0,1,0,20883.2,0.0470408,0.0466431,-6.82252,11,0.00396338,10,-0.000318224,-2.16605,0.642221,0.0918686,-24.4577,0.0466431,
2,0,0,1,0,20883.3,0.0395517,0.0391974,-6.6292,11,0.00333299,10,-0.000259847,-2.17854,0.631206,0.0934719,-24.1684,0.0391974,
2,0,0,1,0,20883.4,0.0320643,0.0317342,-6.40033,11,0.00272182,10,-0.00020311,-2.1938,0.441103,0.133756,-33.4346,0.0317342,
2,0,0,1,0,20883.5,0.0245751,0.0242329,-6.15279,11,0.0021329,10,-0.0001491,-2.21093,0.371837,0.158672,-38.1066,0.0242329,
2,0,0,1,0,20883.6,0.0170735,0.0167783,-5.88973,11,0.0015674,10,-9.88195e-05,-2.2299,0.411846,0.143257,-32.952,0.0167783,
2,0,0,1,0,20883.7,0.00958429,0.00924151,-5.64711,11,0.00102657,10,-5.21879e-05,-2.24817,0.495099,0.119168,-26.3088,0.00924151,
2,0,0,1,0,20883.8,0.0020969,0.00172418,-5.51739,11,0.000505365,10,-9.51296e-06,-2.25827,0.810599,0.0727857,-15.5872,0.001724177,
2,0,0,1,0,20883.8,0.000199195,-0.00019553,-5.45644,11,0.000375062,10,1.0669e-06,-2.26309, , , ,-0.00019553,