Folder: Figs_alphaMnO2_OER_Tafel_sleope/Figure_codes/Fig_3-5/rawdata_trumpetplot_data/after 10th (part 174)

File: 20221101_1-115_003_TrumpetPlot_ParaChange_from10_every3_12_CV_C01.mpt
EC-Lab ASCII FILE
Nb header lines : 94

Cyclic Voltammetry

Run on channel : 1 (SN 65296)
User :
CE vs. WE compliance from -10 V to 10 V
Electrode connection : standard
Potential control : Ewe
Ewe ctrl range : min = -1.00 V, max = 1.00 V
Safety Limits :
	Do not start on E overload
Acquisition started on : 11/08/2022 20:18:53.442
Loaded Setting File :  NONE
Saved on :
	File : 20221101_1-115_003_TrumpetPlot_ParaChange_from10_every3_12_CV_C01.mpr
	Directory : C:\Users\NakamuraT\Documents\EC-Lab\Data\Yatsuzuka\20221108_1-115_001_TrumpetPlot\
	Host : 192.109.209.100
Device : SP-50e (SN .003219)
Address : 192.109.209.128
EC-Lab for windows v11.43 (software)
Internet server v11.40 (firmware)
Command interpretor v11.40 (firmware)
Electrode material :
Initial state :
Electrolyte :
Comments :
Electrode surface area : 0.000 cm2
Characteristic mass : 0.001 g
Equivalent Weight : 0.000 g/eq.
Density : 0.000 g/cm3
Volume (V) : 0.001 cm3
Cycle Definition : Charge/Discharge alternance
Ei (V)              0.000
vs.                 Ref
dE/dt               600.000
dE/dt unit          mV/s
E1 (V)              0.300
vs.                 Ref
Step percent        50
N                   10
E range min (V)     -1.000
E range max (V)     1.000
I Range             100 mA
I Range min         Unset
I Range max         Unset
I Range init        Unset
Bandwidth           5
E2 (V)              -0.100
vs.                 Ref
nc cycles           0
Reverse Scan        1
Ef (V)              0.000
vs.                 Ref

Number of loops : 35
Loop 0 from point number 0 to 675
Loop 1 from point number 676 to 1351
Loop 2 from point number 1352 to 2027
Loop 3 from point number 2028 to 2703
Loop 4 from point number 2704 to 3379
Loop 5 from point number 3380 to 4055
Loop 6 from point number 4056 to 4731
Loop 7 from point number 4732 to 5407
Loop 8 from point number 5408 to 6083
Loop 9 from point number 6084 to 6759
Loop 10 from point number 6760 to 7435
Loop 11 from point number 7436 to 8111
Loop 12 from point number 8112 to 8787
Loop 13 from point number 8788 to 9463
Loop 14 from point number 9464 to 10139
Loop 15 from point number 10140 to 10815
Loop 16 from point number 10816 to 11491
Loop 17 from point number 11492 to 12167
Loop 18 from point number 12168 to 12843
Loop 19 from point number 12844 to 13519
Loop 20 from point number 13520 to 14195
Loop 21 from point number 14196 to 14871
Loop 22 from point number 14872 to 15547
Loop 23 from point number 15548 to 16223
Loop 24 from point number 16224 to 16899
Loop 25 from point number 16900 to 17575
Loop 26 from point number 17576 to 18251
Loop 27 from point number 18252 to 18927
Loop 28 from point number 18928 to 19603
Loop 29 from point number 19604 to 20279
Loop 30 from point number 20280 to 20955
Loop 31 from point number 20956 to 21631
Loop 32 from point number 21632 to 22307
Loop 33 from point number 22308 to 22983
Loop 34 from point number 22984 to 23659

mode	ox/red	error	control changes	counter inc.	time/s	control/V	Ewe/V	<I>/mA	cycle number	(Q-Qo)/C	I Range	P/W
2	1	0	0	0	1196.52	2.44065e-05	-0.000287149	20.3897	1	0.0000000E+000	10	-5.85489e-06
2	1	0	1	0	1196.87	0.209602	0.209324	57.5308	1	0.0146189	10	0.0120426
2	0	0	1	0	1197.22	0.184041	0.183767	-18.3784	1	0.017555	10	-0.00337734
2	0	0	1	0	1197.57	-0.0259553	-0.0262989	-40.6014	1	0.00235678	10	0.00106777
2	1	0	1	0	3166.7	0.0284012	0.0280427	27.0523	2	0.00114481	10	0.00075862
2	1	0	1	0	3167.05	0.238406	0.23813	34.4648	2	0.0163322	10	0.00820712
2	0	0	1	0	3167.39	0.155248	0.154929	-21.917	2	0.0162271	10	-0.00339557
2	0	0	1	0	3167.74	-0.0547594	-0.0551197	-37.3219	2	0.000775584	10	0.00205717
2	1	0	1	0	5136.88	0.0572053	0.0568422	30.2746	3	0.00247754	10	0.00172087
2	1	0	1	0	5137.23	0.267202	0.26688	25.985	3	0.0172785	10	0.00693487
2	0	0	1	0	5137.57	0.126441	0.126138	-29.921	3	0.0148029	10	-0.00377417
2	0	0	1	0	5137.92	-0.0835552	-0.0838971	-37.465	3	-0.000727558	10	0.0031432
2	1	0	1	0	7107.06	0.0860011	0.0855931	35.5486	4	0.00409875	10	0.00304271
2	1	0	1	0	7107.41	0.296006	0.295638	23.0922	4	0.0184615	10	0.00682694
2	0	0	1	0	7107.75	0.0976454	0.0973784	-42.2006	4	0.0131145	10	-0.00410943
2	0	0	1	1	7108.09	-0.0919534	-0.0923941	-21.2258	4	-0.00212523	10	0.00196114
2	1	0	1	0	9077.23	0.114805	0.114466	40.3469	5	0.00585516	10	0.00461834
2	0	0	1	0	9077.58	0.278849	0.278561	-2.83868	5	0.0184401	10	-0.000790743
2	0	0	1	0	9077.93	0.0688413	0.0685894	-49.6836	5	0.0106408	10	-0.00340777
2	1	0	1	1	9078.27	-0.0631604	-0.0636348	8.00132	5	-0.00223262	10	-0.000509162
2	1	0	1	0	11047.4	0.143601	0.143236	45.6942	6	0.00783744	10	0.00654504
2	0	0	1	0	11047.8	0.250042	0.249684	-10.3037	6	0.0181418	10	-0.00257266
2	0	0	1	0	11048.1	0.0400455	0.0397294	-49.7939	6	0.00855658	10	-0.00197828
2	1	0	1	1	11048.4	-0.0343535	-0.0347652	18.839	6	-0.00142419	10	-0.000654943
2	1	0	1	0	13017.6	0.172405	0.172087	49.354	7	0.00968127	10	0.00849319
2	0	0	1	0	13017.9	0.221246	0.220928	-12.5646	7	0.0170733	10	-0.00277588
2	0	0	1	0	13018.3	0.0112414	0.0109807	-45.8839	7	0.00640727	10	-0.000503839
2	1	0	1	1	13018.6	-0.00555774	-0.00591791	22.9083	7	-0.000257055	10	-0.000135569
2	1	0	1	0	14987.8	0.201201	0.200896	49.106	8	0.0124549	10	0.00986521
2	0	0	1	0	14988.1	0.192442	0.192117	-15.6542	8	0.0162958	10	-0.00300743
2	0	0	1	0	14988.5	-0.0175544	-0.017945	-42.4924	8	0.00386116	10	0.000762529
2	1	0	1	0	16957.6	0.0200003	0.0196644	24.8942	9	0.000747133	10	0.000489529
2	1	0	1	0	16957.9	0.230008	0.229701	36.4746	9	0.0147513	10	0.00837827
2	0	0	1	0	16958.3	0.163646	0.163314	-18.6887	9	0.0156996	10	-0.00305213
2	0	0	1	0	16958.6	-0.0463585	-0.04668	-38.7551	9	0.001944	10	0.00180909
2	1	0	1	0	18927.8	0.0488044	0.0484756	27.2241	10	0.00190093	10	0.00131971
2	1	0	1	0	18928.1	0.258801	0.258467	29.3235	10	0.015542	10	0.00757916
2	0	0	1	0	18928.5	0.134842	0.134542	-22.2045	10	0.0145974	10	-0.00298745
2	0	0	1	0	18928.8	-0.0751542	-0.0755294	-36.9687	10	0.000758508	10	0.00279223
2	1	0	1	0	20898	0.0776001	0.0772021	30.3612	11	0.00321139	10	0.00234395
2	1	0	1	0	20898.3	0.287608	0.287255	24.2625	11	0.0163902	10	0.00696953
2	0	0	1	0	20898.6	0.106046	0.105779	-30.8109	11	0.0129838	10	-0.00325914
2	0	0	1	1	20899	-0.0999548	-0.100362	-36.046	11	-0.000705953	10	0.00361765
2	1	0	1	0	22868.1	0.106407	0.106039	36.2968	12	0.0050109	10	0.00384887
2	1	0	1	0	22868.5	0.287247	0.286959	5.71719	12	0.0176778	10	0.0016406
2	0	0	1	0	22868.8	0.0772422	0.07699	-41.9707	12	0.0113714	10	-0.00323132
2	0	0	1	1	22869.2	-0.0715586	-0.0719335	-1.87982	12	-0.00168952	10	0.000135222
2	1	0	1	0	24838.3	0.1352	0.134812	39.9255	13	0.00663507	10	0.00538243
2	0	0	1	0	24838.7	0.258443	0.258182	-6.21191	13	0.0172061	10	-0.0016038
2	0	0	1	0	24839	0.0484465	0.0481225	-43.937	13	0.00924295	10	-0.00211436
2	1	0	1	1	24839.3	-0.0427545	-0.0432061	11.6792	13	-0.00123186	10	-0.000504614
2	1	0	1	0	26808.5	0.164007	0.163672	45.5105	14	0.00873578	10	0.00744878
2	0	0	1	0	26808.8	0.229647	0.229353	-11.3436	14	0.0169365	10	-0.00260168
2	0	0	1	0	26809.2	0.0196396	0.0192742	-44.3095	14	0.00723249	10	-0.000854028
2	1	0	1	1	26809.5	-0.0139587	-0.01438	19.6273	14	-0.000469884	10	-0.00028224
2	1	0	1	0	28778.7	0.192803	0.192472	44.8424	15	0.0101371	10	0.00863093
2	0	0	1	0	28779	0.200843	0.200527	-12.77	15	0.0156758	10	-0.00256073
2	0	0	1	0	28779.4	-0.0091534	-0.00950845	-40.6002	15	0.00540515	10	0.000386045
[...]
2	0	0	1	0	44540.4	-0.0295593	-0.0299223	-38.2614	23	0.00418363	10	0.00114487
2	1	0	1	0	46509.6	0.0320052	0.0316491	22.1416	24	0.00103063	10	0.000700763
2	1	0	1	0	46509.9	0.242001	0.241683	34.3339	24	0.0130042	10	0.00829791
2	0	0	1	0	46510.3	0.151641	0.151355	-16.9838	24	0.0142306	10	-0.00257058
2	0	0	1	0	46510.6	-0.0583551	-0.0587474	-35.8174	24	0.00250276	10	0.00210418
2	1	0	1	0	48479.8	0.060801	0.0604445	25.2831	25	0.00213815	10	0.00152822
2	1	0	1	0	48480.1	0.270808	0.270484	28.9927	25	0.0143622	10	0.00784208
2	0	0	1	0	48480.4	0.122845	0.122576	-21.4809	25	0.0133351	10	-0.00263304
2	0	0	1	0	48480.8	-0.0871592	-0.0875396	-35.02	25	0.000987274	10	0.00306563
2	1	0	1	0	50449.9	0.0896051	0.0892175	28.7586	26	0.0034354	10	0.00256577
2	1	0	1	0	50450.3	0.299421	0.299124	24.7823	26	0.0155631	10	0.007413
2	0	0	1	0	50450.6	0.0940414	0.0937455	-29.2995	26	0.0120509	10	-0.0027467
2	0	0	1	1	50451	-0.0883578	-0.088794	-19.478	26	-0.000284933	10	0.00172953
2	1	0	1	0	52420.1	0.118401	0.118009	31.7606	27	0.00480232	10	0.00374802
2	1	0	1	0	52420.5	0.275242	0.274939	4.59636	27	0.0159231	10	0.00126372
2	0	0	1	0	52420.8	0.0652456	0.065018	-34.9171	27	0.0104655	10	-0.00227024
2	0	0	1	1	52421.1	-0.0595536	-0.0599732	-1.24231	27	-0.000632324	10	7.45052e-05
2	1	0	1	0	54390.3	0.147208	0.146832	36.6836	28	0.00655245	10	0.00538631
2	0	0	1	0	54390.6	0.246446	0.246135	-5.26888	28	0.0158425	10	-0.00129686
2	0	0	1	0	54391	0.0364415	0.0361081	-38.248	28	0.00849975	10	-0.00138106
2	1	0	1	1	54391.3	-0.0307579	-0.03118	10.4365	28	-0.000498944	10	-0.000325409
2	1	0	1	0	56360.5	0.176001	0.17563	38.1027	29	0.00786389	10	0.00669198
2	0	0	1	0	56360.8	0.217642	0.217286	-8.68102	29	0.0150756	10	-0.00188626
2	0	0	1	0	56361.2	0.00764575	0.0073043	-37.0838	29	0.00689192	10	-0.000270871
2	1	0	1	1	56361.5	-0.00195376	-0.00238888	14.8185	29	0.000278649	10	-3.53996e-05
2	1	0	1	0	58330.6	0.204808	0.204438	39.5055	30	0.00992591	10	0.00807642
2	0	0	1	0	58331	0.188846	0.188484	-12.2179	30	0.0147911	10	-0.00230288
2	0	0	1	0	58331.3	-0.0211611	-0.0215706	-37.1084	30	0.00514876	10	0.000800449
2	1	0	1	0	60300.5	0.023607	0.0232348	18.7245	31	0.000646537	10	0.000435059
2	1	0	1	0	60300.8	0.233603	0.233244	35.8371	31	0.0114898	10	0.0083588
2	0	0	1	0	60301.2	0.160042	0.159684	-14.5532	31	0.0140598	10	-0.00232391
2	0	0	1	0	60301.5	-0.0499541	-0.0503627	-35.4107	31	0.0035573	10	0.00178338
2	1	0	1	0	62270.7	0.0524	0.0520259	22.1595	32	0.00161204	10	0.00115287
2	1	0	1	0	62271	0.262407	0.26208	30.484	32	0.0128787	10	0.00798923
2	0	0	1	0	62271.3	0.131246	0.130886	-17.8109	32	0.0131111	10	-0.0023312
2	0	0	1	0	62271.7	-0.0787555	-0.0791549	-33.9246	32	0.00189631	10	0.0026853
2	1	0	1	0	64240.8	0.0812069	0.0808668	26.219	33	0.0028588	10	0.00212024
2	1	0	1	0	64241.2	0.291203	0.290867	25.8981	33	0.0144909	10	0.0075329
2	0	0	1	0	64241.5	0.10244	0.102145	-25.2283	33	0.0121335	10	-0.00257694
2	0	0	1	1	64241.9	-0.0967587	-0.097167	-28.3387	33	0.000333321	10	0.00275358
2	1	0	1	0	66211	0.110003	0.109614	29.6028	34	0.00420575	10	0.00324489
2	1	0	1	0	66211.4	0.283643	0.283338	10.5272	34	0.0154302	10	0.00298277
2	0	0	1	0	66211.7	0.0736466	0.0733803	-31.6031	34	0.0109379	10	-0.00231904
2	0	0	1	1	66212	-0.0679546	-0.0683897	-6.66123	34	-0.000347735	10	0.000455559
2	1	0	1	0	68181.2	0.138807	0.138464	34.3345	35	0.00591045	10	0.00475409
2	0	0	1	0	68181.5	0.254847	0.254546	-2.35003	35	0.015728	10	-0.000598189
2	0	0	1	0	68181.9	0.0448397	0.0445405	-36.676	35	0.00909986	10	-0.00163357
2	1	0	1	1	68182.2	-0.0391588	-0.0395975	6.77636	35	-0.000528048	10	-0.000268327
2	1	0	1	1	68182.3	2.44065e-05	-0.000401673	16.439	35	0.000269476	10	-6.60311e-06

File: 20221101_1-115_003_TrumpetPlot_ParaChange_from10_every3_12_CV_C01_0.csv
mode,ox/red,error,control changes,counter inc.,time/s,control/V,Ewe/V,<I>/mA,cycle number,(Q-Qo)/C,I Range,P/W,log(|I|),Tafel slope mV/dec,alpha_eff,dI/d(E-IR),E-IR/V,
2,1,0,0,0,1196.52,2.44065e-05,-0.000287149,20.3897,1,0.0000000E+000,10,-5.85489e-06,-1.69059, , , ,-0.0002871489,
2,1,0,1,0,1196.54,0.0104008,0.0100635,24.4516,1,0.00038919,10,0.000246068,-1.61169,0.202553,0.291282,275.894,0.0100635,
2,1,0,1,0,1196.56,0.0212099,0.020922,26.7247,1,0.000851643,10,0.000559135,-1.57309,0.374053,0.157732,163.982,0.020922,
2,1,0,1,0,1196.58,0.0320052,0.0316767,28.1669,1,0.00134666,10,0.000892235,-1.55026,0.558952,0.105555,115.914,0.0316767,
2,1,0,1,0,1196.59,0.0428033,0.0424568,29.3227,1,0.00186441,10,0.00124495,-1.5328,0.64832,0.0910045,104.193,0.0424568,
2,1,0,1,0,1196.61,0.0535986,0.0532878,30.4879,1,0.00240274,10,0.00162463,-1.51587,0.608176,0.0970113,115.553,0.0532878,
2,1,0,1,0,1196.63,0.0644077,0.0640679,31.889,1,0.00296402,10,0.00204306,-1.49636,0.50876,0.115968,144.465,0.0640679,
2,1,0,1,0,1196.65,0.075203,0.0748299,33.6117,1,0.00355322,10,0.00251516,-1.47351,0.434214,0.135878,178.432,0.0748299,
2,1,0,1,0,1196.67,0.0860011,0.0856683,35.6594,1,0.00417651,10,0.00305489,-1.44783,0.419174,0.140753,195.91,0.0856683,
2,1,0,1,0,1196.68,0.0968075,0.0963922,37.8845,1,0.00483804,10,0.00365177,-1.42154,0.394485,0.149562,221.218,0.0963922,
2,1,0,1,0,1196.7,0.107606,0.107312,40.3574,1,0.00554244,10,0.00433084,-1.39408,0.402888,0.146443,230.557,0.107312,
2,1,0,1,0,1196.72,0.118401,0.118056,42.867,1,0.00629139,10,0.00506072,-1.36788,0.414557,0.142321,238.152,0.118056,
2,1,0,1,0,1196.74,0.129207,0.128875,45.5632,1,0.00708713,10,0.00587194,-1.34139,0.394469,0.149568,266.097,0.1288746,
2,1,0,1,0,1196.76,0.140005,0.139668,48.6034,1,0.00793443,10,0.00678836,-1.31333,0.369111,0.159844,303.421,0.139668,
2,1,0,1,0,1196.77,0.150803,0.150464,52.0327,1,0.0088403,10,0.00782907,-1.28372,0.366641,0.16092,326.883,0.150464,
2,1,0,1,0,1196.79,0.161604,0.161272,55.5685,1,0.00980935,10,0.00896165,-1.25517,0.39938,0.147729,320.235,0.161272,
2,1,0,1,0,1196.81,0.172405,0.172025,58.862,1,0.0108404,10,0.0101257,-1.23017,0.486764,0.121209,278.087,0.172025,
2,1,0,1,0,1196.83,0.183203,0.18287,61.4461,1,0.011925,10,0.0112367,-1.21151,0.798252,0.0739115,176.749,0.18287,
2,1,0,1,0,1196.85,0.194001,0.193681,62.3329,1,0.0130426,10,0.0120727,-1.20528,-2.82007,-0.0209215,-50.6161,0.193681,
2,1,0,1,0,1196.86,0.204808,0.204523,59.9386,1,0.0141487,10,0.0122588,-1.22229,-0.332874,-0.177244,-411.48,0.204523,
2,1,0,1,0,1196.88,0.215603,0.215322,53.4721,1,0.0151743,10,0.0115137,-1.27187,-0.165536,-0.356418,-739.292,0.215322,
2,1,0,1,0,1196.9,0.226401,0.226095,44.6424,1,0.0160576,10,0.0100934,-1.35025,-0.125606,-0.469724,-817.773,0.2260948,
2,1,0,1,0,1196.92,0.237207,0.236941,36.5066,1,0.0167843,10,0.00864991,-1.43763,-0.130957,-0.450531,-644.817,0.236941,
2,1,0,1,0,1196.94,0.248005,0.247729,30.7678,1,0.0173855,10,0.00762208,-1.5119,-0.170103,-0.346848,-418.84,0.2477292,
2,1,0,1,0,1196.95,0.258801,0.258556,27.2239,1,0.0179044,10,0.0070389,-1.56505,-0.249911,-0.236084,-252.089,0.258556,
2,1,0,1,0,1196.97,0.26961,0.269271,25.1153,1,0.0183737,10,0.00676283,-1.60006,-0.376133,-0.156859,-154.159,0.269271,
2,1,0,1,0,1196.99,0.280405,0.28013,23.7843,1,0.0188129,10,0.00666269,-1.62371,-0.544634,-0.10833,-100.703,0.28013,
2,1,0,1,0,1197.01,0.291203,0.290919,22.8798,1,0.0192323,10,0.00665616,-1.64055,-0.708661,-0.0832556,-74.4051,0.2909185,
2,1,0,1,0,1197.02,0.300012,0.299842,22.301,1,0.0195642,10,0.00668678,-1.65168,0.00124938,47.2233,33039.2,0.299842,
2,1,0,1,0,1197.04,0.290843,0.290575,4.17308,1,0.0197435,10,0.00121259,-2.37954,0.00798724,7.38678,1268.99,0.290575,
2,0,0,1,0,1197.06,0.280047,0.279812,-4.76292,1,0.0197264,10,-0.00133272,-2.32213,-0.01558,-3.7869,549.511,0.279812,
2,0,0,1,0,1197.07,0.269244,0.268962,-8.92667,1,0.0195987,10,-0.00240093,-2.04931,-0.0719217,-0.820336,277.359,0.268962,
2,0,0,1,0,1197.09,0.258443,0.258178,-11.1938,1,0.0194159,10,-0.00289,-1.95102,-0.153818,-0.383569,165.9,0.258178,
2,0,0,1,0,1197.11,0.247645,0.247331,-12.654,1,0.0192003,10,-0.00312971,-1.89777,-0.248561,-0.237366,116.899,0.2473305,
2,0,0,1,0,1197.13,0.236849,0.236555,-13.7474,1,0.0189621,10,-0.00325202,-1.86178,-0.338808,-0.17414,93.3614,0.236555,
2,0,0,1,0,1197.15,0.22604,0.225766,-14.688,1,0.0187058,10,-0.00331605,-1.83304,-0.419215,-0.140739,80.6118,0.225766,
2,0,0,1,0,1197.16,0.215245,0.214952,-15.5548,1,0.0184334,10,-0.00334353,-1.80814,-0.441066,-0.133767,81.2485,0.214952,
2,0,0,1,0,1197.18,0.204447,0.204152,-16.4415,1,0.0181455,10,-0.00335657,-1.78406,-0.454218,-0.129894,83.3571,0.204152,
2,0,0,1,0,1197.2,0.19364,0.193319,-17.4019,1,0.0178411,10,-0.00336411,-1.7594,-0.424692,-0.138924,94.3618,0.193319,
2,0,0,1,0,1197.22,0.182842,0.182604,-18.5192,1,0.0175181,10,-0.00338169,-1.73238,-0.368226,-0.160228,115.961,0.182604,
2,0,0,1,0,1197.24,0.172047,0.171742,-19.9668,1,0.0171722,10,-0.00342914,-1.69969,-0.295691,-0.199533,155.866,0.171742,
2,0,0,1,0,1197.25,0.161241,0.160916,-21.9599,1,0.0167958,10,-0.00353369,-1.65837,-0.23376,-0.252396,216.764,0.160916,
2,0,0,1,0,1197.27,0.150443,0.150131,-24.7334,1,0.0163768,10,-0.00371327,-1.60672,-0.188063,-0.313725,303.516,0.150131,
2,0,0,1,0,1197.29,0.139645,0.139405,-28.5344,1,0.0158987,10,-0.00397786,-1.54463,-0.16099,-0.366482,409.447,0.139405,
2,0,0,1,0,1197.31,0.128849,0.128586,-33.5109,1,0.0153413,10,-0.00430904,-1.47481,-0.154425,-0.382062,499.882,0.128586,
2,0,0,1,0,1197.33,0.118043,0.117788,-39.1533,1,0.0146872,10,-0.00461179,-1.40723,-0.17084,-0.345352,526.314,0.117788,
2,0,0,1,0,1197.34,0.107245,0.107041,-44.7601,1,0.0139314,10,-0.00479116,-1.34911,-0.201265,-0.293146,511.048,0.107041,
2,0,0,1,0,1197.36,0.0964468,0.096265,-49.8499,1,0.0130778,10,-0.0047988,-1.30234,-0.266375,-0.221492,430.19,0.096265,
2,0,0,1,0,1197.38,0.0856404,0.0853979,-54.1038,1,0.0121403,10,-0.00462036,-1.26677,-0.367218,-0.160667,338.319,0.0853979,
2,0,0,1,0,1197.4,0.0748451,0.0745691,-57.0596,1,0.0111373,10,-0.00425488,-1.24367,-0.639828,-0.0922123,204.8,0.0745691,
2,0,0,1,0,1197.42,0.0640471,0.0637317,-58.4999,1,0.0100947,10,-0.0037283,-1.23285,-2.45584,-0.0240244,54.6797,0.0637317,
2,0,0,1,0,1197.43,0.0532407,0.0529124,-58.2986,1,0.00904157,10,-0.00308472,-1.23434,1.57238,0.0375228,-85.1558,0.0529124,
2,0,0,1,0,1197.45,0.0424426,0.0421259,-56.8812,1,0.00800409,10,-0.00239617,-1.24503,0.814501,0.072437,-160.612,0.0421259,
2,0,0,1,0,1197.47,0.0316473,0.0313045,-54.9775,1,0.00699737,10,-0.00172104,-1.25981,0.697935,0.0845351,-181.32,0.0313045,
2,0,0,1,0,1197.49,0.0208437,0.0205414,-52.9348,1,0.00602622,10,-0.00108735,-1.27626,0.616621,0.0956828,-197.567,0.0205414,
2,0,0,1,0,1197.51,0.0100429,0.00974324,-50.617,1,0.00509377,10,-0.000493173,-1.2957,0.493491,0.119556,-235.918,0.009743236,
2,0,0,1,0,1197.52,-0.000755207,-0.00112381,-47.834,1,0.00420708,10,5.37564e-05,-1.32026,0.387666,0.152193,-283.684,-0.00112381,
2,0,0,1,0,1197.54,-0.0115505,-0.0118498,-44.5361,1,0.0033757,10,0.000527745,-1.35129,0.33448,0.176393,-306.716,-0.0118498,
2,0,0,1,0,1197.56,-0.0223597,-0.0227338,-41.4597,1,0.00260282,10,0.000942538,-1.38237,0.375046,0.157314,-255.012,-0.0227338,
2,0,0,1,0,1197.58,-0.033155,-0.0335351,-39.1934,1,0.00187849,10,0.00131436,-1.40679,0.550037,0.107265,-164.465,-0.0335351,
2,0,0,1,0,1197.6,-0.043953,-0.0443333,-37.8666,1,0.00118645,10,0.00167875,-1.42174,0.976954,0.0603918,-89.3854,-0.0443333,
2,0,0,1,0,1197.61,-0.0547594,-0.0551197,-37.2693,1,0.000511552,10,0.00205428,-1.42865,3.03826,0.019419,-28.2654,-0.0551197,
2,0,0,1,0,1197.63,-0.0655575,-0.0658903,-37.2119,1,-0.000157936,10,0.0024519,-1.42932,-4.95174,-0.011915,17.3159,-0.0658903,
2,0,0,1,0,1197.65,-0.0763528,-0.0767011,-37.5496,1,-0.000830222,10,0.00288009,-1.4254,-1.81341,-0.0325353,47.7088,-0.0767011,
2,0,0,1,0,1197.67,-0.0871592,-0.0874876,-38.1887,1,-0.00151139,10,0.00334104,-1.41807,-1.2404,-0.0475654,70.9208,-0.0874876,
2,0,0,1,0,1197.69,-0.0979573,-0.0982984,-39.0431,1,-0.00220632,10,0.00383787,-1.40846,-1.13971,-0.0517676,78.6094,-0.0982984,
2,0,0,1,1,1197.7,-0.0955546,-0.0960334,-27.4601,1,-0.0025896,10,0.00263708,-1.5613,-0.0271288,-2.17481,2303.31,-0.0960334,
2,0,0,1,1,1197.71,-0.0847538,-0.0852045,-8.59565,1,-0.00289873,10,0.000732388,-2.06572,-0.0120408,-4.90002,1393.82,-0.0852045,
2,1,0,1,1,1197.73,-0.0739557,-0.0743735,3.69606,1,-0.00293465,10,-0.000274889,-2.43226,0.0116209,5.07707,943.223,-0.0743735,
2,1,0,1,1,1197.75,-0.0631604,-0.06362,12.2492,1,-0.00278602,10,-0.000779296,-1.91189,0.0404687,1.45792,667.699,-0.06362,
2,1,0,1,1,1197.77,-0.0523512,-0.0527837,18.4227,1,-0.00250625,10,-0.000972419,-1.73465,0.0880218,0.670289,474.312,-0.0527837,
2,1,0,1,1,1197.79,-0.0415559,-0.0419336,22.7281,1,-0.00213319,10,-0.000953069,-1.64344,0.155992,0.378225,333.027,-0.0419336,
2,1,0,1,1,1197.8,-0.0307579,-0.0312086,25.6974,1,-0.00169533,10,-0.000801981,-1.59011,0.261589,0.225544,225.311,-0.0312086,
2,1,0,1,1,1197.82,-0.0199515,-0.0203182,27.7036,1,-0.00121329,10,-0.000562889,-1.55746,0.428536,0.137678,148.354,-0.0203182,
2,1,0,1,1,1197.84,-0.0091534,-0.00948194,28.9568,1,-0.000702451,10,-0.000274567,-1.53825,0.765295,0.0770944,86.8932,-0.00948194,
2,1,0,1,1,1197.86,-7.54729e-05,-0.00042076,29.4882,1,-0.000260293,10,-1.24074e-05,-1.53035, , , ,-0.00042076,