Folder: Figs_alphaMnO2_OER_Tafel_sleope/Figure_codes/Fig_3-5/rawdata_trumpetplot_data/after 10th (part 92)

File: 20221101_1-115_003_TrumpetPlot_ParaChange_from10_every3_07_CV_C01_10.csv
mode,ox/red,error,control changes,counter inc.,time/s,control/V,Ewe/V,<I>/mA,cycle number,(Q-Qo)/C,I Range,P/W,log(|I|),Tafel slope mV/dec,alpha_eff,dI/d(E-IR),E-IR/V,
2,0,0,0,0,20866.3,2.44065e-05,-0.0002108,-2.75864,11,0.0000000E+000,10,5.81521e-07,-2.5593, , , ,-0.0002108,
2,1,0,1,0,20866.4,0.007288,0.00693338,1.28904,11,2.94698e-06,10,8.9374e-06,-2.88973,0.0149117,3.95663,183.477,0.00693338,
2,1,0,1,0,20866.6,0.0147816,0.014463,2.07174,11,0.000223488,10,2.99635e-05,-2.68366,0.0725762,0.812939,65.232,0.014463,
2,1,0,1,0,20866.7,0.0222712,0.0219769,2.45032,11,0.000509131,10,5.38504e-05,-2.61078,0.128185,0.460271,43.8716,0.0219769,
2,1,0,1,0,20866.8,0.0297648,0.0294542,2.74198,11,0.00083542,10,8.07626e-05,-2.56194,0.16582,0.355807,38.0072,0.0294542,
2,1,0,1,0,20866.9,0.0372518,0.0368977,3.0091,11,0.00119659,10,0.000111029,-2.52156,0.198425,0.297342,34.9903,0.0368977,
2,1,0,1,0,20867.1,0.0447467,0.0444473,3.28326,11,0.00159177,10,0.000145932,-2.4837,0.233631,0.252535,32.3017,0.0444473,
2,1,0,1,0,20867.2,0.052235,0.0518999,3.53518,11,0.00201904,10,0.000183475,-2.45159,0.224335,0.262999,36.2337,0.0518999,
2,1,0,1,0,20867.3,0.0597299,0.0594212,3.77,11,0.00247756,10,0.000224018,-2.42366,0.257904,0.228768,33.6653,0.0594212,
2,1,0,1,0,20867.4,0.0672156,0.0668899,3.99314,11,0.00296432,10,0.000267101,-2.39868,0.333754,0.176777,27.5456,0.0668899,
2,1,0,1,0,20867.6,0.0747105,0.0743982,4.19018,11,0.00347761,10,0.000311742,-2.37777,0.404929,0.145705,23.8,0.07439816,
2,1,0,1,0,20867.7,0.0821988,0.0818626,4.35927,11,0.00401322,10,0.000356862,-2.36059,0.469291,0.125721,21.3637,0.0818626,
2,1,0,1,0,20867.8,0.0896937,0.0893816,4.51649,11,0.00456957,10,0.000403691,-2.3452,0.421845,0.139862,24.6954,0.0893816,
2,1,0,1,0,20867.9,0.0971794,0.0968442,4.72488,11,0.00514838,10,0.000457577,-2.32561,0.322024,0.183216,33.8912,0.0968442,
2,1,0,1,0,20868.1,0.104674,0.10434,5.05973,11,0.00576026,10,0.000527933,-2.29587,0.230742,0.255697,50.4334,0.10434,
2,1,0,1,0,20868.2,0.112163,0.111808,5.46548,11,0.00641805,10,0.000611082,-2.26237,0.227411,0.259442,55.2414,0.1118075,
2,1,0,1,0,20868.3,0.119657,0.119389,5.85696,11,0.00712753,10,0.000699256,-2.23233,0.309798,0.190446,43.4703,0.119389,
2,1,0,1,0,20868.4,0.127143,0.126835,6.12405,11,0.00787834,10,0.000776741,-2.21296,0.464351,0.127059,30.41,0.126835,
2,1,0,1,0,20868.6,0.134638,0.134313,6.33949,11,0.00865981,10,0.000851474,-2.19795,0.730928,0.0807193,19.9792,0.134313,
2,1,0,1,0,20868.7,0.142126,0.141846,6.44382,11,0.00946144,10,0.000914032,-2.19086,-35.2704,-0.00167279,-0.419549,0.141846,
2,1,0,1,0,20868.8,0.149621,0.149314,6.15674,11,0.0102563,10,0.00091929,-2.21065,-0.177615,-0.33218,-79.4161,0.149314,
2,1,0,1,0,20868.9,0.157107,0.15681,5.25938,11,0.0109756,10,0.000824722,-2.27907,-0.0830135,-0.710728,-145.645,0.15681,
2,1,0,1,0,20869.1,0.164602,0.164312,4.23124,11,0.011568,10,0.000695241,-2.37353,-0.0813193,-0.725535,-120.12,0.164312,
2,1,0,1,0,20869.2,0.17209,0.171796,3.54739,11,0.0120515,10,0.000609426,-2.45009,-0.118957,-0.495979,-68.8626,0.171796,
2,1,0,1,0,20869.3,0.179585,0.179267,3.15038,11,0.0124698,10,0.00056476,-2.50164,-0.194549,-0.303265,-37.4557,0.179267,
2,1,0,1,0,20869.4,0.187072,0.186747,2.9227,11,0.0128499,10,0.000545804,-2.53422,-0.273255,-0.215915,-24.6763,0.1867467,
2,1,0,1,0,20869.6,0.194566,0.194244,2.78686,11,0.0132078,10,0.000541331,-2.55489,-0.42306,-0.13946,-15.1646,0.194244,
2,1,0,1,0,20869.7,0.202055,0.201788,2.69509,11,0.013551,10,0.000543838,-2.56943,-0.622256,-0.0948163,-9.9415,0.201788,
2,1,0,1,0,20869.8,0.209549,0.209215,2.62947,11,0.0138848,10,0.000550125,-2.58013,-0.696779,-0.0846754,-8.68808,0.209215,
2,1,0,1,0,20869.9,0.217036,0.216769,2.56837,11,0.0142113,10,0.000556745,-2.59034,-0.931218,-0.0633579,-6.3796,0.216769,
2,1,0,1,0,20870.1,0.224529,0.224183,2.53938,11,0.0145328,10,0.000569286,-2.59527,-0.965036,-0.0611376,-6.06473,0.224183,
2,1,0,1,0,20870.2,0.232019,0.23169,2.51508,11,0.0148497,10,0.00058272,-2.59945,-2.05987,-0.0286426,-2.80526,0.2316903,
2,1,0,1,0,20870.3,0.239513,0.239196,2.48518,11,0.0151634,10,0.000594445,-2.60464,-4.91602,-0.0120016,-1.16298,0.239196,
2,1,0,1,0,20870.4,0.247001,0.246699,2.45799,11,0.0154737,10,0.000606383,-2.60942,-1.44666,-0.0407835,-3.91178,0.246699,
2,1,0,1,0,20870.6,0.254493,0.254194,2.43578,11,0.0157814,10,0.00061916,-2.61336,-1.42338,-0.0414506,-3.94318,0.254194,
2,1,0,1,0,20870.7,0.261983,0.261687,2.41544,11,0.0160862,10,0.00063209,-2.617,-1.70119,-0.0346816,-3.26699,0.261687,
2,1,0,1,0,20870.8,0.269477,0.269235,2.39659,11,0.0163885,10,0.000645246,-2.62041,25.7553,0.00229079,0.21409,0.269235,
2,1,0,1,0,20870.9,0.276965,0.276686,2.37065,11,0.0166879,10,0.000655926,-2.62513,-2.55863,-0.0230592,-2.13987,0.276686,
2,1,0,1,0,20871.1,0.284457,0.284183,2.35356,11,0.0169849,10,0.000668841,-2.62828,-1.20364,-0.0490178,-4.49999,0.284183,
2,1,0,1,0,20871.2,0.291947,0.291622,2.33354,11,0.0172788,10,0.000680512,-2.63198,-1.30522,-0.045203,-4.10476,0.291622,
2,1,0,1,0,20871.3,0.29944,0.299185,2.30798,11,0.0175702,10,0.000690511,-2.63677,-0.00659419,-8.94728,-598.518,0.299185,
2,0,0,1,0,20871.4,0.293742,0.293395,-0.492809,11,0.0176149,10,-0.000144588,-3.30732,-0.00954777,-6.17945,98.6718,0.2933951,
2,0,0,1,0,20871.6,0.286254,0.285932,-0.866829,11,0.0175235,10,-0.000247855,-3.06207,-0.0649681,-0.908138,30.6584,0.285932,
2,0,0,1,0,20871.7,0.278761,0.278433,-1.05899,11,0.0174002,10,-0.000294859,-2.97511,-0.130596,-0.451776,18.6278,0.278433,
2,0,0,1,0,20871.8,0.271272,0.270947,-1.19405,11,0.0172575,10,-0.000323524,-2.92298,-0.143382,-0.411489,19.0861,0.270947,
2,0,0,1,0,20871.9,0.263778,0.263461,-1.29965,11,0.0170995,10,-0.000342407,-2.88617,-0.217789,-0.270904,13.7484,0.263461,
2,0,0,1,0,20872.1,0.25629,0.255919,-1.39121,11,0.0169292,10,-0.000356037,-2.85661,-0.338365,-0.174368,9.46133,0.255919,
2,0,0,1,0,20872.2,0.248797,0.24846,-1.47734,11,0.0167482,10,-0.000367058,-2.83052,-0.37035,-0.159309,9.14452,0.24846,
2,0,0,1,0,20872.3,0.241308,0.241006,-1.54649,11,0.0165575,10,-0.000372713,-2.81065,-0.366615,-0.160932,9.70181,0.241006,
2,0,0,1,0,20872.4,0.233814,0.233467,-1.61629,11,0.0163578,10,-0.000377349,-2.79148,-0.347958,-0.169561,10.6998,0.233467,
2,0,0,1,0,20872.5,0.226326,0.226029,-1.68001,11,0.01615,10,-0.000379732,-2.77469,-0.415168,-0.142111,9.32544,0.226029,
2,0,0,1,0,20872.7,0.218834,0.218512,-1.75436,11,0.0159337,10,-0.00038335,-2.75588,-0.410287,-0.143802,9.80492,0.218512,
2,0,0,1,0,20872.8,0.211344,0.211013,-1.81374,11,0.0157096,10,-0.000382724,-2.74142,-0.488817,-0.1207,8.51224,0.2110133,
2,0,0,1,0,20872.9,0.203856,0.203503,-1.87216,11,0.0154773,10,-0.000380989,-2.72766,-0.518751,-0.113735,8.34387,0.203503,
2,0,0,1,0,20873,0.196362,0.196067,-1.94343,11,0.0152367,10,-0.000381043,-2.71143,-0.520385,-0.113378,8.612,0.196067,
2,0,0,1,0,20873.2,0.18887,0.188563,-2.01968,11,0.0149871,10,-0.000380837,-2.69472,-0.428893,-0.137563,10.8398,0.188563,
2,0,0,1,0,20873.3,0.18138,0.181059,-2.10709,11,0.0147274,10,-0.000381508,-2.67632,-0.361269,-0.163313,13.4288,0.181059,
2,0,0,1,0,20873.4,0.173892,0.173564,-2.21129,11,0.014456,10,-0.0003838,-2.65535,-0.266528,-0.221365,19.1232,0.173564,
2,0,0,1,0,20873.5,0.166398,0.166055,-2.3496,11,0.0141691,10,-0.000390163,-2.62901,-0.277077,-0.212937,19.6024,0.166055,
2,0,0,1,0,20873.7,0.158905,0.158567,-2.54515,11,0.0138619,10,-0.000403576,-2.59429,-0.203133,-0.290451,28.9139,0.158567,
2,0,0,1,0,20873.8,0.151417,0.15109,-2.84734,11,0.0135246,10,-0.000430203,-2.54556,-0.133068,-0.443381,49.3098,0.15109,
2,0,0,1,0,20873.9,0.143927,0.143566,-3.33315,11,0.0131394,10,-0.000478528,-2.47715,-0.090798,-0.649794,84.6486,0.143566,
2,0,0,1,0,20874,0.136435,0.136105,-4.05807,11,0.0126778,10,-0.000552323,-2.39168,-0.0860193,-0.685893,108.672,0.136105,
2,0,0,1,0,20874.2,0.128941,0.128652,-4.90613,11,0.0121157,10,-0.000631183,-2.30926,-0.104177,-0.566341,108.301,0.128652,
2,0,0,1,0,20874.3,0.121453,0.121152,-5.66682,11,0.0114521,10,-0.000686546,-2.24666,-0.150797,-0.391254,86.2576,0.121152,
2,0,0,1,0,20874.4,0.113963,0.113643,-6.18321,11,0.0107078,10,-0.000702682,-2.20879,-0.259061,-0.227746,54.933,0.1136435,
2,0,0,1,0,20874.5,0.106471,0.106162,-6.46575,11,0.0099125,10,-0.000686417,-2.18938,-0.715472,-0.0824631,20.8023,0.106162,
2,0,0,1,0,20874.7,0.0989825,0.0986778,-6.4984,11,0.00909835,10,-0.000641248,-2.18719,1.08298,0.0544795,-13.797,0.0986778,
2,0,0,1,0,20874.8,0.0914889,0.0911953,-6.30312,11,0.00829512,10,-0.000574815,-2.20044,0.416151,0.141775,-34.8258,0.0911953,
2,0,0,1,0,20874.9,0.0839993,0.0837159,-6.00529,11,0.00752534,10,-0.000502738,-2.22147,0.358786,0.164443,-38.4999,0.0837159,
2,0,0,1,0,20875,0.076507,0.0761832,-5.75063,11,0.00679046,10,-0.000438101,-2.24028,0.467398,0.126231,-28.3476,0.07618317,
2,0,0,1,0,20875.2,0.0690187,0.0687153,-5.56922,11,0.00608243,10,-0.00038269,-2.25421,0.552525,0.106782,-23.2393,0.0687153,
2,0,0,1,0,20875.3,0.0615251,0.0611882,-5.43612,11,0.00539282,10,-0.000332627,-2.26471,0.68489,0.0861453,-18.2804,0.0611882,
2,0,0,1,0,20875.4,0.0540355,0.0536895,-5.30009,11,0.00472105,10,-0.000284559,-2.27572,0.766106,0.0770128,-15.9156,0.0536895,
2,0,0,1,0,20875.5,0.0465432,0.046203,-5.15152,11,0.0040662,10,-0.000238016,-2.28806,0.617245,0.0955861,-19.2198,0.046203,
2,0,0,1,0,20875.7,0.0390549,0.0387183,-4.9954,11,0.00343099,10,-0.000193413,-2.30143,0.450212,0.131049,-25.514,0.0387183,
2,0,0,1,0,20875.8,0.0315613,0.0311819,-4.81604,11,0.00281652,10,-0.000150173,-2.31731,0.422755,0.139561,-26.1734,0.0311819,
2,0,0,1,0,20875.9,0.0240717,0.0237337,-4.60527,11,0.0022266,10,-0.0001093,-2.33675,0.404603,0.145822,-26.2347,0.0237337,
2,0,0,1,0,20876,0.0165781,0.0162231,-4.40784,11,0.00166131,10,-7.1509e-05,-2.35577,0.462389,0.127598,-21.9884,0.0162231,
2,0,0,1,0,20876.2,0.00909108,0.00877832,-4.25119,11,0.00111876,10,-3.73183e-05,-2.37149,0.492112,0.119891,-19.9055,0.00877832,
2,0,0,1,0,20876.3,0.00159616,0.00121714,-4.17494,11,0.000592575,10,-5.08148e-06,-2.37935, , , ,0.001217138,
2,0,0,1,0,20876.3,0.000199195,-0.000138268,-4.14408,11,0.000495338,10,5.72993e-07,-2.38257, , , ,-0.000138268,

File: 20221101_1-115_003_TrumpetPlot_ParaChange_from10_every3_07_CV_C01_11.csv
mode,ox/red,error,control changes,counter inc.,time/s,control/V,Ewe/V,<I>/mA,cycle number,(Q-Qo)/C,I Range,P/W,log(|I|),Tafel slope mV/dec,alpha_eff,dI/d(E-IR),E-IR/V,
2,0,0,0,0,22836.5,2.44065e-05,-0.000344411,-2.73193,12,0.0000000E+000,10,9.40906e-07,-2.56353, , , ,-0.000344411,
2,1,0,1,0,22836.6,0.007288,0.00696327,1.48039,12,2.38042e-05,10,1.03083e-05,-2.82962,0.0174747,3.37631,181.233,0.00696327,
2,1,0,1,0,22836.7,0.0147816,0.0144694,2.22213,12,0.000265681,10,3.2153e-05,-2.65323,0.0815072,0.723862,62.5757,0.01446941,
2,1,0,1,0,22836.8,0.0222712,0.021954,2.58022,12,0.000569534,10,5.66461e-05,-2.58834,0.15565,0.379056,38.2134,0.021954,
2,1,0,1,0,22836.9,0.0297648,0.0294645,2.87021,12,0.000912217,10,8.45693e-05,-2.54209,0.178009,0.331445,36.9799,0.0294645,
2,1,0,1,0,22837.1,0.0372518,0.0369414,3.13515,12,0.00128887,10,0.000115817,-2.50374,0.205318,0.287359,35.1443,0.0369414,
2,1,0,1,0,22837.2,0.0447467,0.044462,3.39554,12,0.00169901,10,0.000150972,-2.46909,0.21258,0.277542,36.8268,0.044462,
2,1,0,1,0,22837.3,0.052235,0.0519231,3.64486,12,0.00214101,10,0.000189253,-2.43832,0.259275,0.227558,32.424,0.0519231,
2,1,0,1,0,22837.4,0.0597299,0.0593999,3.89155,12,0.00261424,10,0.000231158,-2.40988,0.296996,0.198656,30.1176,0.0593999,
2,1,0,1,0,22837.6,0.0672156,0.06691,4.11386,12,0.00311567,10,0.000275259,-2.38575,0.291467,0.202424,32.4274,0.06691,
2,1,0,1,0,22837.7,0.0747105,0.0744203,4.304,12,0.00364371,10,0.000320305,-2.36613,0.394418,0.149588,25.1642,0.0744203,
2,1,0,1,0,22837.8,0.0821988,0.081915,4.46688,12,0.00419408,10,0.000365905,-2.35,0.577147,0.102227,17.8577,0.081915,
2,1,0,1,0,22837.9,0.0896937,0.0893414,4.64645,12,0.00476515,10,0.00041512,-2.33288,0.491209,0.120112,21.7671,0.0893414,
2,1,0,1,0,22838.1,0.0971794,0.096855,4.85887,12,0.0053589,10,0.000470606,-2.31346,0.28039,0.210421,39.8642,0.096855,
2,1,0,1,0,22838.2,0.104674,0.104336,5.18899,12,0.00598705,10,0.000541399,-2.28492,0.221221,0.266702,54.0651,0.1043361,
2,1,0,1,0,22838.3,0.112163,0.111808,5.60787,12,0.00666273,10,0.000627002,-2.2512,0.23411,0.252019,55.1589,0.1118075,
2,1,0,1,0,22838.4,0.119657,0.119361,6.02006,12,0.00739184,10,0.00071856,-2.2204,0.320197,0.184262,43.1977,0.119361,
2,1,0,1,0,22838.6,0.127143,0.126836,6.29312,12,0.0081634,10,0.000798194,-2.20113,0.470359,0.125436,30.8085,0.1268359,
2,1,0,1,0,22838.7,0.134638,0.134306,6.48994,12,0.00896494,10,0.000871635,-2.18776,0.658966,0.0895342,22.6991,0.134306,
2,1,0,1,0,22838.8,0.142126,0.141748,6.57054,12,0.00978491,10,0.00093136,-2.1824,-2.02625,-0.0291179,-7.45485,0.141748,
2,1,0,1,0,22838.9,0.149621,0.149327,6.23508,12,0.0105933,10,0.000931063,-2.20516,-0.157825,-0.373831,-90.4628,0.1493265,
2,1,0,1,0,22839.1,0.157107,0.156812,5.28282,12,0.0113182,10,0.000828408,-2.27713,-0.0820082,-0.71944,-147.898,0.156812,
2,1,0,1,0,22839.2,0.164602,0.164283,4.24773,12,0.0119123,10,0.000697828,-2.37184,-0.0842321,-0.700446,-116.372,0.164283,
2,1,0,1,0,22839.3,0.17209,0.171759,3.55995,12,0.0123986,10,0.000611455,-2.44856,-0.120117,-0.491188,-68.7047,0.171759,
2,1,0,1,0,22839.4,0.179585,0.179308,3.17592,12,0.0128201,10,0.000569468,-2.49813,-0.176807,-0.333697,-41.467,0.179308,
2,1,0,1,0,22839.6,0.187072,0.186776,2.94713,12,0.0132029,10,0.000550454,-2.5306,-0.270382,-0.218209,-25.0354,0.186776,
2,1,0,1,0,22839.7,0.194566,0.194273,2.79512,12,0.0135625,10,0.000543017,-2.5536,-0.476526,-0.123813,-13.5119,0.194273,
2,1,0,1,0,22839.8,0.202055,0.201719,2.69282,12,0.0139068,10,0.000543192,-2.56979,-0.527872,-0.11177,-11.7594,0.201719,
2,1,0,1,0,22839.9,0.209549,0.209239,2.63278,12,0.0142412,10,0.00055088,-2.57959,-0.509848,-0.115721,-11.8586,0.209239,
2,1,0,1,0,22840.1,0.217036,0.216746,2.57429,12,0.0145678,10,0.000557968,-2.58934,-1.15664,-0.0510099,-5.12913,0.216746,
2,1,0,1,0,22840.2,0.224529,0.22425,2.53545,12,0.0148892,10,0.000568575,-2.59595,-1.88607,-0.031282,-3.09948,0.22425,
2,1,0,1,0,22840.3,0.232019,0.231737,2.50082,12,0.0152059,10,0.000579535,-2.60192,-1.10484,-0.0534016,-5.22462,0.231737,
2,1,0,1,0,22840.4,0.239513,0.239216,2.47884,12,0.0155194,10,0.000592979,-2.60575,-1.27704,-0.0462007,-4.46561,0.239216,
2,1,0,1,0,22840.6,0.247001,0.246717,2.46554,12,0.0158297,10,0.000608292,-2.60809,-1.60066,-0.0368597,-3.52946,0.246717,
2,1,0,1,0,22840.7,0.254493,0.254198,2.43225,12,0.0161374,10,0.000618274,-2.61399,-7.28361,-0.00810038,-0.770773,0.254198,
2,1,0,1,0,22840.8,0.261983,0.261679,2.41179,12,0.0164422,10,0.000631116,-2.61766,-2.39745,-0.0246094,-2.3247,0.261679,
2,1,0,1,0,22840.9,0.269477,0.26916,2.39745,12,0.0167447,10,0.000645298,-2.62025,-1.77557,-0.0332288,-3.1029,0.26916,
2,1,0,1,0,22841.1,0.276965,0.276657,2.37662,12,0.0170445,10,0.000657508,-2.62404,-1.6861,-0.0349919,-3.24192,0.276657,
2,1,0,1,0,22841.2,0.284457,0.284167,2.35177,12,0.0173417,10,0.000668298,-2.6286,-14.2093,-0.0041522,-0.381329,0.284167,
2,1,0,1,0,22841.3,0.291947,0.291622,2.32518,12,0.017636,10,0.000678072,-2.63354,-1.98851,-0.0296704,-2.70002,0.291622,
2,1,0,1,0,22841.4,0.29944,0.299138,2.30793,12,0.0179277,10,0.00069039,-2.63678,-0.00622693,-9.47497,-615.874,0.299138,
2,0,0,1,0,22841.6,0.293742,0.293414,-0.593649,12,0.017962,10,-0.000174185,-3.22647,-0.0125603,-4.69735,94.441,0.293414,
2,0,0,1,0,22841.7,0.286254,0.285916,-0.956547,12,0.0178591,10,-0.000273492,-3.01929,-0.0701292,-0.841304,31.2958,0.285916,
2,0,0,1,0,22841.8,0.278761,0.278443,-1.1331,12,0.0177253,10,-0.000315505,-2.94573,-0.132303,-0.445945,19.7915,0.278443,
2,0,0,1,0,22841.9,0.271272,0.270947,-1.2639,12,0.0175727,10,-0.000342452,-2.89829,-0.191465,-0.30815,15.2292,0.270947,
2,0,0,1,0,22842.1,0.263778,0.263472,-1.37701,12,0.0174055,10,-0.000362804,-2.86106,-0.240344,-0.245481,13.1135,0.263472,
2,0,0,1,0,22842.2,0.25629,0.255983,-1.46439,12,0.0172265,10,-0.000374858,-2.83434,-0.295843,-0.19943,11.3182,0.255983,
2,0,0,1,0,22842.3,0.248797,0.248469,-1.52992,12,0.017037,10,-0.000380138,-2.81533,-0.3407,-0.173173,10.404,0.248469,
2,0,0,1,0,22842.4,0.241308,0.240981,-1.60518,12,0.0168383,10,-0.000386819,-2.79448,-0.438495,-0.134551,8.46228,0.240981,
2,0,0,1,0,22842.6,0.233814,0.233497,-1.68199,12,0.0166308,10,-0.00039274,-2.77418,-0.526171,-0.112131,7.31917,0.233497,
2,0,0,1,0,22842.7,0.226326,0.226049,-1.74711,12,0.0164152,10,-0.000394932,-2.75768,-0.406538,-0.145128,9.85225,0.226049,
2,0,0,1,0,22842.8,0.218834,0.218514,-1.80104,12,0.0161916,10,-0.000393551,-2.74448,-0.333468,-0.176928,12.4947,0.218514,
2,0,0,1,0,22842.9,0.211344,0.211056,-1.86892,12,0.0159602,10,-0.000394448,-2.72841,-0.695896,-0.0847828,6.18237,0.211056,
2,0,0,1,0,22843.1,0.203856,0.203561,-1.93834,12,0.0157206,10,-0.00039457,-2.71257,-0.664141,-0.0888366,6.70584,0.203561,
2,0,0,1,0,22843.2,0.196362,0.196026,-2.00718,12,0.0154728,10,-0.000393458,-2.69741,-0.46721,-0.126281,9.85306,0.196026,
2,0,0,1,0,22843.3,0.18887,0.188541,-2.07121,12,0.0152159,10,-0.000390508,-2.68378,-0.349082,-0.169015,13.7318,0.188541,
2,0,0,1,0,22843.4,0.18138,0.181083,-2.1597,12,0.014949,10,-0.000391086,-2.66561,-0.394261,-0.149647,12.6701,0.181083,
2,0,0,1,0,22843.6,0.173892,0.173537,-2.28004,12,0.0146698,10,-0.000395671,-2.64206,-0.337904,-0.174606,15.5033,0.173537,
2,0,0,1,0,22843.7,0.166398,0.166053,-2.42607,12,0.0143747,10,-0.000402854,-2.6151,-0.258956,-0.227838,21.5008,0.166053,
2,0,0,1,0,22843.8,0.158905,0.158595,-2.61683,12,0.0140584,10,-0.000415016,-2.58223,-0.171038,-0.344952,35.3554,0.158595,
2,0,0,1,0,22843.9,0.151417,0.151096,-2.93362,12,0.0137104,10,-0.000443258,-2.5326,-0.132878,-0.444018,51.0768,0.1510959,
2,0,0,1,0,22844.1,0.143927,0.143618,-3.45809,12,0.0133116,10,-0.000496643,-2.46116,-0.0924863,-0.637932,86.1878,0.143618,
2,0,0,1,0,22844.2,0.136435,0.136117,-4.22068,12,0.0128321,10,-0.000574505,-2.37462,-0.084606,-0.69735,114.7,0.136117,
2,0,0,1,0,22844.3,0.128941,0.128609,-5.10019,12,0.0122479,10,-0.000655932,-2.29241,-0.101895,-0.57903,114.886,0.128609,
2,0,0,1,0,22844.4,0.121453,0.121117,-5.85577,12,0.0115598,10,-0.000709234,-2.23242,-0.160378,-0.367882,83.9746,0.1211172,
2,0,0,1,0,22844.6,0.113963,0.113678,-6.37622,12,0.0107909,10,-0.000724836,-2.19544,-0.298542,-0.197627,49.1399,0.113678,
2,0,0,1,0,22844.7,0.106471,0.106167,-6.64671,12,0.00997238,10,-0.000705662,-2.17739,-0.923265,-0.0639037,16.5427,0.106167,
2,0,0,1,0,22844.8,0.0989825,0.0986773,-6.62934,12,0.00913879,10,-0.000654165,-2.17853,0.98967,0.0596158,-15.4048,0.0986773,
2,0,0,1,0,22844.9,0.0914889,0.0911981,-6.39117,12,0.00832142,10,-0.000582863,-2.19442,0.376926,0.156529,-39.0389,0.0911981,
2,0,0,1,0,22845.1,0.0839993,0.0836932,-6.07682,12,0.00754101,10,-0.000508588,-2.21632,0.320279,0.184214,-43.6708,0.0836932,
2,0,0,1,0,22845.2,0.076507,0.0761641,-5.83225,12,0.0067965,10,-0.000444208,-2.23416,0.466184,0.126559,-28.7792,0.0761641,
2,0,0,1,0,22845.3,0.0690187,0.068708,-5.64676,12,0.00607897,10,-0.000387978,-2.2482,0.622306,0.0948087,-20.8983,0.068708,
2,0,0,1,0,22845.4,0.0615251,0.0611776,-5.49697,12,0.00538045,10,-0.000336291,-2.25988,0.691463,0.0853263,-18.3353,0.0611776,
2,0,0,1,0,22845.6,0.0540355,0.0537815,-5.35161,12,0.00470094,10,-0.000287818,-2.27152,0.574263,0.10274,-21.4514,0.0537815,
2,0,0,1,0,22845.7,0.0465432,0.0462216,-5.19803,12,0.0040399,10,-0.000240261,-2.28416,0.547402,0.107782,-21.8371,0.04622161,
2,0,0,1,0,22845.8,0.0390549,0.0387341,-5.02486,12,0.00339997,10,-0.000194634,-2.29888,0.496596,0.118809,-23.2519,0.0387341,
2,0,0,1,0,22845.9,0.0315613,0.0312072,-4.81981,12,0.00278259,10,-0.000150413,-2.31697,0.399085,0.147838,-27.8425,0.0312072,
2,0,0,1,0,22846.1,0.0240717,0.0237642,-4.60752,12,0.0021915,10,-0.000109494,-2.33653,0.343032,0.171995,-30.981,0.0237642,
2,0,0,1,0,22846.2,0.0165781,0.0162289,-4.41584,12,0.00162598,10,-7.16642e-05,-2.35499,0.402138,0.146716,-25.2746,0.0162289,
2,0,0,1,0,22846.3,0.00909108,0.00879088,-4.25335,12,0.00108332,10,-3.73907e-05,-2.37127,0.643481,0.0916888,-15.2182,0.00879088,
2,0,0,1,0,22846.4,0.00159616,0.00122101,-4.17668,12,0.000556711,10,-5.09976e-06,-2.37917, , , ,0.001221007,
2,0,0,1,0,22846.4,0.000199195,-0.000157355,-4.14532,12,0.000459267,10,6.52287e-07,-2.38244, , , ,-0.000157355,