Folder: Figs_alphaMnO2_OER_Tafel_sleope/Figure_codes/Fig_3-5/rawdata_trumpetplot_data/after 10th (part 152)

File: 20221101_1-115_003_TrumpetPlot_ParaChange_from10_every3_10_CV_C01_25.csv
mode,ox/red,error,control changes,counter inc.,time/s,control/V,Ewe/V,<I>/mA,cycle number,(Q-Qo)/C,I Range,P/W,log(|I|),Tafel slope mV/dec,alpha_eff,dI/d(E-IR),E-IR/V,
2,1,0,0,0,50443.8,-2.44065e-05,-0.000306236,5.15105,26,0.0000000E+000,10,-1.57744e-06,-2.2881, , , ,-0.000306236,
2,1,0,1,0,50443.8,0.00977853,0.00941702,7.46396,26,0.000319247,10,7.02883e-05,-2.12703,0.120672,0.488928,141.992,0.009417017,
2,1,0,1,0,50443.9,0.0197755,0.0194379,8.55171,26,0.000722056,10,0.000166227,-2.06795,0.235419,0.250617,83.5977,0.0194379,
2,1,0,1,0,50443.9,0.0297726,0.0294387,9.28339,26,0.00116902,10,0.000273291,-2.03229,0.342723,0.172151,62.3388,0.0294387,
2,1,0,1,0,50444,0.0397514,0.0394097,9.8868,26,0.00164758,10,0.000389636,-2.00494,0.374231,0.157657,60.8351,0.0394097,
2,1,0,1,0,50444,0.0497393,0.0493919,10.4764,26,0.00215557,10,0.00051745,-1.97979,0.408066,0.144584,59.0812,0.0493919,
2,1,0,1,0,50444.1,0.0597364,0.0593581,11.0715,26,0.0026941,10,0.000657186,-1.95579,0.409026,0.144245,62.3115,0.0593581,
2,1,0,1,0,50444.1,0.0697152,0.0693561,11.6935,26,0.0032621,10,0.000811013,-1.93206,0.438895,0.134429,61.3641,0.0693561,
2,1,0,1,0,50444.2,0.0796941,0.0793382,12.3161,26,0.00386138,10,0.000977134,-1.90953,0.476087,0.123927,59.538,0.0793382,
2,1,0,1,0,50444.2,0.0896911,0.0893373,12.9081,26,0.00449235,10,0.00115318,-1.88914,0.504521,0.116943,58.9527,0.0893373,
2,1,0,1,0,50444.3,0.099679,0.0993208,13.488,26,0.00515115,10,0.00133963,-1.87005,0.555208,0.106266,55.8951,0.0993208,
2,1,0,1,0,50444.3,0.109658,0.109296,14.0837,26,0.0058385,10,0.00153929,-1.85128,0.488977,0.12066,66.348,0.109296,
2,1,0,1,0,50444.4,0.119655,0.11931,14.8535,26,0.00656118,10,0.00177216,-1.82817,0.408702,0.144359,83.6885,0.11931,
2,1,0,1,0,50444.4,0.129652,0.129249,15.7566,26,0.00732629,10,0.00203652,-1.80254,0.38959,0.151441,93.1351,0.129249,
2,1,0,1,0,50444.5,0.139631,0.139265,16.6358,26,0.00813529,10,0.00231679,-1.77896,0.472711,0.124812,81.0522,0.139265,
2,1,0,1,0,50444.5,0.149619,0.149265,17.3431,26,0.0089842,10,0.00258873,-1.76087,0.701886,0.0840592,56.8392,0.149265,
2,1,0,1,0,50444.6,0.159616,0.159273,17.6336,26,0.00986123,10,0.00280856,-1.75366,-6.92258,-0.00852283,-5.86396,0.1592733,
2,1,0,1,0,50444.6,0.169595,0.169259,17.14,26,0.0107329,10,0.0029011,-1.76599,-0.376389,-0.156753,-104.647,0.169259,
2,1,0,1,0,50444.7,0.179573,0.179259,15.6328,26,0.0115537,10,0.00280232,-1.80596,-0.191638,-0.307872,-187.747,0.1792594,
2,1,0,1,0,50444.7,0.18957,0.18922,13.6675,26,0.0122862,10,0.00258615,-1.86431,-0.163156,-0.361618,-192.796,0.18922,
2,1,0,1,0,50444.8,0.199558,0.199182,11.935,26,0.0129228,10,0.00237724,-1.92318,-0.187602,-0.314495,-146.612,0.199182,
2,1,0,1,0,50444.8,0.209537,0.209184,10.6829,26,0.0134849,10,0.0022347,-1.97131,-0.227155,-0.259735,-108.198,0.209184,
2,1,0,1,0,50444.9,0.219534,0.219168,9.77699,26,0.0139948,10,0.00214281,-2.00979,-0.306728,-0.192353,-73.5055,0.219168,
2,1,0,1,0,50444.9,0.229531,0.22921,9.14916,26,0.0144673,10,0.00209708,-2.03862,-0.38049,-0.155063,-55.3484,0.22921,
2,1,0,1,0,50445,0.23951,0.23915,8.68002,26,0.0149117,10,0.00207582,-2.06148,-0.515306,-0.114495,-38.8598,0.23915,
2,1,0,1,0,50445,0.249498,0.249178,8.3459,26,0.0153361,10,0.00207961,-2.07853,-0.601571,-0.0980765,-31.8983,0.249178,
2,1,0,1,0,50445.1,0.259495,0.259165,8.06655,26,0.0157461,10,0.00209057,-2.09331,-0.694998,-0.0848923,-26.7397,0.259165,
2,1,0,1,0,50445.1,0.269474,0.269162,7.85421,26,0.0161431,10,0.00211406,-2.1049,-0.897776,-0.065718,-20.1372,0.269162,
2,1,0,1,0,50445.2,0.279453,0.279135,7.66739,26,0.0165304,10,0.00214024,-2.11535,-1.08339,-0.0544587,-16.3143,0.279135,
2,1,0,1,0,50445.2,0.28945,0.289112,7.51343,26,0.0169098,10,0.00217222,-2.12416,-1.31119,-0.0449973,-13.1827,0.289112,
2,1,0,1,0,50445.3,0.299438,0.299076,7.37179,26,0.0172811,10,0.00220473,-2.13243,-0.0714143,-0.826166,-229.85,0.299076,
2,1,0,1,0,50445.3,0.291747,0.291413,1.2213,26,0.017449,10,0.000355902,-2.91318,0.00650142,9.07494,394.246,0.291413,
2,0,0,1,0,50445.4,0.28175,0.281438,-1.35741,26,0.0174362,10,-0.000382026,-2.86729,-0.0173826,-3.3942,172.164,0.2814382,
2,0,0,1,0,50445.4,0.27178,0.271444,-2.60714,26,0.0173342,10,-0.000707692,-2.58384,-0.0615027,-0.959307,97.2929,0.2714442,
2,0,0,1,0,50445.5,0.261783,0.261458,-3.37283,26,0.0171833,10,-0.000881854,-2.47201,-0.130993,-0.450404,59.0937,0.261458,
2,0,0,1,0,50445.5,0.251786,0.251462,-3.90028,26,0.0170007,10,-0.000980773,-2.4089,-0.198672,-0.296972,45.2002,0.2514624,
2,0,0,1,0,50445.6,0.241807,0.241476,-4.30614,26,0.0167955,10,-0.00103983,-2.36591,-0.272587,-0.216445,36.4237,0.241476,
2,0,0,1,0,50445.6,0.231824,0.231465,-4.64696,26,0.0165719,10,-0.00107561,-2.33283,-0.320998,-0.183802,33.3148,0.231465,
2,0,0,1,0,50445.7,0.221822,0.22151,-4.93616,26,0.0163321,10,-0.00109341,-2.30661,-0.395229,-0.14928,28.7306,0.22151,
2,0,0,1,0,50445.7,0.211843,0.211505,-5.20682,26,0.0160789,10,-0.00110127,-2.28343,-0.489532,-0.120523,24.4833,0.211505,
2,0,0,1,0,50445.8,0.201865,0.201571,-5.46218,26,0.0158127,10,-0.00110102,-2.26263,-0.515018,-0.114559,24.4284,0.201571,
2,0,0,1,0,50445.8,0.191868,0.191529,-5.71816,26,0.0155331,10,-0.00109519,-2.24274,-0.507428,-0.116273,25.947,0.191529,
2,0,0,1,0,50445.9,0.18188,0.181496,-5.99322,26,0.0152413,10,-0.00108774,-2.22234,-0.458868,-0.128577,30.0134,0.1814957,
2,0,0,1,0,50445.9,0.171901,0.171532,-6.28707,26,0.0149353,10,-0.00107843,-2.20155,-0.466947,-0.126353,30.991,0.171532,
2,0,0,1,0,50446,0.161904,0.161533,-6.65531,26,0.0146121,10,-0.00107505,-2.17683,-0.360238,-0.163781,42.5764,0.1615334,
2,0,0,1,0,50446,0.151907,0.151565,-7.17052,26,0.0142671,10,-0.0010868,-2.14445,-0.268382,-0.219836,61.5625,0.151565,
2,0,0,1,0,50446.1,0.141928,0.141573,-7.98741,26,0.0138905,10,-0.0011308,-2.09759,-0.174667,-0.337785,105.468,0.141573,
2,0,0,1,0,50446.1,0.13194,0.13158,-9.30066,26,0.0134614,10,-0.00122378,-2.03149,-0.137833,-0.428054,155.354,0.13158,
2,0,0,1,0,50446.2,0.121943,0.121611,-11.0437,26,0.0129538,10,-0.00134303,-1.95688,-0.144889,-0.407209,175.337,0.121611,
2,0,0,1,0,50446.2,0.111964,0.111658,-12.8193,26,0.012358,10,-0.00143137,-1.89214,-0.176027,-0.335176,167.577,0.111658,
2,0,0,1,0,50446.3,0.101985,0.101637,-14.3686,26,0.0116782,10,-0.00146038,-1.84259,-0.245863,-0.239971,134.463,0.101637,
2,0,0,1,0,50446.3,0.0919883,0.0916426,-15.5435,26,0.0109286,10,-0.00142445,-1.80845,-0.362037,-0.162967,98.8067,0.0916426,
2,0,0,1,0,50446.4,0.0820004,0.0816833,-16.2312,26,0.0101332,10,-0.00132582,-1.78965,-0.904355,-0.0652399,41.3112,0.08168333,
2,0,0,1,0,50446.4,0.0720215,0.0716998,-16.3941,26,0.00931719,10,-0.00117546,-1.78531,7.62403,0.00773869,-4.94888,0.0716998,
2,0,0,1,0,50446.5,0.0620245,0.0616798,-16.2172,26,0.00850112,10,-0.00100028,-1.79002,1.44189,0.0409185,-25.9012,0.0616798,
2,0,0,1,0,50446.5,0.0520275,0.0516772,-15.9641,26,0.00769652,10,-0.000824981,-1.79686,1.24595,0.0473536,-29.4813,0.0516772,
2,0,0,1,0,50446.6,0.0420486,0.0417042,-15.6718,26,0.0069071,10,-0.000653581,-1.80488,1.31774,0.0447736,-27.4098,0.0417042,
2,0,0,1,0,50446.6,0.0320607,0.0316858,-15.3686,26,0.00613235,10,-0.000486966,-1.81337,1.03362,0.0570808,-34.2016,0.0316858,
2,0,0,1,0,50446.7,0.0220637,0.021711,-14.9545,26,0.00537405,10,-0.000324676,-1.82523,0.749345,0.0787354,-45.9704,0.021711,
2,0,0,1,0,50446.7,0.0120848,0.0117156,-14.4527,26,0.00464006,10,-0.000169322,-1.84005,0.562327,0.104921,-59.1128,0.0117156,
2,0,0,1,0,50446.8,0.00210598,0.00164935,-13.8703,26,0.00393435,10,-2.2877e-05,-1.85791,0.585085,0.10084,-54.5271,0.00164935,
2,0,0,1,0,50446.8,-0.00789103,-0.00827086,-13.275,26,0.00325602,10,0.000109796,-1.87697,0.589602,0.100068,-51.8686,-0.008270856,
2,0,0,1,0,50446.9,-0.017879,-0.0182634,-12.8391,26,0.00260511,10,0.000234487,-1.89146,0.880584,0.067001,-33.5836,-0.0182634,
2,0,0,1,0,50446.9,-0.0278578,-0.0282692,-12.5768,26,0.00197194,10,0.000355537,-1.90043,1.4338,0.0411494,-20.1905,-0.0282692,
2,0,0,1,0,50447,-0.0378548,-0.0381963,-12.4582,26,0.0013467,10,0.000475857,-1.90454,5.10136,0.0115655,-5.62634,-0.0381963,
2,0,0,1,0,50447,-0.0478519,-0.0482276,-12.4986,26,0.00072318,10,0.000602777,-1.90314,-2.33048,-0.0253167,12.3447,-0.0482276,
2,0,0,1,0,50447.1,-0.0578126,-0.0581894,-12.6314,26,9.76904e-05,10,0.000735012,-1.89855,-1.56354,-0.037735,18.6201,-0.0581894,
2,0,0,1,0,50447.1,-0.0678187,-0.0682701,-12.8747,26,-0.000539699,10,0.000878957,-1.89026,-1.04497,-0.0564612,28.3477,-0.0682701,
2,0,0,1,0,50447.2,-0.0778157,-0.0782172,-13.1763,26,-0.00119093,10,0.00103062,-1.88021,-0.869964,-0.0678189,34.9233,-0.0782172,
2,0,0,1,0,50447.2,-0.0877945,-0.0882153,-13.6,26,-0.00185878,10,0.00119973,-1.86646,-0.705661,-0.0836096,44.3511,-0.0882153,
2,0,0,1,0,50447.3,-0.0977734,-0.0981973,-14.072,26,-0.0025489,10,0.00138183,-1.85164,-0.609339,-0.0968262,53.2073,-0.0981973,
2,0,0,1,1,50447.3,-0.0936874,-0.0940759,-7.27495,26,-0.00302573,10,0.000684397,-2.13817,-0.0225803,-2.61289,743.318,-0.0940759,
2,0,0,1,1,50447.4,-0.0837086,-0.0841473,-1.70973,26,-0.00323689,10,0.000143869,-2.76707,-0.00838032,-7.0403,432.876,-0.0841473,
2,1,0,1,1,50447.4,-0.0737025,-0.074077,1.88714,26,-0.00322617,10,-0.000139793,-2.7242,0.0138145,4.27088,297.74,-0.074077,
2,1,0,1,1,50447.5,-0.0637236,-0.0641096,4.37007,26,-0.00306644,10,-0.000280163,-2.35951,0.0476001,1.23949,210.736,-0.0641096,
2,1,0,1,1,50447.5,-0.0537448,-0.0541039,6.17995,26,-0.00280051,10,-0.000334359,-2.20902,0.0939662,0.627885,150.733,-0.05410387,
2,1,0,1,1,50447.6,-0.0437477,-0.0441785,7.45343,26,-0.00245756,10,-0.000329281,-2.12764,0.159304,0.37036,107.771,-0.0441785,
2,1,0,1,1,50447.6,-0.0337507,-0.0340986,8.37265,26,-0.0020602,10,-0.000285496,-2.07714,0.251733,0.234375,76.4905,-0.0340986,
2,1,0,1,1,50447.7,-0.0237809,-0.0241619,8.98674,26,-0.00162684,10,-0.000217137,-2.0464,0.405704,0.145426,51.0163,-0.0241619,
2,1,0,1,1,50447.7,-0.0137839,-0.0141419,9.39643,26,-0.0011665,10,-0.000132884,-2.02704,0.751585,0.0785008,28.7472,-0.0141419,
2,1,0,1,1,50447.8,-0.0037869,-0.00417402,9.62806,26,-0.000690402,10,-4.01878e-05,-2.01646,1.16235,0.0507591,19.0882,-0.00417402,
2,1,0,1,1,50447.8,-2.55332e-05,-0.000439847,9.6796,26,-0.000509663,10,-4.25755e-06,-2.01414, , , ,-0.000439847,

File: 20221101_1-115_003_TrumpetPlot_ParaChange_from10_every3_10_CV_C01_26.csv
mode,ox/red,error,control changes,counter inc.,time/s,control/V,Ewe/V,<I>/mA,cycle number,(Q-Qo)/C,I Range,P/W,log(|I|),Tafel slope mV/dec,alpha_eff,dI/d(E-IR),E-IR/V,
2,1,0,0,0,52413.9,-2.44065e-05,-0.000287149,5.1167,27,0.0000000E+000,10,-1.46926e-06,-2.29101, , , ,-0.0002871489,
2,1,0,1,0,52414,0.00977853,0.00942916,7.37613,27,0.000315907,10,6.95508e-05,-2.13217,0.120098,0.491267,140.909,0.00942916,
2,1,0,1,0,52414,0.0197755,0.0194543,8.44604,27,0.000713758,10,0.000164312,-2.07335,0.231319,0.255059,84.0371,0.0194543,
2,1,0,1,0,52414.1,0.0297726,0.0293997,9.16672,27,0.00115519,10,0.000269499,-2.03779,0.34203,0.1725,61.6737,0.0293997,
2,1,0,1,0,52414.1,0.0397514,0.0394105,9.75573,27,0.0016276,10,0.000384478,-2.01074,0.369112,0.159843,60.8691,0.0394105,
2,1,0,1,0,52414.2,0.0497394,0.0494093,10.3353,27,0.00212876,10,0.000510658,-1.98568,0.411535,0.143366,57.7569,0.0494093,
2,1,0,1,0,52414.2,0.0597364,0.0594162,10.9122,27,0.00265969,10,0.000648362,-1.96209,0.398004,0.14824,63.1224,0.0594162,
2,1,0,1,0,52414.3,0.0697152,0.0693458,11.5296,27,0.00321961,10,0.00079953,-1.93819,0.436664,0.135115,60.7895,0.0693458,
2,1,0,1,0,52414.3,0.0796941,0.079333,12.1306,27,0.00381018,10,0.000962357,-1.91612,0.468079,0.126047,59.7055,0.079333,
2,1,0,1,0,52414.4,0.0896911,0.0892749,12.7375,27,0.00443233,10,0.00113714,-1.89492,0.490305,0.120333,59.8211,0.0892749,
2,1,0,1,0,52414.4,0.099679,0.0993264,13.3035,27,0.00508212,10,0.00132138,-1.87604,0.555515,0.106208,55.1192,0.0993264,
2,1,0,1,0,52414.5,0.109658,0.109285,13.8946,27,0.0057602,10,0.00151847,-1.85716,0.498075,0.118456,64.2306,0.109285,
2,1,0,1,0,52414.5,0.119655,0.119307,14.6346,27,0.00647265,10,0.00174601,-1.83462,0.408274,0.144511,82.5922,0.119307,
2,1,0,1,0,52414.6,0.129652,0.129344,15.5313,27,0.00722652,10,0.00200887,-1.80879,0.384881,0.153294,92.8488,0.129344,
2,1,0,1,0,52414.6,0.139631,0.139306,16.3923,27,0.00802367,10,0.00228355,-1.78536,0.466674,0.126427,80.9339,0.139306,
2,1,0,1,0,52414.7,0.149619,0.149265,17.1133,27,0.00886066,10,0.00255442,-1.76667,0.656937,0.0898108,59.9006,0.149265,
2,1,0,1,0,52414.7,0.159616,0.15928,17.4531,27,0.00972696,10,0.00277994,-1.75813,13.0886,0.00450773,3.06947,0.15928,
2,1,0,1,0,52414.8,0.169595,0.169239,17.07,27,0.010592,10,0.00288892,-1.76777,-0.438849,-0.134443,-89.3611,0.169239,
2,1,0,1,0,52414.8,0.179573,0.179231,15.6939,27,0.0114128,10,0.00281283,-1.80427,-0.203726,-0.289604,-177.399,0.179231,
2,1,0,1,0,52414.9,0.18957,0.189211,13.8284,27,0.0121514,10,0.00261649,-1.85923,-0.171763,-0.343496,-185.269,0.189211,
2,1,0,1,0,52414.9,0.199558,0.199245,12.1092,27,0.0127967,10,0.00241269,-1.91688,-0.187872,-0.314043,-148.517,0.199245,
2,1,0,1,0,52415,0.209537,0.209233,10.8257,27,0.013367,10,0.00226509,-1.96554,-0.220548,-0.267516,-113.026,0.209233,
2,1,0,1,0,52415,0.219534,0.219207,9.88381,27,0.0138832,10,0.0021666,-2.00508,-0.295811,-0.199452,-77.0411,0.2192066,
2,1,0,1,0,52415.1,0.229531,0.229205,9.21957,27,0.0143602,10,0.00211317,-2.03529,-0.361046,-0.163414,-58.7958,0.229205,
2,1,0,1,0,52415.1,0.23951,0.239198,8.73246,27,0.0148076,10,0.00208879,-2.05886,-0.494922,-0.119211,-40.6774,0.239198,
2,1,0,1,0,52415.2,0.249498,0.249166,8.37236,27,0.0152338,10,0.00208611,-2.07715,-0.590906,-0.0998467,-32.5948,0.249166,
2,1,0,1,0,52415.2,0.259495,0.259168,8.0774,27,0.0156447,10,0.0020934,-2.09273,-0.695562,-0.0848235,-26.7648,0.259168,
2,1,0,1,0,52415.3,0.269474,0.26914,7.85638,27,0.0160421,10,0.00211447,-2.10478,-0.89537,-0.0658946,-20.1872,0.26914,
2,1,0,1,0,52415.3,0.279453,0.27913,7.66054,27,0.0164291,10,0.00213829,-2.11574,-1.03828,-0.0568248,-17.0081,0.27913,
2,1,0,1,0,52415.4,0.28945,0.289135,7.50119,27,0.0168082,10,0.00216885,-2.12487,-1.28184,-0.0460277,-13.4608,0.289135,
2,1,0,1,0,52415.4,0.299438,0.299108,7.3572,27,0.0171787,10,0.0022006,-2.13329,-0.0733727,-0.804114,-223.494,0.299108,
2,1,0,1,0,52415.5,0.291747,0.291409,1.34691,27,0.0173501,10,0.000392502,-2.87066,0.00740991,7.96231,389.622,0.291409,
2,0,0,1,0,52415.5,0.28175,0.281419,-1.24937,27,0.0173433,10,-0.000351596,-2.90331,-0.0158928,-3.71238,171.611,0.281419,
2,0,0,1,0,52415.6,0.27178,0.271413,-2.51828,27,0.0172463,10,-0.000683494,-2.5989,-0.0598812,-0.985285,96.4766,0.271413,
2,0,0,1,0,52415.6,0.261783,0.261423,-3.30413,27,0.0170993,10,-0.000863773,-2.48094,-0.12216,-0.482975,61.9655,0.261423,
2,0,0,1,0,52415.7,0.251786,0.251488,-3.84209,27,0.01692,10,-0.000966239,-2.41543,-0.189846,-0.310778,46.5507,0.251488,
2,0,0,1,0,52415.7,0.241807,0.241528,-4.25831,27,0.0167175,10,-0.0010285,-2.37076,-0.248556,-0.237371,39.4385,0.241528,
2,0,0,1,0,52415.8,0.231824,0.231512,-4.6,27,0.0164962,10,-0.00106495,-2.33724,-0.324268,-0.181948,32.6682,0.231512,
2,0,0,1,0,52415.8,0.221822,0.221484,-4.89966,27,0.0162586,10,-0.0010852,-2.30983,-0.394437,-0.14958,28.5599,0.221484,
2,0,0,1,0,52415.9,0.211843,0.211517,-5.16329,27,0.0160074,10,-0.00109212,-2.28707,-0.465131,-0.126846,25.5957,0.211517,
2,0,0,1,0,52415.9,0.201865,0.2015,-5.42489,27,0.015743,10,-0.00109311,-2.26561,-0.529654,-0.111393,23.5748,0.2015,
2,0,0,1,0,52416,0.191868,0.191524,-5.67245,27,0.0154654,10,-0.00108641,-2.24623,-0.490273,-0.120341,26.6811,0.191524,
2,0,0,1,0,52416,0.18188,0.181581,-5.95085,27,0.0151756,10,-0.00108056,-2.22542,-0.446262,-0.132209,30.6438,0.181581,
2,0,0,1,0,52416.1,0.171901,0.171554,-6.24404,27,0.0148717,10,-0.00107119,-2.20453,-0.430278,-0.137121,33.394,0.171554,
2,0,0,1,0,52416.1,0.161904,0.161547,-6.60781,27,0.014551,10,-0.00106747,-2.17994,-0.362828,-0.162612,41.8981,0.161547,
2,0,0,1,0,52416.2,0.151907,0.151575,-7.10046,27,0.0142089,10,-0.00107625,-2.14871,-0.275331,-0.214287,59.4939,0.151575,
2,0,0,1,0,52416.2,0.141928,0.1416,-7.89867,27,0.0138362,10,-0.00111845,-2.10245,-0.176011,-0.335206,103.358,0.1416,
2,0,0,1,0,52416.3,0.13194,0.131624,-9.17498,27,0.0134124,10,-0.00120764,-2.0374,-0.135895,-0.434159,155.553,0.131624,
2,0,0,1,0,52416.3,0.121943,0.121684,-10.8826,27,0.012912,10,-0.00132424,-1.96327,-0.143906,-0.409989,173.953,0.121684,
2,0,0,1,0,52416.4,0.111964,0.111647,-12.6167,27,0.0123252,10,-0.00140862,-1.89906,-0.171073,-0.344883,169.708,0.111647,
2,0,0,1,0,52416.4,0.101985,0.10168,-14.1494,27,0.011656,10,-0.00143871,-1.84926,-0.240877,-0.244938,135.114,0.10168,
2,0,0,1,0,52416.5,0.0919883,0.0917241,-15.3037,27,0.0109178,10,-0.00140372,-1.8152,-0.357628,-0.164976,98.4918,0.0917241,
2,0,0,1,0,52416.5,0.0820004,0.0817207,-16.0024,27,0.0101343,10,-0.00130773,-1.79582,-0.889713,-0.0663135,41.3806,0.08172071,
2,0,0,1,0,52416.5,0.0720215,0.0717094,-16.1751,27,0.00932963,10,-0.00115991,-1.79115,8.54481,0.00690477,-4.35791,0.07170935,
2,0,0,1,0,52416.6,0.0620245,0.0616772,-16.0266,27,0.00852388,10,-0.000988477,-1.79516,1.55416,0.0379627,-23.7393,0.0616772,
2,0,0,1,0,52416.6,0.0520275,0.051685,-15.7915,27,0.00772847,10,-0.000816184,-1.80158,1.37254,0.0429861,-26.4763,0.051685,
2,0,0,1,0,52416.7,0.0420486,0.0417042,-15.5215,27,0.00694717,10,-0.000647313,-1.80907,1.40224,0.0420757,-25.5066,0.0417042,
2,0,0,1,0,52416.7,0.0320607,0.0317214,-15.2326,27,0.00617954,10,-0.000483199,-1.81723,1.07475,0.0548963,-32.6161,0.0317214,
2,0,0,1,0,52416.8,0.0220637,0.0217535,-14.848,27,0.00542721,10,-0.000322996,-1.82833,0.781111,0.0755335,-43.7664,0.0217535,
2,0,0,1,0,52416.8,0.0120848,0.0117689,-14.3665,27,0.00469786,10,-0.000169078,-1.84265,0.586242,0.100641,-56.4147,0.0117689,
2,0,0,1,0,52416.9,0.00210598,0.00175086,-13.8427,27,0.00399502,10,-2.42365e-05,-1.85878,0.647147,0.0911694,-49.1534,0.00175086,
2,0,0,1,0,52416.9,-0.00789103,-0.00829862,-13.2684,27,0.00331774,10,0.000110109,-1.87718,0.625704,0.0942938,-48.85,-0.00829862,
2,0,0,1,0,52417,-0.017879,-0.0182777,-12.8515,27,0.0026668,10,0.000234897,-1.89105,0.917894,0.0642776,-32.2277,-0.0182777,
2,0,0,1,0,52417,-0.0278578,-0.0282275,-12.5735,27,0.00203336,10,0.000354919,-1.90054,1.45668,0.040503,-19.8765,-0.0282275,
2,0,0,1,0,52417.1,-0.0378548,-0.0382501,-12.451,27,0.00140854,10,0.000476253,-1.90479,5.13104,0.0114986,-5.58769,-0.0382501,
2,0,0,1,0,52417.1,-0.0478519,-0.0482085,-12.4634,27,0.00078613,10,0.000600843,-1.90436,-2.48194,-0.0237718,11.566,-0.0482085,
2,0,0,1,0,52417.2,-0.0578126,-0.0581591,-12.5894,27,0.000162582,10,0.000732188,-1.9,-1.61515,-0.036529,17.9576,-0.0581591,
2,0,0,1,0,52417.2,-0.0678187,-0.068199,-12.8182,27,-0.000472223,10,0.00087419,-1.89217,-1.06427,-0.0554371,27.7147,-0.068199,
2,0,0,1,0,52417.3,-0.0778157,-0.0781912,-13.1188,27,-0.00112042,10,0.00102577,-1.88211,-0.915537,-0.064443,33.0215,-0.0781912,
2,0,0,1,0,52417.3,-0.0877945,-0.0881803,-13.5407,27,-0.00178517,10,0.00119402,-1.86836,-0.671963,-0.0878025,46.3777,-0.0881803,
2,0,0,1,0,52417.4,-0.0977734,-0.098147,-14.022,27,-0.00247254,10,0.00137622,-1.85319,-0.566532,-0.104142,57.0561,-0.098147,
2,0,0,1,1,52417.4,-0.0936874,-0.0940878,-7.43181,27,-0.00295139,10,0.000699243,-2.12891,-0.0238932,-2.46932,717.029,-0.0940878,
2,0,0,1,1,52417.5,-0.0837086,-0.0841091,-1.96569,27,-0.00317346,10,0.000165332,-2.70649,-0.00998357,-5.90971,430.303,-0.0841091,
2,1,0,1,1,52417.5,-0.0737025,-0.074064,1.59005,27,-0.00317676,10,-0.000117766,-2.79859,0.011688,5.04792,293.543,-0.074064,
2,1,0,1,1,52417.6,-0.0637236,-0.0641192,4.09228,27,-0.00303152,10,-0.000262394,-2.38803,0.0440741,1.33866,212.212,-0.0641192,
2,1,0,1,1,52417.6,-0.0537448,-0.0540995,5.9054,27,-0.00277948,10,-0.000319479,-2.22875,0.089075,0.662363,152.3,-0.0540995,
2,1,0,1,1,52417.7,-0.0437477,-0.0441915,7.22122,27,-0.00244922,10,-0.000319116,-2.14139,0.149882,0.393644,110.8,-0.0441915,
2,1,0,1,1,52417.7,-0.0337507,-0.0341342,8.16215,27,-0.00206292,10,-0.000278609,-2.0882,0.236626,0.249339,79.4491,-0.0341342,
2,1,0,1,1,52417.8,-0.0237809,-0.0241862,8.81646,27,-0.00163899,10,-0.000213237,-2.05471,0.369104,0.159846,54.9417,-0.0241862,
2,1,0,1,1,52417.8,-0.0137839,-0.0141706,9.24365,27,-0.00118658,10,-0.000130988,-2.03416,0.682934,0.086392,31.162,-0.0141706,
2,1,0,1,1,52417.9,-0.0037869,-0.00415494,9.51215,27,-0.000717109,10,-3.95223e-05,-2.02172,1.05918,0.0557036,20.6669,-0.004154935,
2,1,0,1,1,52417.9,-2.55332e-05,-0.000344411,9.55939,27,-0.000538593,10,-3.29236e-06,-2.01957, , , ,-0.000344411,