Folder: Figs_alphaMnO2_OER_Tafel_sleope/Figure_codes/Fig_3-5/rawdata_trumpetplot_data/after 10th (part 88)

File: 20221101_1-115_003_TrumpetPlot_ParaChange_from10_every3_07_CV_C01_2.csv
mode,ox/red,error,control changes,counter inc.,time/s,control/V,Ewe/V,<I>/mA,cycle number,(Q-Qo)/C,I Range,P/W,log(|I|),Tafel slope mV/dec,alpha_eff,dI/d(E-IR),E-IR/V,
2,0,0,0,0,5105.28,2.44065e-05,-0.00042076,-2.69695,3,0.0000000E+000,10,1.13477e-06,-2.56913, , , ,-0.00042076,
2,1,0,1,0,5105.4,0.007288,0.00699743,1.7608,3,6.39384e-05,10,1.23211e-05,-2.75429,0.0265709,2.22047,145.75,0.00699743,
2,1,0,1,0,5105.52,0.0147816,0.0144266,2.32474,3,0.000328181,10,3.35381e-05,-2.63363,0.112089,0.526368,47.7685,0.0144266,
2,1,0,1,0,5105.65,0.0222712,0.0220086,2.63224,3,0.000640304,10,5.7932e-05,-2.57967,0.175294,0.336578,34.3917,0.0220086,
2,1,0,1,0,5105.77,0.0297648,0.029477,2.89223,3,0.000986436,10,8.52543e-05,-2.53877,0.18744,0.314767,35.3521,0.029477,
2,1,0,1,0,5105.9,0.0372518,0.0369602,3.14278,3,0.00136493,10,0.000116158,-2.50269,0.193698,0.304598,37.4908,0.0369602,
2,1,0,1,0,5106.02,0.0447467,0.0444484,3.41901,3,0.00177762,10,0.000151969,-2.4661,0.216981,0.271913,36.4407,0.0444484,
2,1,0,1,0,5106.15,0.052235,0.0519115,3.70918,3,0.00222486,10,0.000192549,-2.43072,0.221088,0.266862,38.5873,0.0519115,
2,1,0,1,0,5106.27,0.0597299,0.0594863,3.99073,3,0.0027073,10,0.000237394,-2.39895,0.247886,0.238013,36.9118,0.0594863,
2,1,0,1,0,5106.4,0.0672156,0.066908,4.24251,3,0.00322241,10,0.000283858,-2.37238,0.257064,0.229515,37.9544,0.066908,
2,1,0,1,0,5106.52,0.0747105,0.0744309,4.47696,3,0.00376938,10,0.000333224,-2.34902,0.354574,0.166397,29.0988,0.0744309,
2,1,0,1,0,5106.65,0.0821988,0.0819059,4.70307,3,0.00434457,10,0.000385209,-2.32762,0.40889,0.144293,26.4834,0.0819059,
2,1,0,1,0,5106.77,0.0896937,0.0893868,4.92734,3,0.00494789,10,0.000440439,-2.30739,0.376614,0.156659,30.1194,0.0893868,
2,1,0,1,0,5106.9,0.0971794,0.0969082,5.19458,3,0.00558067,10,0.000503398,-2.28445,0.267949,0.220191,44.6742,0.0969082,
2,1,0,1,0,5107.02,0.104674,0.104401,5.56984,3,0.00625402,10,0.000581497,-2.25416,0.21502,0.274393,59.7781,0.1044011,
2,1,0,1,0,5107.15,0.112163,0.111849,6.0547,3,0.00698115,10,0.000677212,-2.21791,0.220835,0.267167,63.067,0.111849,
2,1,0,1,0,5107.27,0.119657,0.119355,6.54113,3,0.00776969,10,0.000780717,-2.18435,0.263059,0.224284,57.1131,0.119355,
2,1,0,1,0,5107.4,0.127143,0.126825,6.90928,3,0.00861178,10,0.000876272,-2.16057,0.337251,0.174944,47.1915,0.126825,
2,1,0,1,0,5107.52,0.134638,0.134338,7.22297,3,0.00949773,10,0.000970322,-2.14128,0.451201,0.130762,36.9097,0.134338,
2,1,0,1,0,5107.65,0.142126,0.141835,7.43495,3,0.0104171,10,0.00105453,-2.12872,1.93416,0.0305041,8.83456,0.141835,
2,1,0,1,0,5107.77,0.149621,0.149309,7.22317,3,0.0113413,10,0.00107848,-2.14127,-0.207035,-0.284976,-79.8589,0.1493087,
2,1,0,1,0,5107.9,0.157107,0.156795,6.22665,3,0.0121898,10,0.000976311,-2.20575,-0.0836437,-0.705373,-170.94,0.156795,
2,1,0,1,0,5108.02,0.164602,0.164267,4.94834,3,0.0128876,10,0.000812848,-2.30554,-0.0759258,-0.777074,-150.558,0.164267,
2,1,0,1,0,5108.15,0.17209,0.171775,4.07599,3,0.0134483,10,0.000700154,-2.38977,-0.106395,-0.554537,-88.6053,0.171775,
2,1,0,1,0,5108.27,0.179585,0.179304,3.56759,3,0.0139255,10,0.000639684,-2.44762,-0.150465,-0.392117,-54.6759,0.179304,
2,1,0,1,0,5108.4,0.187072,0.186742,3.23697,3,0.0143508,10,0.000604479,-2.48986,-0.222914,-0.264676,-33.4296,0.186742,
2,1,0,1,0,5108.52,0.194566,0.194239,3.01465,3,0.0147425,10,0.000585564,-2.52076,-0.333284,-0.177026,-20.8719,0.194239,
2,1,0,1,0,5108.65,0.202055,0.201728,2.86639,3,0.0151111,10,0.000578232,-2.54267,-0.365441,-0.161449,-18.0686,0.201728,
2,1,0,1,0,5108.77,0.209549,0.209239,2.7692,3,0.0154644,10,0.000579424,-2.55765,-0.39812,-0.148197,-15.984,0.2092391,
2,1,0,1,0,5108.9,0.217036,0.216717,2.68646,3,0.0158061,10,0.000582201,-2.57082,-0.758178,-0.0778181,-8.16008,0.216717,
2,1,0,1,0,5109.02,0.224529,0.224257,2.627,3,0.0161398,10,0.000589123,-2.58054,-0.887628,-0.0664693,-6.83169,0.224257,
2,1,0,1,0,5109.15,0.232019,0.23171,2.5827,3,0.016467,10,0.000598438,-2.58793,-1.46084,-0.0403877,-4.0753,0.23171,
2,1,0,1,0,5109.27,0.239513,0.239227,2.54744,3,0.0167895,10,0.000609417,-2.5939,-1.01792,-0.0579611,-5.75823,0.239227,
2,1,0,1,0,5109.4,0.247001,0.24673,2.52594,3,0.0171073,10,0.000623223,-2.59758,-1.3706,-0.0430467,-4.21475,0.2467296,
2,1,0,1,0,5109.52,0.254493,0.254178,2.48439,3,0.0174216,10,0.000631477,-2.60478,-3.48702,-0.0169199,-1.64439,0.254178,
2,1,0,1,0,5109.64,0.261983,0.261735,2.45337,3,0.0177322,10,0.000642131,-2.61024,-1.08766,-0.054245,-5.2132,0.261735,
2,1,0,1,0,5109.77,0.269477,0.269213,2.43255,3,0.0180397,10,0.000654875,-2.61394,-1.62893,-0.0362201,-3.43543,0.269213,
2,1,0,1,0,5109.89,0.276965,0.276701,2.40994,3,0.0183439,10,0.000666833,-2.61799,-3.7221,-0.0158513,-1.4895,0.276701,
2,1,0,1,0,5110.02,0.284457,0.284204,2.37995,3,0.0186451,10,0.00067639,-2.62343,-5.14553,-0.0114663,-1.0661,0.284204,
2,1,0,1,0,5110.14,0.291947,0.291682,2.34933,3,0.0189429,10,0.000685256,-2.62906,-1.29095,-0.0457027,-4.20735,0.291682,
2,1,0,1,0,5110.27,0.29944,0.299158,2.33166,3,0.0192378,10,0.000697535,-2.63233,-0.0046288,-12.7463,-770.657,0.299158,
2,0,0,1,0,5110.38,0.293742,0.293457,-0.707298,3,0.0192523,10,-0.000207562,-3.1504,-0.0220985,-2.66987,68.2295,0.293457,
2,0,0,1,0,5110.51,0.286254,0.285922,-0.99245,3,0.0191417,10,-0.000283763,-3.00329,-0.0813296,-0.725444,27.9912,0.285922,
2,0,0,1,0,5110.63,0.278761,0.278474,-1.15877,3,0.019004,10,-0.000322686,-2.936,-0.144084,-0.409482,18.6175,0.278474,
2,0,0,1,0,5110.76,0.271272,0.270991,-1.28809,3,0.0188485,10,-0.000349061,-2.89005,-0.201106,-0.293378,14.7565,0.270991,
2,0,0,1,0,5110.88,0.263778,0.263467,-1.39433,3,0.0186786,10,-0.000367358,-2.85564,-0.266433,-0.221444,12.0034,0.263467,
2,0,0,1,0,5111.01,0.25629,0.255995,-1.48633,3,0.018497,10,-0.000380494,-2.82788,-0.293241,-0.2012,11.5783,0.255995,
2,0,0,1,0,5111.13,0.248797,0.248502,-1.55522,3,0.0183051,10,-0.000386474,-2.80821,-0.323619,-0.182313,11.107,0.248502,
2,0,0,1,0,5111.26,0.241308,0.241021,-1.62405,3,0.0181037,10,-0.00039143,-2.7894,-0.493163,-0.119636,7.62838,0.241021,
2,0,0,1,0,5111.38,0.233814,0.233491,-1.7019,3,0.0178934,10,-0.000397378,-2.76907,-0.44284,-0.133231,8.85259,0.233491,
2,0,0,1,0,5111.51,0.226326,0.226017,-1.77467,3,0.0176745,10,-0.000401105,-2.75088,-0.414159,-0.142457,9.82248,0.226017,
2,0,0,1,0,5111.63,0.218834,0.218527,-1.8376,3,0.0174469,10,-0.000401564,-2.73575,-0.366444,-0.161007,11.575,0.218527,
2,0,0,1,0,5111.76,0.211344,0.211072,-1.90405,3,0.017211,10,-0.000401892,-2.72032,-0.547014,-0.107858,8.03596,0.211072,
2,0,0,1,0,5111.88,0.203856,0.203569,-1.98843,3,0.0169657,10,-0.000404782,-2.70149,-0.66468,-0.0887645,6.88686,0.203569,
2,0,0,1,0,5112.01,0.196362,0.196063,-2.06784,3,0.0167106,10,-0.000405427,-2.68448,-0.409169,-0.144195,11.6382,0.196063,
2,0,0,1,0,5112.13,0.18887,0.188526,-2.16086,3,0.0164441,10,-0.000407377,-2.66537,-0.279409,-0.21116,17.8788,0.188526,
2,0,0,1,0,5112.26,0.18138,0.18103,-2.28896,3,0.016164,10,-0.000414372,-2.64036,-0.284273,-0.207547,18.6081,0.18103,
2,0,0,1,0,5112.38,0.173892,0.173575,-2.44966,3,0.0158665,10,-0.000425201,-2.61089,-0.234219,-0.251901,24.0836,0.173575,
2,0,0,1,0,5112.51,0.166398,0.16606,-2.67998,3,0.0155448,10,-0.000445037,-2.57187,-0.181534,-0.325008,33.9721,0.16606,
2,0,0,1,0,5112.63,0.158905,0.158555,-3.01688,3,0.0151886,10,-0.000478341,-2.52044,-0.123883,-0.476256,56.1629,0.158555,
2,0,0,1,0,5112.75,0.151417,0.15115,-3.53641,3,0.0147795,10,-0.000534529,-2.45144,-0.0962446,-0.613021,85.0076,0.15115,
2,0,0,1,0,5112.88,0.143927,0.143614,-4.34572,3,0.0142879,10,-0.000624105,-2.36194,-0.0778579,-0.75779,128.773,0.143614,
2,0,0,1,0,5113,0.136435,0.136147,-5.39628,3,0.0136785,10,-0.000734689,-2.26791,-0.0871238,-0.677197,142.244,0.136147,
2,0,0,1,0,5113.13,0.128941,0.128608,-6.40869,3,0.0129377,10,-0.000824209,-2.19323,-0.120064,-0.491404,122.608,0.128608,
2,0,0,1,0,5113.25,0.121453,0.121139,-7.14637,3,0.0120854,10,-0.000865704,-2.14591,-0.221435,-0.266444,74.2437,0.121139,
2,0,0,1,0,5113.38,0.113963,0.113669,-7.51838,3,0.0111635,10,-0.000854607,-2.12388,-0.774459,-0.0761822,22.3464,0.113669,
2,0,0,1,0,5113.5,0.106471,0.106193,-7.55931,3,0.0102157,10,-0.000802745,-2.12152,0.935138,0.0630923,-18.5986,0.106193,
2,0,0,1,0,5113.63,0.0989825,0.0987012,-7.31283,3,0.00928291,10,-0.000721785,-2.13591,0.374126,0.157701,-44.9495,0.0987012,
2,0,0,1,0,5113.75,0.0914889,0.0911463,-6.86615,3,0.00839436,10,-0.000625823,-2.16329,0.261097,0.225969,-60.5452,0.0911463,
2,0,0,1,0,5113.88,0.0839993,0.0836986,-6.41437,3,0.0075642,10,-0.000536873,-2.19285,0.265664,0.222085,-55.6241,0.0836986,
2,0,0,1,0,5114,0.076507,0.0761385,-6.08863,3,0.00678309,10,-0.000463579,-2.21548,0.363931,0.162119,-38.4805,0.0761385,
2,0,0,1,0,5114.13,0.0690187,0.0687165,-5.84491,3,0.0060373,10,-0.000401642,-2.23322,0.489028,0.120648,-27.5248,0.0687165,
2,0,0,1,0,5114.25,0.0615251,0.0612176,-5.64794,3,0.00531681,10,-0.000345754,-2.24811,0.529416,0.111444,-24.6272,0.0612176,
2,0,0,1,0,5114.38,0.0540355,0.0537042,-5.46032,3,0.00462063,10,-0.000293242,-2.26278,0.499544,0.118108,-25.1924,0.0537042,
2,0,0,1,0,5114.5,0.0465432,0.0462206,-5.26016,3,0.00394837,10,-0.000243128,-2.279,0.404197,0.145968,-29.9492,0.0462206,
2,0,0,1,0,5114.63,0.0390549,0.0387243,-5.03353,3,0.00330406,10,-0.00019492,-2.29813,0.323221,0.182538,-35.7504,0.0387243,
2,0,0,1,0,5114.75,0.0315613,0.0312441,-4.75849,3,0.00269088,10,-0.000148674,-2.32253,0.308078,0.19151,-35.5308,0.0312441,
2,0,0,1,0,5114.88,0.0240717,0.023751,-4.48891,3,0.00211175,10,-0.000106616,-2.34786,0.310833,0.189812,-33.3243,0.023751,
2,0,0,1,0,5115,0.0165781,0.0162666,-4.28535,3,0.00156229,10,-6.9708e-05,-2.36801,0.396604,0.148763,-24.8609,0.0162666,
2,0,0,1,0,5115.13,0.00909108,0.00882453,-4.13994,3,0.00103555,10,-3.6533e-05,-2.38301,0.753145,0.0783382,-12.6382,0.00882453,
2,0,0,1,0,5115.25,0.00159616,0.00124964,-4.10185,3,0.000521711,10,-5.12583e-06,-2.38702, , , ,0.00124964,
2,0,0,1,0,5115.28,0.000199195,-0.000161173,-4.07005,3,0.000426082,10,6.5598e-07,-2.3904, , , ,-0.000161173,

File: 20221101_1-115_003_TrumpetPlot_ParaChange_from10_every3_07_CV_C01_3.csv
mode,ox/red,error,control changes,counter inc.,time/s,control/V,Ewe/V,<I>/mA,cycle number,(Q-Qo)/C,I Range,P/W,log(|I|),Tafel slope mV/dec,alpha_eff,dI/d(E-IR),E-IR/V,
2,0,0,0,0,7075.41,2.44065e-05,-0.000287149,-2.70712,4,0.0000000E+000,10,7.77348e-07,-2.56749, , , ,-0.0002871489,
2,1,0,1,0,7075.53,0.007288,0.00700044,1.80605,4,6.42958e-05,10,1.26431e-05,-2.74327,0.0255044,2.31333,154.904,0.00700044,
2,1,0,1,0,7075.66,0.0147816,0.0144965,2.39651,4,0.00033576,10,3.4741e-05,-2.62042,0.10717,0.550528,51.454,0.0144965,
2,1,0,1,0,7075.78,0.0222712,0.0219679,2.70542,4,0.000657232,10,5.94324e-05,-2.56777,0.169523,0.348036,36.6862,0.0219679,
2,1,0,1,0,7075.91,0.0297648,0.0294783,2.97913,4,0.00101416,10,8.78195e-05,-2.52591,0.200542,0.294203,34.1042,0.0294783,
2,1,0,1,0,7076.03,0.0372518,0.0369359,3.24413,4,0.00140412,10,0.000119825,-2.4889,0.200169,0.294752,37.3329,0.0369359,
2,1,0,1,0,7076.15,0.0447467,0.0444886,3.51293,4,0.00182863,10,0.000156285,-2.45433,0.220678,0.267358,36.7458,0.0444886,
2,1,0,1,0,7076.28,0.052235,0.0519463,3.7831,4,0.00228665,10,0.000196518,-2.42215,0.245344,0.240479,35.5502,0.0519463,
2,1,0,1,0,7076.4,0.0597299,0.0594336,4.05405,4,0.00277845,10,0.000240947,-2.39211,0.266968,0.221,34.8681,0.05943355,
2,1,0,1,0,7076.53,0.0672156,0.0669085,4.30594,4,0.00330131,10,0.000288104,-2.36593,0.2729,0.216196,36.2228,0.0669085,
2,1,0,1,0,7076.65,0.0747105,0.0744307,4.51668,4,0.00385447,10,0.000336179,-2.34518,0.35709,0.165225,29.1684,0.0744307,
2,1,0,1,0,7076.78,0.0821988,0.0819002,4.7256,4,0.00443412,10,0.000387028,-2.32554,0.445064,0.132565,24.4701,0.0819002,
2,1,0,1,0,7076.9,0.0896937,0.0893647,4.94612,4,0.00504,10,0.000442008,-2.30574,0.404898,0.145716,28.0941,0.0893647,
2,1,0,1,0,7077.03,0.0971794,0.0968555,5.21099,4,0.00567464,10,0.000504713,-2.28308,0.260767,0.226256,46.0212,0.0968555,
2,1,0,1,0,7077.15,0.104674,0.104349,5.5953,4,0.00635027,10,0.000583865,-2.25218,0.202782,0.290953,63.5648,0.104349,
2,1,0,1,0,7077.28,0.112163,0.111875,6.07134,4,0.00708007,10,0.000679232,-2.21672,0.22459,0.2627,62.2484,0.111875,
2,1,0,1,0,7077.4,0.119657,0.11932,6.53197,4,0.00786984,10,0.000779392,-2.18496,0.304553,0.193726,49.2872,0.11932,
2,1,0,1,0,7077.53,0.127143,0.126815,6.86749,4,0.00870883,10,0.000870899,-2.1632,0.382389,0.154293,41.3423,0.1268148,
2,1,0,1,0,7077.65,0.134638,0.1343,7.1471,4,0.00958717,10,0.000959856,-2.14587,0.464937,0.126899,35.4495,0.1343,
2,1,0,1,0,7077.78,0.142126,0.141794,7.31662,4,0.0104951,10,0.00103745,-2.13569,5.86224,0.0100644,2.87077,0.141794,
2,1,0,1,0,7077.9,0.149621,0.149312,7.01306,4,0.0114001,10,0.00104713,-2.15409,-0.171601,-0.34382,-93.6187,0.149312,
2,1,0,1,0,7078.03,0.157107,0.156831,5.95642,4,0.0122171,10,0.000934154,-2.22501,-0.0787804,-0.748917,-173.291,0.156831,
2,1,0,1,0,7078.15,0.164602,0.164322,4.7387,4,0.012883,10,0.000778672,-2.32434,-0.0817549,-0.72167,-133.787,0.164322,
2,1,0,1,0,7078.28,0.17209,0.171837,3.94999,4,0.013423,10,0.000678756,-2.4034,-0.112876,-0.522696,-80.9466,0.171837,
2,1,0,1,0,7078.4,0.179585,0.179281,3.48468,4,0.0138875,10,0.000624737,-2.45784,-0.157614,-0.374331,-51.0621,0.1792808,
2,1,0,1,0,7078.53,0.187072,0.186801,3.19381,4,0.0143047,10,0.000596607,-2.49569,-0.234005,-0.252131,-31.3435,0.186801,
2,1,0,1,0,7078.65,0.194566,0.194243,2.98454,4,0.0146909,10,0.000579725,-2.52512,-0.344106,-0.171459,-19.9619,0.194243,
2,1,0,1,0,7078.78,0.202055,0.201734,2.83979,4,0.0150557,10,0.000572881,-2.54671,-0.4087,-0.14436,-16.0107,0.201734,
2,1,0,1,0,7078.9,0.209549,0.209246,2.74279,4,0.0154062,10,0.000573919,-2.56181,-0.373181,-0.1581,-16.945,0.209246,
2,1,0,1,0,7079.03,0.217036,0.216739,2.66762,4,0.0157455,10,0.000578177,-2.57388,-0.684091,-0.0862458,-8.98184,0.216739,
2,1,0,1,0,7079.15,0.224529,0.224235,2.60919,4,0.0160772,10,0.000585071,-2.58349,-1.87052,-0.0315421,-3.21921,0.224235,
2,1,0,1,0,7079.28,0.232019,0.231718,2.56681,4,0.0164025,10,0.000594775,-2.59061,-2.02261,-0.0291702,-2.92554,0.231718,
2,1,0,1,0,7079.4,0.239513,0.239247,2.53555,4,0.0167232,10,0.000606621,-2.59593,-0.841278,-0.0701314,-6.93656,0.239247,
2,1,0,1,0,7079.53,0.247001,0.246705,2.51137,4,0.0170395,10,0.000619567,-2.60009,-1.17089,-0.0503889,-4.91256,0.246705,
2,1,0,1,0,7079.65,0.254493,0.254213,2.47436,4,0.0173525,10,0.000629014,-2.60654,-2.71441,-0.0217358,-2.10069,0.2542133,
2,1,0,1,0,7079.78,0.261983,0.261741,2.4419,4,0.0176619,10,0.000639145,-2.61227,-1.98326,-0.0297491,-2.84968,0.261741,
2,1,0,1,0,7079.9,0.269477,0.269183,2.42223,4,0.0179683,10,0.000652021,-2.61579,-2.18936,-0.0269485,-2.55187,0.269183,
2,1,0,1,0,7080.03,0.276965,0.276657,2.40332,4,0.0182714,10,0.000664895,-2.61919,-1.23865,-0.0476326,-4.45777,0.276657,
2,1,0,1,0,7080.15,0.284457,0.284187,2.37965,4,0.0185717,10,0.000676266,-2.62349,-2.24065,-0.0263317,-2.43957,0.284187,
2,1,0,1,0,7080.27,0.291947,0.291638,2.34298,4,0.0188686,10,0.000683301,-2.63023,-1.73216,-0.0340614,-3.12663,0.2916379,
2,1,0,1,0,7080.4,0.29944,0.299169,2.31902,4,0.0191625,10,0.000693778,-2.6347,-0.00468387,-12.5964,-758.365,0.299169,
2,0,0,1,0,7080.51,0.293742,0.293403,-0.736778,4,0.0191755,10,-0.000216173,-3.13266,-0.02233,-2.64219,70.4139,0.293403,
2,0,0,1,0,7080.64,0.286254,0.285959,-1.02922,4,0.019061,10,-0.000294315,-2.98749,-0.0850678,-0.693565,27.6094,0.2859593,
2,0,0,1,0,7080.76,0.278761,0.278482,-1.1933,4,0.0189196,10,-0.000332311,-2.92325,-0.134279,-0.439383,20.437,0.278482,
2,0,0,1,0,7080.89,0.271272,0.270993,-1.31584,4,0.0187604,10,-0.000356583,-2.8808,-0.180807,-0.326316,16.7729,0.270993,
2,0,0,1,0,7081.01,0.263778,0.263537,-1.41709,4,0.0185871,10,-0.000373456,-2.8486,-0.298188,-0.197862,10.9302,0.263537,
2,0,0,1,0,7081.14,0.25629,0.255936,-1.51173,4,0.0184024,10,-0.000386907,-2.82053,-0.362652,-0.16269,9.52137,0.255936,
2,0,0,1,0,7081.26,0.248797,0.248484,-1.58561,4,0.0182073,10,-0.000393999,-2.7998,-0.360502,-0.163661,10.1139,0.248484,
2,0,0,1,0,7081.39,0.241308,0.241037,-1.64393,4,0.0180032,10,-0.000396247,-2.78412,-0.416645,-0.141608,9.15566,0.241037,
2,0,0,1,0,7081.51,0.233814,0.233476,-1.71801,4,0.0177903,10,-0.000401113,-2.76497,-0.455232,-0.129604,8.71583,0.233476,
2,0,0,1,0,7081.64,0.226326,0.226031,-1.79511,4,0.017569,10,-0.000405749,-2.74591,-0.590348,-0.0999411,6.97024,0.2260309,
2,0,0,1,0,7081.76,0.218834,0.218522,-1.86033,4,0.0173392,10,-0.000406521,-2.73041,-0.404761,-0.145765,10.5412,0.218522,
2,0,0,1,0,7081.89,0.211344,0.211051,-1.91961,4,0.0171015,10,-0.000405136,-2.71679,-0.576955,-0.102261,7.67422,0.211051,
2,0,0,1,0,7082.01,0.203856,0.203569,-1.99276,4,0.0168547,10,-0.000405665,-2.70054,-0.745038,-0.0791906,6.17187,0.203569,
2,0,0,1,0,7082.14,0.196362,0.196053,-2.07501,4,0.0165986,10,-0.000406811,-2.68298,-0.444409,-0.132761,10.7493,0.196053,
2,0,0,1,0,7082.26,0.18887,0.188548,-2.16811,4,0.0163317,10,-0.000408793,-2.66392,-0.30089,-0.196085,16.5588,0.1885483,
2,0,0,1,0,7082.39,0.18138,0.181068,-2.28058,4,0.0160522,10,-0.00041294,-2.64195,-0.265822,-0.221953,19.7959,0.181068,
2,0,0,1,0,7082.51,0.173892,0.173577,-2.42541,4,0.0157566,10,-0.000420995,-2.61522,-0.235589,-0.250436,23.7468,0.173577,
2,0,0,1,0,7082.64,0.166398,0.166082,-2.63723,4,0.0154392,10,-0.000437997,-2.57885,-0.208655,-0.282764,29.0778,0.166082,
2,0,0,1,0,7082.76,0.158905,0.158556,-2.93636,4,0.0150906,10,-0.000465578,-2.53219,-0.138543,-0.425861,48.8005,0.158556,
2,0,0,1,0,7082.89,0.151417,0.151094,-3.4029,4,0.0146948,10,-0.000514159,-2.46815,-0.0987507,-0.597464,79.6222,0.151094,
2,0,0,1,0,7083.01,0.143927,0.143576,-4.14165,4,0.0142243,10,-0.000594641,-2.38283,-0.0801761,-0.735881,119.242,0.143576,
2,0,0,1,0,7083.14,0.136435,0.136133,-5.14188,4,0.0136435,10,-0.00069998,-2.28888,-0.0847803,-0.695916,139.645,0.136133,
2,0,0,1,0,7083.26,0.128941,0.128659,-6.18441,4,0.0129328,10,-0.00079568,-2.2087,-0.111973,-0.526913,126.708,0.128659,
2,0,0,1,0,7083.38,0.121453,0.121149,-6.9732,4,0.0121063,10,-0.000844798,-2.15657,-0.191817,-0.307585,83.4557,0.1211492,
2,0,0,1,0,7083.51,0.113963,0.113606,-7.40088,4,0.0112033,10,-0.000840781,-2.13072,-0.496073,-0.118934,34.3234,0.113606,
2,0,0,1,0,7083.63,0.106471,0.10619,-7.49287,4,0.0102669,10,-0.000795669,-2.12535,1.49293,0.0395196,-11.5599,0.1061902,
2,0,0,1,0,7083.76,0.0989825,0.0986316,-7.30286,4,0.00933849,10,-0.000720293,-2.13651,0.396142,0.148937,-42.3601,0.0986316,
2,0,0,1,0,7083.88,0.0914889,0.0911785,-6.8859,4,0.00844932,10,-0.000627846,-2.16204,0.269047,0.219292,-58.8731,0.0911785,
2,0,0,1,0,7084.01,0.0839993,0.0837027,-6.42833,4,0.0076172,10,-0.000538069,-2.1919,0.265247,0.222434,-55.8262,0.0837027,
2,0,0,1,0,7084.13,0.076507,0.0761872,-6.09281,4,0.00683439,10,-0.000464194,-2.21518,0.352439,0.167405,-39.8441,0.0761872,
2,0,0,1,0,7084.26,0.0690187,0.0687137,-5.86497,4,0.00608686,10,-0.000403004,-2.23173,0.45869,0.128627,-29.4348,0.0687137,
2,0,0,1,0,7084.38,0.0615251,0.0611825,-5.67588,4,0.00536382,10,-0.000347264,-2.24597,0.565536,0.104326,-23.1284,0.0611825,
2,0,0,1,0,7084.51,0.0540355,0.0537429,-5.49719,4,0.00466427,10,-0.000295434,-2.25986,0.625598,0.0943098,-20.2199,0.0537429,
2,0,0,1,0,7084.63,0.0465432,0.0462656,-5.30007,4,0.00398753,10,-0.000245211,-2.27572,0.446834,0.13204,-27.3048,0.0462656,
2,0,0,1,0,7084.76,0.0390549,0.0387065,-5.08926,4,0.00333711,10,-0.000196987,-2.29335,0.346414,0.170316,-33.7632,0.0387065,
2,0,0,1,0,7084.88,0.0315613,0.0312268,-4.83507,4,0.00271555,10,-0.000150984,-2.3156,0.324675,0.18172,-34.2451,0.0312268,
2,0,0,1,0,7085.01,0.0240717,0.0237773,-4.56918,4,0.00212673,10,-0.000108643,-2.34016,0.332439,0.177476,-31.6951,0.0237773,
2,0,0,1,0,7085.13,0.0165781,0.0162842,-4.34174,4,0.00156797,10,-7.07016e-05,-2.36234,0.374982,0.157341,-26.7677,0.0162842,
2,0,0,1,0,7085.26,0.00909108,0.00877857,-4.19427,4,0.00103344,10,-3.68197e-05,-2.37734,0.555871,0.10614,-17.3658,0.008778573,
2,0,0,1,0,7085.38,0.00159616,0.00126589,-4.1429,4,0.000513898,10,-5.24444e-06,-2.3827, , , ,0.001265888,
2,0,0,1,0,7085.41,0.000199195,-0.00019553,-4.1036,4,0.000417405,10,8.02375e-07,-2.38684, , , ,-0.00019553,