Folder: Figs_alphaMnO2_OER_Tafel_sleope/Figure_codes/Fig_3-5/rawdata_trumpetplot_data/after 10th (part 17)

File: 20221101_1-115_003_TrumpetPlot_ParaChange_from10_every3_02_CV_C01_33.csv
mode,ox/red,error,control changes,counter inc.,time/s,control/V,Ewe/V,<I>/mA,cycle number,(Q-Qo)/C,I Range,P/W,log(|I|),Tafel slope mV/dec,alpha_eff,dI/d(E-IR),E-IR/V,
2,0,0,1,0,65354.3,2.44065e-05,-0.000306236,-0.396421,34,0.0000000E+000,10,1.21398e-07,-3.40184, , , ,-0.000306236,
2,0,0,1,0,65361.6,0.00729061,0.00700416,-0.0958076,34,-0.000981204,10,-6.71052e-07,-4.0186,-0.030075,-1.96176,7.4451,0.00700416,
2,0,0,1,0,65369.1,0.0147815,0.0144344,-0.0595405,34,-0.00147886,10,-8.59433e-07,-4.22519,-0.0398425,-1.48083,3.42544,0.0144344,
2,0,0,1,0,65376.6,0.0222725,0.0219369,-0.0384421,34,-0.00177438,10,-8.43298e-07,-4.41519,-0.0385411,-1.53084,2.31359,0.02193686,
2,0,0,1,0,65384.1,0.0297635,0.0294636,-0.0230229,34,-0.00193933,10,-6.78337e-07,-4.63784,-0.0303808,-1.94201,1.73598,0.0294636,
2,0,0,1,0,65391.6,0.0372544,0.0369309,-0.0108214,34,-0.00199979,10,-3.99644e-07,-4.96572,-0.0145167,-4.06427,1.6361,0.0369309,
2,0,0,1,0,65399.1,0.0447454,0.0444334,0.00108503,34,-0.00197115,10,4.82116e-08,-5.96456,0.0301733,1.95537,1.5263,0.0444334,
2,1,0,1,0,65406.5,0.0522363,0.0519113,0.0103887,34,-0.00186082,10,5.39292e-07,-4.98344,0.0162249,3.63639,1.43725,0.0519113,
2,1,0,1,0,65414,0.0597273,0.0594201,0.0196924,34,-0.00167695,10,1.17013e-06,-4.7057,0.0448384,1.31584,1.00746,0.0594201,
2,1,0,1,0,65421.5,0.0672183,0.0669024,0.027961,34,-0.00143211,10,1.87066e-06,-4.55345,0.0620405,0.950992,1.01003,0.0669024,
2,1,0,1,0,65429,0.0747092,0.0744058,0.0345536,34,-0.00112963,10,2.57099e-06,-4.46151,0.089731,0.657521,0.896016,0.0744058,
2,1,0,1,0,65436.5,0.0822001,0.0818741,0.0413303,34,-0.000773555,10,3.38388e-06,-4.38373,0.0984399,0.599351,0.980714,0.0818741,
2,1,0,1,0,65444,0.0896911,0.0893967,0.050778,34,-0.000357086,10,4.53939e-06,-4.29432,0.0948132,0.622276,1.23289,0.0893967,
2,1,0,1,0,65451.5,0.0971821,0.0968515,0.0601216,34,0.000126625,10,5.82287e-06,-4.22097,0.0924137,0.638433,1.48464,0.0968515,
2,1,0,1,0,65459,0.104673,0.104395,0.0708132,34,0.000684164,10,7.39256e-06,-4.14989,0.128121,0.460501,1.25284,0.104395,
2,1,0,1,0,65466.5,0.112164,0.11182,0.0784978,34,0.00131318,10,8.77762e-06,-4.10514,0.242081,0.24372,0.743744,0.11182,
2,1,0,1,0,65474,0.119655,0.119324,0.0865527,34,0.00200496,10,1.03278e-05,-4.06272,0.32079,0.183921,0.621896,0.119324,
2,1,0,1,0,65481.5,0.127146,0.126815,0.0907353,34,0.00274619,10,1.15066e-05,-4.04222,0.472861,0.124772,0.445627,0.126815,
2,1,0,1,0,65488.9,0.134637,0.134307,0.0886789,34,0.00350179,10,1.19102e-05,-4.05218,-0.185816,-0.317519,-1.10025,0.1343071,
2,1,0,1,0,65496.4,0.142128,0.141769,0.0746148,34,0.00418892,10,1.05781e-05,-4.12718,-0.0705503,-0.836282,-2.40669,0.1417691,
2,1,0,1,0,65503.9,0.149619,0.149293,0.0594474,34,0.00475152,10,8.87506e-06,-4.22587,-0.10282,-0.57382,-1.33783,0.149293,
2,1,0,1,0,65511.4,0.15711,0.156803,0.0524744,34,0.00523225,10,8.22812e-06,-4.28005,-0.16813,-0.350918,-0.721343,0.156803,
2,1,0,1,0,65518.9,0.164601,0.16429,0.0516853,34,0.00568351,10,8.49139e-06,-4.28663,-0.551323,-0.107015,-0.214503,0.16429,
2,1,0,1,0,65526.4,0.172091,0.171792,0.0504567,34,0.0061258,10,8.66808e-06,-4.29708,0.704384,0.0837612,0.165174,0.171792,
2,1,0,1,0,65533.9,0.179582,0.179246,0.0514254,34,0.00656937,10,9.21779e-06,-4.28882,1.02555,0.0575301,0.115543,0.179246,
2,1,0,1,0,65541.4,0.187073,0.186747,0.0516743,34,0.00701734,10,9.65005e-06,-4.28673,0.629755,0.0936872,0.189146,0.186747,
2,1,0,1,0,65548.9,0.194564,0.194214,0.0530604,34,0.00747038,10,1.03051e-05,-4.27523,6.69513,0.00881238,0.0182066,0.194214,
2,1,0,1,0,65556.4,0.202055,0.20175,0.0537691,34,0.00792859,10,1.08479e-05,-4.26947,8.97328,0.00657508,0.0138023,0.20175,
2,1,0,1,0,65563.9,0.209546,0.20925,0.0545256,34,0.00839375,10,1.14095e-05,-4.2634,0.759737,0.0776585,0.165992,0.20925,
2,1,0,1,0,65571.3,0.217037,0.216722,0.0552339,34,0.00886445,10,1.19704e-05,-4.25779,-19.8344,-0.00297463,-0.00643504,0.216722,
2,1,0,1,0,65578.8,0.224528,0.224187,0.0566277,34,0.00934028,10,1.26952e-05,-4.24697,0.547929,0.107678,0.236894,0.224187,
2,1,0,1,0,65586.3,0.232019,0.231682,0.0566343,34,0.009825,10,1.31211e-05,-4.24692,2.03587,0.0289803,0.0650823,0.231682,
2,1,0,1,0,65593.8,0.23951,0.239159,0.0587861,34,0.0103146,10,1.40592e-05,-4.23073,0.277262,0.212795,0.48873,0.239159,
2,1,0,1,0,65601.3,0.247001,0.246657,0.0595729,34,0.0108145,10,1.46941e-05,-4.22495,0.804441,0.0733429,0.17014,0.246657,
2,1,0,1,0,65608.8,0.254492,0.254186,0.0609089,34,0.0113212,10,1.54822e-05,-4.21532,1.01902,0.0578989,0.137965,0.254186,
2,1,0,1,0,65616.3,0.261983,0.261666,0.061922,34,0.0118351,10,1.62029e-05,-4.20816,0.552533,0.106781,0.256918,0.261666,
2,1,0,1,0,65623.8,0.269474,0.269206,0.0626646,34,0.0123573,10,1.68697e-05,-4.20298,0.786154,0.0750489,0.183787,0.269206,
2,1,0,1,0,65631.3,0.276965,0.276645,0.0630523,34,0.0128831,10,1.74431e-05,-4.2003,0.72592,0.0812762,0.201937,0.276645,
2,1,0,1,0,65638.8,0.284456,0.284146,0.0642485,34,0.0134149,10,1.82559e-05,-4.19214,4.59349,0.0128443,0.0320719,0.284146,
2,1,0,1,0,65646.3,0.291947,0.291645,0.0648865,34,0.0139493,10,1.89238e-05,-4.18785,1.3107,0.045014,0.113806,0.2916449,
2,1,0,1,0,65653.7,0.299438,0.299136,0.0659996,34,0.0144904,10,1.97428e-05,-4.18046,-0.00413022,-14.2849,-22.9827,0.299136,
2,1,0,1,0,65660.6,0.293745,0.293453,0.00747211,34,0.0145885,10,2.19271e-06,-5.12656,0.0116054,5.08384,1.59093,0.293453,
2,1,0,1,0,65668.1,0.286254,0.285943,-0.000775948,34,0.0145595,10,-2.21877e-07,-6.11017,-0.0100881,-5.84845,0.836633,0.285943,
2,1,0,1,0,65675.6,0.278763,0.278436,-0.0063424,34,0.0144803,10,-1.76596e-06,-5.19775,-0.0229771,-2.56777,0.633158,0.278436,
2,0,0,1,0,65683.1,0.271272,0.270939,-0.0111576,34,0.0143604,10,-3.02304e-06,-4.95243,-0.0573485,-1.0288,0.446015,0.270939,
2,0,0,1,0,65690.6,0.263781,0.263504,-0.015093,34,0.0142075,10,-3.97705e-06,-4.82123,-0.0788342,-0.748406,0.434788,0.263504,
2,0,0,1,0,65698,0.25629,0.255949,-0.0184412,34,0.0140272,10,-4.72e-06,-4.73421,-0.100076,-0.589552,0.42259,0.255949,
2,0,0,1,0,65705.5,0.248799,0.248466,-0.0217495,34,0.0138213,10,-5.40402e-06,-4.66255,-0.12806,-0.46072,0.396935,0.248466,
2,0,0,1,0,65713,0.241308,0.241018,-0.0247549,34,0.0135921,10,-5.96638e-06,-4.60634,-0.130959,-0.450523,0.431927,0.241018,
2,0,0,1,0,65720.5,0.233817,0.233481,-0.0273328,34,0.0133399,10,-6.38169e-06,-4.56332,-0.191699,-0.307775,0.327824,0.2334805,
2,0,0,1,0,65728,0.226326,0.226025,-0.0304678,34,0.0130666,10,-6.88647e-06,-4.51616,-0.23455,-0.251546,0.300746,0.226025,
2,0,0,1,0,65735.5,0.218835,0.218501,-0.0335568,34,0.0127694,10,-7.33219e-06,-4.47422,-0.237253,-0.24868,0.322854,0.218501,
2,0,0,1,0,65743,0.211344,0.211068,-0.0360401,34,0.0124502,10,-7.60691e-06,-4.44321,-0.263494,-0.223914,0.317,0.211068,
2,0,0,1,0,65750.5,0.203853,0.203542,-0.0387328,34,0.0121092,10,-7.88376e-06,-4.41192,-0.346549,-0.17025,0.25793,0.2035421,
2,0,0,1,0,65758,0.196362,0.196097,-0.0420195,34,0.0117495,10,-8.23989e-06,-4.37655,-0.163721,-0.360368,0.582622,0.196097,
2,0,0,1,0,65765.5,0.188871,0.188523,-0.0443057,34,0.0113671,10,-8.35267e-06,-4.35354,-0.170763,-0.345508,0.591353,0.188523,
2,0,0,1,0,65773,0.18138,0.181079,-0.0476719,34,0.0109606,10,-8.6324e-06,-4.32174,-0.251048,-0.235015,0.438239,0.181079,
2,0,0,1,0,65780.4,0.173889,0.173532,-0.0515741,34,0.0105272,10,-8.94974e-06,-4.28757,-0.211967,-0.278345,0.557572,0.1735315,
2,0,0,1,0,65787.9,0.166398,0.166087,-0.0561344,34,0.0100592,10,-9.32322e-06,-4.25077,-0.171321,-0.344382,0.762216,0.166087,
2,0,0,1,0,65795.4,0.158907,0.158624,-0.0620806,34,0.00954857,10,-9.84749e-06,-4.20704,-0.178356,-0.3308,0.806874,0.158624,
2,0,0,1,0,65802.9,0.151416,0.151077,-0.0699645,34,0.00898692,10,-1.057e-05,-4.15512,-0.123493,-0.47776,1.31673,0.151077,
2,0,0,1,0,65810.4,0.143926,0.143614,-0.0826524,34,0.00834914,10,-1.18701e-05,-4.08274,-0.0870396,-0.677852,2.17705,0.143614,
2,0,0,1,0,65817.9,0.136435,0.13609,-0.101175,34,0.00759386,10,-1.37689e-05,-3.99492,-0.0804003,-0.733828,2.88682,0.13609,
2,0,0,1,0,65825.4,0.128944,0.128615,-0.121122,34,0.00668613,10,-1.55781e-05,-3.91678,-0.13606,-0.433631,2.04147,0.128615,
2,0,0,1,0,65832.9,0.121453,0.121103,-0.132899,34,0.00565533,10,-1.60944e-05,-3.87648,-0.289827,-0.203569,1.05462,0.121103,
2,0,0,1,0,65840.4,0.113962,0.113632,-0.135761,34,0.00456958,10,-1.54268e-05,-3.86723,-3.76361,-0.0156764,0.0833828,0.1136324,
2,0,0,1,0,65847.9,0.106471,0.106116,-0.137052,34,0.00347246,10,-1.45434e-05,-3.86311,-4.69429,-0.0125685,0.0673604,0.106116,
2,0,0,1,0,65855.4,0.0989798,0.0986795,-0.135938,34,0.00237666,10,-1.34143e-05,-3.86666,1.9139,0.0308271,-0.163244,0.09867949,
2,0,0,1,0,65862.8,0.0914889,0.0911782,-0.133192,34,0.00129288,10,-1.21442e-05,-3.87552,0.767077,0.0769154,-0.398251,0.0911782,
2,0,0,1,0,65870.3,0.083998,0.0836664,-0.12928,34,0.000239515,10,-1.08164e-05,-3.88847,0.425697,0.138596,-0.694945,0.0836664,
2,0,0,1,0,65877.8,0.076507,0.0761353,-0.125754,34,-0.000785153,10,-9.57433e-06,-3.90048,0.636611,0.0926782,-0.452686,0.0761353,
2,0,0,1,0,65885.3,0.069016,0.0686795,-0.121541,34,-0.0017847,10,-8.34736e-06,-3.91528,0.570625,0.103395,-0.493489,0.0686795,
2,0,0,1,0,65892.8,0.0615251,0.0612154,-0.119307,34,-0.00275989,10,-7.30342e-06,-3.92333,0.631554,0.0934203,-0.433505,0.0612154,
2,0,0,1,0,65900.3,0.0540342,0.0536918,-0.115627,34,-0.00371083,10,-6.20824e-06,-3.93694,1.16387,0.0506931,-0.228596,0.0536918,
2,0,0,1,0,65907.8,0.0465432,0.0462361,-0.112953,34,-0.00464045,10,-5.22253e-06,-3.9471,0.644883,0.0914895,-0.403983,0.0462361,
2,0,0,1,0,65915.3,0.0390522,0.0387199,-0.110604,34,-0.00554949,10,-4.28257e-06,-3.95623,0.600915,0.0981836,-0.422521,0.0387199,
2,0,0,1,0,65922.8,0.0315613,0.0312483,-0.108229,34,-0.00643852,10,-3.38197e-06,-3.96566,0.52473,0.112439,-0.473918,0.0312483,
2,0,0,1,0,65930.3,0.0240703,0.0237618,-0.106405,34,-0.0073105,10,-2.52837e-06,-3.97304,2.4864,0.0237291,-0.0986656,0.0237618,
2,0,0,1,0,65937.8,0.0165794,0.0162362,-0.105731,34,-0.00817344,10,-1.71666e-06,-3.9758,-1.07739,-0.054762,0.226479,0.0162362,
2,0,0,1,0,65945.2,0.00908843,0.008756,-0.107001,34,-0.00903978,10,-9.36902e-07,-3.97061,-0.684886,-0.0861457,0.360886,0.008756,
2,0,0,1,0,65952.7,0.00159744,0.00124721,-0.110436,34,-0.00992309,10,-1.37737e-07,-3.95689, , , ,0.00124721,
2,0,0,1,0,65954.1,0.000199235,-0.000136315,-0.111155,34,-0.0100906,10,1.5152e-08,-3.95407, , , ,-0.000136315,

File: 20221101_1-115_003_TrumpetPlot_ParaChange_from10_every3_02_CV_C01_34.csv
mode,ox/red,error,control changes,counter inc.,time/s,control/V,Ewe/V,<I>/mA,cycle number,(Q-Qo)/C,I Range,P/W,log(|I|),Tafel slope mV/dec,alpha_eff,dI/d(E-IR),E-IR/V,
2,0,0,1,0,67324.5,2.44065e-05,-0.000363498,-0.398965,35,0.0000000E+000,10,1.45023e-07,-3.39907, , , ,-0.000363498,
2,0,0,1,0,67331.7,0.00729061,0.00699251,-0.099477,35,-0.00100657,10,-6.95594e-07,-4.00228,-0.0302251,-1.95202,7.64825,0.00699251,
2,0,0,1,0,67339.2,0.0147815,0.0144461,-0.0624856,35,-0.00153054,10,-9.02674e-07,-4.20422,-0.0393378,-1.49983,3.70266,0.0144461,
2,0,0,1,0,67346.7,0.0222725,0.0219814,-0.0407926,35,-0.00184647,10,-8.96676e-07,-4.38942,-0.0382426,-1.54278,2.45855,0.0219814,
2,0,0,1,0,67354.2,0.0297635,0.0294626,-0.025267,35,-0.0020255,10,-7.44431e-07,-4.59745,-0.0322812,-1.82769,1.79607,0.0294626,
2,0,0,1,0,67361.7,0.0372544,0.0369044,-0.0126381,35,-0.00209892,10,-4.66403e-07,-4.89832,-0.0162407,-3.63284,1.72991,0.0369044,
2,0,0,1,0,67369.2,0.0447454,0.0444355,-0.00119128,35,-0.00208133,10,-5.2935e-08,-5.92399,-0.0118305,-4.98712,1.54097,0.0444355,
2,0,0,1,0,67376.7,0.0522363,0.0518965,0.00879614,35,-0.00198041,10,4.56489e-07,-5.05571,0.0131902,4.473,1.53545,0.0518965,
2,1,0,1,0,67384.2,0.0597273,0.0594064,0.018466,35,-0.00180509,10,1.097e-06,-4.73363,0.0370049,1.59438,1.12184,0.0594064,
2,1,0,1,0,67391.7,0.0672183,0.0668897,0.0266246,35,-0.0015656,10,1.78091e-06,-4.57472,0.059064,0.998917,1.01619,0.0668897,
2,1,0,1,0,67399.1,0.0747092,0.0743909,0.0340706,35,-0.00126603,10,2.53455e-06,-4.46762,0.0799987,0.737512,0.97889,0.0743909,
2,1,0,1,0,67406.6,0.0822001,0.0818296,0.040313,35,-0.000913739,10,3.2988e-06,-4.39455,0.0781275,0.755175,1.20664,0.0818296,
2,1,0,1,0,67414.1,0.0896911,0.089383,0.0493479,35,-0.000502498,10,4.41086e-06,-4.30673,0.0865976,0.681312,1.31902,0.089383,
2,1,0,1,0,67421.6,0.0971821,0.0968175,0.0587645,35,-2.51276e-05,10,5.68943e-06,-4.23089,0.086094,0.685297,1.55467,0.0968175,
2,1,0,1,0,67429.1,0.104673,0.104336,0.0688955,35,0.000525196,10,7.18827e-06,-4.16181,0.122766,0.480589,1.27478,0.104336,
2,1,0,1,0,67436.6,0.112164,0.111866,0.0768566,35,0.00114657,10,8.59761e-06,-4.11432,0.185923,0.317336,0.952762,0.111866,
2,1,0,1,0,67444.1,0.119655,0.119371,0.0846135,35,0.00183049,10,1.01004e-05,-4.07256,0.265468,0.222249,0.733285,0.119371,
2,1,0,1,0,67451.6,0.127146,0.126833,0.0896288,35,0.00256193,10,1.13679e-05,-4.04755,0.423293,0.139383,0.488909,0.126833,
2,1,0,1,0,67459.1,0.134637,0.134307,0.0870222,35,0.00331179,10,1.16877e-05,-4.06037,-0.161568,-0.365171,-1.24518,0.134307,
2,1,0,1,0,67466.6,0.142128,0.141814,0.0731558,35,0.00399035,10,1.03745e-05,-4.13575,-0.0782618,-0.75388,-2.13787,0.141814,
2,1,0,1,0,67474.1,0.149619,0.149291,0.0576905,35,0.00454931,10,8.61265e-06,-4.2389,-0.0953112,-0.619025,-1.41309,0.149291,
2,1,0,1,0,67481.5,0.15711,0.15675,0.0517678,35,0.00502569,10,8.11458e-06,-4.28594,-0.26555,-0.222181,-0.452808,0.1567495,
2,1,0,1,0,67489,0.164601,0.164261,0.0499449,35,0.00547496,10,8.20402e-06,-4.30151,-0.793162,-0.0743858,-0.145318,0.164261,
2,1,0,1,0,67496.5,0.172091,0.171775,0.050399,35,0.00591634,10,8.6573e-06,-4.29758,1.03258,0.0571382,0.11195,0.171775,
2,1,0,1,0,67504,0.179582,0.179237,0.0510322,35,0.00636234,10,9.14688e-06,-4.29216,9.32267,0.00632866,0.0126106,0.1792375,
2,1,0,1,0,67511.5,0.187073,0.186803,0.0518902,35,0.0068103,10,9.69322e-06,-4.28491,0.760316,0.0775994,0.155427,0.186803,
2,1,0,1,0,67519,0.194564,0.194233,0.0527913,35,0.00726542,10,1.02538e-05,-4.27744,53.4314,0.00110422,0.00226548,0.194233,
2,1,0,1,0,67526.5,0.202055,0.201734,0.0530206,35,0.00772371,10,1.06961e-05,-4.27556,0.794349,0.0742747,0.15475,0.2017341,
2,1,0,1,0,67534,0.209546,0.209239,0.0539798,35,0.0081878,10,1.12947e-05,-4.26777,0.637823,0.0925022,0.1946,0.209239,
2,1,0,1,0,67541.5,0.217037,0.216713,0.0545575,35,0.00865594,10,1.18233e-05,-4.26315,0.831614,0.0709464,0.151824,0.216713,
2,1,0,1,0,67549,0.224528,0.22422,0.0558604,35,0.00913194,10,1.2525e-05,-4.2529,0.666155,0.088568,0.193426,0.22422,
2,1,0,1,0,67556.5,0.232019,0.2317,0.0570253,35,0.00961538,10,1.32128e-05,-4.24393,0.498333,0.118395,0.263762,0.2317,
2,1,0,1,0,67563.9,0.23951,0.239158,0.0583349,35,0.0101087,10,1.39513e-05,-4.23407,4.33364,0.0136144,0.0307361,0.239158,
2,1,0,1,0,67571.4,0.247001,0.246704,0.0592395,35,0.0106077,10,1.46146e-05,-4.22739,0.75717,0.0779217,0.179542,0.246704,
2,1,0,1,0,67578.9,0.254492,0.254206,0.0603178,35,0.0111152,10,1.53331e-05,-4.21955,-13.4157,-0.00439782,-0.0103881,0.254206,
2,1,0,1,0,67586.4,0.261983,0.261663,0.0611687,35,0.011628,10,1.60056e-05,-4.21347,0.657309,0.08976,0.21429,0.2616629,
2,1,0,1,0,67593.9,0.269474,0.269171,0.0618557,35,0.0121477,10,1.66497e-05,-4.20862,1.45575,0.0405289,0.0978831,0.269171,
2,1,0,1,0,67601.4,0.276965,0.276671,0.0629081,35,0.0126719,10,1.74049e-05,-4.20129,0.745454,0.0791464,0.195106,0.2766709,
2,1,0,1,0,67608.9,0.284456,0.284167,0.0641441,35,0.0132035,10,1.82276e-05,-4.19284,1521.6,3.87749e-05,9.68394e-05,0.284167,
2,1,0,1,0,67616.4,0.291947,0.291654,0.0649386,35,0.0137413,10,1.89396e-05,-4.1875,2.29444,0.0257144,0.0650699,0.291654,
2,1,0,1,0,67623.9,0.299438,0.299166,0.0650331,35,0.0142842,10,1.94557e-05,-4.18687,-0.0042579,-13.8566,-22.8358,0.299166,
2,1,0,1,0,67630.7,0.293745,0.293418,0.00814375,35,0.0143838,10,2.38952e-06,-5.08918,0.0118102,4.99569,1.61103,0.2934179,
2,0,0,1,0,67638.2,0.286254,0.285945,-0.000482016,35,0.0143563,10,-1.3783e-07,-6.31694,-0.0172732,-3.4157,0.827449,0.285945,
2,1,0,1,0,67645.7,0.278763,0.27847,-0.00645124,35,0.014276,10,-1.79648e-06,-5.19036,-0.0191478,-3.0813,0.732836,0.27847,
2,0,0,1,0,67653.2,0.271272,0.270963,-0.011326,35,0.0141538,10,-3.06892e-06,-4.94592,-0.0652961,-0.903576,0.394196,0.270963,
2,0,0,1,0,67660.7,0.263781,0.263502,-0.0153366,35,0.0139989,10,-4.04121e-06,-4.81427,-0.0563849,-1.04638,0.613577,0.263502,
2,0,0,1,0,67668.2,0.25629,0.255935,-0.0187813,35,0.0138136,10,-4.80678e-06,-4.72627,-0.13057,-0.451867,0.326438,0.255935,
2,0,0,1,0,67675.7,0.248799,0.248525,-0.0215498,35,0.0136044,10,-5.35566e-06,-4.66656,-0.11539,-0.511307,0.437552,0.248525,
2,0,0,1,0,67683.2,0.241308,0.241019,-0.024896,35,0.0133725,10,-6.00042e-06,-4.60387,-0.123672,-0.47707,0.455122,0.241019,
2,0,0,1,0,67690.6,0.233817,0.233521,-0.0276022,35,0.0131187,10,-6.44569e-06,-4.55906,-0.138488,-0.42603,0.45837,0.233521,
2,0,0,1,0,67698.1,0.226326,0.226025,-0.0305405,35,0.012841,10,-6.9029e-06,-4.51512,-0.149719,-0.394071,0.469343,0.226025,
2,0,0,1,0,67705.6,0.218835,0.218519,-0.0336389,35,0.0125409,10,-7.35076e-06,-4.47316,-0.169253,-0.348591,0.454138,0.218519,
2,0,0,1,0,67713.1,0.211344,0.211017,-0.0360987,35,0.0122205,10,-7.61744e-06,-4.44251,-0.220335,-0.267774,0.376806,0.211017,
2,0,0,1,0,67720.6,0.203853,0.203488,-0.0382865,35,0.0118783,10,-7.79085e-06,-4.41695,-0.22635,-0.260658,0.3904,0.203488,
2,0,0,1,0,67728.1,0.196362,0.196014,-0.0414219,35,0.011516,10,-8.11928e-06,-4.38277,-0.343486,-0.171768,0.27496,0.196014,
2,0,0,1,0,67735.6,0.188871,0.188516,-0.0442851,35,0.0111305,10,-8.34846e-06,-4.35374,-0.189668,-0.31107,0.538181,0.188516,
2,0,0,1,0,67743.1,0.18138,0.181111,-0.0476463,35,0.0107203,10,-8.62929e-06,-4.32197,-0.297533,-0.198297,0.368559,0.181111,
2,0,0,1,0,67750.6,0.173889,0.173541,-0.051553,35,0.0102841,10,-8.94657e-06,-4.28775,-0.207418,-0.284449,0.57041,0.173541,
2,0,0,1,0,67758.1,0.166398,0.166087,-0.0556133,35,0.00981596,10,-9.23667e-06,-4.25482,-0.218257,-0.270323,0.59192,0.1660874,
2,0,0,1,0,67765.6,0.158907,0.158568,-0.0607556,35,0.0093096,10,-9.63389e-06,-4.21641,-0.160279,-0.368109,0.882746,0.158568,
2,0,0,1,0,67773,0.151416,0.151113,-0.0690913,35,0.00875275,10,-1.04406e-05,-4.16058,-0.138927,-0.424684,1.14277,0.151113,
2,0,0,1,0,67780.5,0.143926,0.143616,-0.0802385,35,0.0081227,10,-1.15236e-05,-4.09562,-0.0846899,-0.696659,2.20116,0.143616,
2,0,0,1,0,67788,0.136435,0.13614,-0.0989312,35,0.00737833,10,-1.34685e-05,-4.00467,-0.0815129,-0.723811,2.78483,0.13614,
2,0,0,1,0,67795.5,0.128944,0.128673,-0.118685,35,0.00648345,10,-1.52716e-05,-3.9256,-0.118837,-0.496479,2.2917,0.128673,
2,0,0,1,0,67803,0.121453,0.121134,-0.131058,35,0.00546262,10,-1.58755e-05,-3.88254,-0.38038,-0.155108,0.792446,0.121134,
2,0,0,1,0,67810.5,0.113962,0.113627,-0.134161,35,0.004384,10,-1.52443e-05,-3.87237,-3.09398,-0.0190693,0.0999521,0.113627,
2,0,0,1,0,67818,0.106471,0.106183,-0.134971,35,0.00329368,10,-1.43316e-05,-3.86976,-3.77409,-0.0156329,0.0828458,0.106183,
2,0,0,1,0,67825.5,0.0989798,0.0986275,-0.13449,35,0.00220274,10,-1.32644e-05,-3.87131,-11.8117,-0.00499505,0.0263229,0.0986275,
2,0,0,1,0,67833,0.0914889,0.0910966,-0.132346,35,0.00112282,10,-1.20563e-05,-3.87829,0.551228,0.107034,-0.55155,0.0910966,
2,0,0,1,0,67840.5,0.083998,0.0836663,-0.128239,35,7.04625e-05,10,-1.07293e-05,-3.89198,0.399397,0.147723,-0.739124,0.0836663,
2,0,0,1,0,67848,0.076507,0.0761597,-0.124832,35,-0.000953793,10,-9.50713e-06,-3.90368,-0.163611,-0.360612,1.81552,0.0761597,
2,0,0,1,0,67855.4,0.069016,0.0686976,-0.12131,35,-0.0019661,10,-8.33372e-06,-3.9161,0.684936,0.0861394,-0.408771,0.0686976,
2,0,0,1,0,67862.9,0.0615251,0.0611963,-0.118209,35,-0.00294427,10,-7.23395e-06,-3.92735,0.515394,0.114475,-0.527042,0.0611963,
2,0,0,1,0,67870.4,0.0540342,0.053712,-0.115139,35,-0.00389582,10,-6.18434e-06,-3.93878,0.595099,0.0991432,-0.44354,0.053712,
2,0,0,1,0,67877.9,0.0465432,0.0461608,-0.112369,35,-0.00482491,10,-5.18705e-06,-3.94935,0.741469,0.0795718,-0.3481,0.0461608,
2,0,0,1,0,67885.4,0.0390522,0.0387061,-0.109899,35,-0.00573446,10,-4.25375e-06,-3.95901,0.615261,0.0958943,-0.40955,0.0387061,
2,0,0,1,0,67892.9,0.0315613,0.0311709,-0.107146,35,-0.00662538,10,-3.33984e-06,-3.97002,2.52856,0.0233335,-0.0977121,0.0311709,
2,0,0,1,0,67900.4,0.0240703,0.0237427,-0.10656,35,-0.00750324,10,-2.53002e-06,-3.97241,2.10841,0.0279832,-0.116821,0.0237427,
2,0,0,1,0,67907.9,0.0165794,0.0162617,-0.106162,35,-0.00837361,10,-1.72637e-06,-3.97403,-5.02482,-0.0117417,0.048535,0.0162617,
2,0,0,1,0,67915.4,0.00908843,0.00875807,-0.106511,35,-0.00924537,10,-9.32831e-07,-3.97261,-0.916938,-0.0643446,0.269401,0.00875807,
2,0,0,1,0,67922.9,0.00159744,0.00117405,-0.111273,35,-0.0101355,10,-1.30639e-07,-3.95361, , , ,0.00117405,
2,0,0,1,0,67924.3,0.000199235,-0.000206979,-0.111292,35,-0.0103046,10,2.30352e-08,-3.95353, , , ,-0.000206979,