Folder: Figs_alphaMnO2_OER_Tafel_sleope/Figure_codes/Fig_3-5/rawdata_trumpetplot_data/after 10th (part 162)

File: 20221101_1-115_003_TrumpetPlot_ParaChange_from10_every3_11_CV_C01_10.csv
mode,ox/red,error,control changes,counter inc.,time/s,control/V,Ewe/V,<I>/mA,cycle number,(Q-Qo)/C,I Range,P/W,log(|I|),Tafel slope mV/dec,alpha_eff,dI/d(E-IR),E-IR/V,
2,1,0,1,0,20895.8,2.44065e-05,-0.000401673,9.72221,11,0.0000000E+000,10,-3.90515e-06,-2.01223, , , ,-0.000401673,
2,1,0,1,0,20895.8,0.0101427,0.00982277,13.5347,11,0.000300771,10,0.000132948,-1.86855,0.123074,0.479387,251.623,0.00982277,
2,1,0,1,0,20895.9,0.0205441,0.0201957,15.6367,11,0.000682006,10,0.000315794,-1.80585,0.214757,0.274728,167.301,0.0201957,
2,1,0,1,0,20895.9,0.0309482,0.0306173,17.1521,11,0.00110914,10,0.000525151,-1.76568,0.302578,0.194991,130.375,0.03061734,
2,1,0,1,0,20895.9,0.0413439,0.0409818,18.4091,11,0.00157173,10,0.000754439,-1.73497,0.36746,0.160562,115.254,0.0409818,
2,1,0,1,0,20896,0.0517425,0.0513875,19.5841,11,0.00206585,10,0.00100638,-1.7081,0.392621,0.150272,114.894,0.0513875,
2,1,0,1,0,20896,0.0621438,0.0618622,20.7771,11,0.00259065,10,0.00128532,-1.68242,0.423427,0.139339,112.966,0.0618622,
2,1,0,1,0,20896,0.0725479,0.0721853,22.0038,11,0.00314675,10,0.00158835,-1.6575,0.416516,0.141651,121.652,0.07218527,
2,1,0,1,0,20896,0.0829437,0.0825868,23.2527,11,0.00373525,10,0.00192037,-1.63353,0.461747,0.127776,115.902,0.0825868,
2,1,0,1,0,20896.1,0.0933422,0.0929586,24.4875,11,0.00435574,10,0.00227632,-1.61106,0.46913,0.125765,120.178,0.0929586,
2,1,0,1,0,20896.1,0.103749,0.103388,25.7186,11,0.0050087,10,0.00265899,-1.58975,0.51218,0.115194,115.631,0.103388,
2,1,0,1,0,20896.1,0.114148,0.113826,26.9478,11,0.00569328,10,0.00306737,-1.56948,0.495143,0.119157,125.325,0.113826,
2,1,0,1,0,20896.1,0.124543,0.124208,28.344,11,0.00641169,10,0.00352054,-1.54754,0.456092,0.12936,143.093,0.124208,
2,1,0,1,0,20896.2,0.134942,0.134594,29.9463,11,0.0071693,10,0.0040306,-1.52366,0.418897,0.140846,164.726,0.134594,
2,1,0,1,0,20896.2,0.145349,0.145027,31.6818,11,0.00797073,10,0.00459471,-1.49919,0.447885,0.13173,162.806,0.145027,
2,1,0,1,0,20896.2,0.155747,0.155379,33.2663,11,0.0088156,10,0.0051689,-1.478,0.54941,0.107388,139.27,0.155379,
2,1,0,1,0,20896.2,0.166143,0.165769,34.4817,11,0.0096976,10,0.005716,-1.46241,0.890932,0.0662228,89.0613,0.165769,
2,1,0,1,0,20896.3,0.176542,0.176169,34.9485,11,0.0106029,10,0.00615684,-1.45657,-5.62604,-0.0104869,-14.2814,0.176169,
2,1,0,1,0,20896.3,0.186949,0.186619,33.9846,11,0.0115027,10,0.00634218,-1.46872,-0.431697,-0.13667,-180.709,0.186619,
2,1,0,1,0,20896.3,0.197347,0.196982,31.2436,11,0.0123538,10,0.00615444,-1.50524,-0.219684,-0.268568,-326.79,0.196982,
2,1,0,1,0,20896.3,0.207743,0.207428,27.4964,11,0.0131178,10,0.00570353,-1.56072,-0.173626,-0.339811,-364.591,0.207428,
2,1,0,1,0,20896.4,0.218141,0.217796,23.9434,11,0.0137847,10,0.00521477,-1.62081,-0.18318,-0.322088,-301.42,0.217796,
2,1,0,1,0,20896.4,0.228548,0.228215,21.2238,11,0.0143698,10,0.00484358,-1.67318,-0.220264,-0.267861,-222.017,0.228215,
2,1,0,1,0,20896.4,0.238947,0.238623,19.2725,11,0.0148944,10,0.00459887,-1.71506,-0.281892,-0.2093,-157.561,0.238623,
2,1,0,1,0,20896.4,0.249343,0.249037,17.8874,11,0.0153764,10,0.00445461,-1.74745,-0.367246,-0.160655,-112.334,0.249037,
2,1,0,1,0,20896.5,0.259741,0.259464,16.8985,11,0.0158279,10,0.00438453,-1.77215,-0.491094,-0.12014,-79.2527,0.259464,
2,1,0,1,0,20896.5,0.270148,0.269843,16.1544,11,0.0162571,10,0.00435914,-1.79171,-0.59309,-0.099479,-62.7516,0.269843,
2,1,0,1,0,20896.5,0.280547,0.280259,15.5683,11,0.0166692,10,0.00436316,-1.80776,-0.716501,-0.0823446,-50.064,0.280259,
2,1,0,1,0,20896.6,0.290942,0.290624,15.0978,11,0.0170678,10,0.00438779,-1.82109,-0.833964,-0.0707464,-41.7027,0.290624,
2,1,0,0,0,20896.6,0.300012,0.299651,14.7532,11,0.0174065,10,0.00442082,-1.83111,0.0015332,38.4817,19093,0.299651,
2,1,0,1,0,20896.6,0.290704,0.290406,3.59577,11,0.017594,10,0.00104424,-2.44421,0.0109587,5.38385,711.511,0.290406,
2,0,0,1,0,20896.6,0.280305,0.279976,-1.52001,11,0.0176125,10,-0.000425566,-2.81815,-0.007112,-8.29584,340.711,0.279976,
2,0,0,1,0,20896.6,0.269909,0.269614,-4.21254,11,0.0175346,10,-0.00113576,-2.37546,-0.0479119,-1.23143,198.684,0.269614,
2,0,0,1,0,20896.7,0.2595,0.259165,-5.86283,11,0.0174019,10,-0.00151944,-2.23189,-0.102446,-0.575914,131.133,0.259165,
2,0,0,1,0,20896.7,0.249104,0.248777,-7.01331,11,0.0172337,10,-0.00174475,-2.15408,-0.17263,-0.341772,93.1875,0.2487769,
2,0,0,1,0,20896.7,0.238705,0.238376,-7.86686,11,0.0170398,10,-0.00187527,-2.1042,-0.24778,-0.238115,73.0402,0.238376,
2,0,0,1,0,20896.8,0.22831,0.22798,-8.55894,11,0.0168258,10,-0.00195127,-2.06758,-0.320765,-0.183935,61.5299,0.22798,
2,0,0,1,0,20896.8,0.2179,0.217572,-9.19062,11,0.0165949,10,-0.00199962,-2.03666,-0.372074,-0.158571,56.7345,0.2175723,
2,0,0,1,0,20896.8,0.207504,0.207162,-9.73743,11,0.0163489,10,-0.00201723,-2.01156,-0.43996,-0.134103,50.9565,0.207162,
2,0,0,1,0,20896.8,0.197106,0.19678,-10.2611,11,0.0160887,10,-0.00201918,-1.98881,-0.458776,-0.128603,51.5871,0.19678,
2,0,0,1,0,20896.9,0.18671,0.186422,-10.8103,11,0.0158147,10,-0.00201528,-1.96616,-0.44337,-0.133072,56.1615,0.1864218,
2,0,0,1,0,20896.9,0.1763,0.17597,-11.4124,11,0.0155259,10,-0.00200825,-1.94262,-0.425496,-0.138662,61.7229,0.17597,
2,0,0,1,0,20896.9,0.165905,0.165584,-12.1134,11,0.0152204,10,-0.00200578,-1.91673,-0.3694,-0.159719,75.5635,0.165584,
2,0,0,1,0,20896.9,0.155506,0.155174,-13.0338,11,0.0148941,10,-0.0020225,-1.88493,-0.278486,-0.21186,107.977,0.155174,
2,0,0,1,0,20897,0.145105,0.144772,-14.3829,11,0.0145386,10,-0.00208224,-1.84215,-0.21061,-0.280139,157.499,0.1447722,
2,0,0,1,0,20897,0.134701,0.13441,-16.3929,11,0.01414,10,-0.00220337,-1.78534,-0.162477,-0.363129,232.529,0.13441,
2,0,0,1,0,20897,0.124305,0.123971,-19.175,11,0.0136788,10,-0.00237715,-1.71727,-0.14978,-0.39391,295.112,0.123971,
2,0,0,1,0,20897,0.113906,0.113637,-22.3899,11,0.0131384,10,-0.00254431,-1.64995,-0.164051,-0.359644,314.102,0.113637,
2,0,0,1,0,20897.1,0.103505,0.103188,-25.4935,11,0.0125153,10,-0.00263063,-1.59357,-0.204553,-0.288434,286.301,0.103188,
2,0,0,1,0,20897.1,0.0931008,0.0928484,-28.1799,11,0.0118162,10,-0.00261646,-1.55006,-0.276344,-0.213502,234.521,0.0928484,
2,0,0,1,0,20897.1,0.0827051,0.0824267,-30.2737,11,0.0110547,10,-0.00249536,-1.51893,-0.407567,-0.144761,170.835,0.0824267,
2,0,0,1,0,20897.1,0.0723065,0.0719965,-31.6764,11,0.0102476,10,-0.00228059,-1.49926,-0.783768,-0.0752774,92.8919,0.0719965,
2,0,0,1,0,20897.2,0.0618996,0.0615918,-32.2266,11,0.00941517,10,-0.00198489,-1.49179,-4.6173,-0.012778,16.0579,0.0615918,
2,0,0,1,0,20897.2,0.0515011,0.05115,-32.1296,11,0.00857759,10,-0.00164343,-1.4931,2.57398,0.0229217,-28.7201,0.05115,
2,0,0,1,0,20897.2,0.0411053,0.0407622,-31.7023,11,0.00774758,10,-0.00129226,-1.49891,1.52206,0.0387634,-47.949,0.0407622,
2,0,0,1,0,20897.2,0.0307068,0.0304021,-31.1738,11,0.00693003,10,-0.000947747,-1.50621,1.37266,0.0429823,-52.31,0.0304021,
2,0,0,1,0,20897.3,0.0202999,0.0199783,-30.6009,11,0.00612683,10,-0.000611353,-1.51427,1.14476,0.0515391,-61.5343,0.0199783,
2,0,0,1,0,20897.3,0.00990136,0.00954388,-29.9075,11,0.00534008,10,-0.000285434,-1.52422,0.907741,0.0649965,-75.8151,0.009543879,
2,0,0,1,0,20897.3,-0.000494411,-0.000855527,-29.0267,11,0.00457385,10,2.48332e-05,-1.5372,0.687543,0.0858128,-97.0398,-0.000855527,
2,0,0,1,0,20897.4,-0.010893,-0.0113122,-27.8394,11,0.0038345,10,0.000314925,-1.55534,0.541258,0.109005,-118.432,-0.0113122,
2,0,0,1,0,20897.4,-0.0212998,-0.0216904,-26.6246,11,0.00312679,10,0.000577498,-1.57472,0.563812,0.104645,-108.747,-0.0216904,
2,0,0,1,0,20897.4,-0.0316984,-0.0320845,-25.5818,11,0.00244896,10,0.00082078,-1.59207,0.698407,0.0844779,-84.3296,-0.0320845,
2,0,0,1,0,20897.4,-0.0420942,-0.0424033,-24.8527,11,0.00179415,10,0.00105384,-1.60463,1.04733,0.0563338,-54.6903,-0.0424033,
2,0,0,1,0,20897.5,-0.0524927,-0.0528727,-24.45,11,0.00115369,10,0.00129274,-1.61172,2.57668,0.0228977,-21.8775,-0.0528727,
2,0,0,1,0,20897.5,-0.0628996,-0.0632605,-24.366,11,0.00051967,10,0.0015414,-1.61322,-26.2773,-0.00224528,2.13385,-0.0632605,
2,0,0,1,0,20897.5,-0.0732982,-0.0736493,-24.4637,11,-0.000114561,10,0.00180173,-1.61148,-2.93691,-0.0200891,19.188,-0.07364928,
2,0,0,1,0,20897.5,-0.0836939,-0.0840593,-24.7667,11,-0.000754249,10,0.00208187,-1.60613,-1.60452,-0.0367711,35.562,-0.0840593,
2,0,0,1,0,20897.6,-0.0940925,-0.0944948,-25.2404,11,-0.00140397,10,0.00238509,-1.5979,-1.10115,-0.0535804,52.772,-0.09449476,
2,0,0,1,1,20897.6,-0.0978574,-0.0983122,-21.0552,11,-0.00190926,10,0.00206998,-1.67664,-0.0283338,-2.08232,1674.06,-0.0983122,
2,0,0,1,1,20897.6,-0.0874588,-0.0878651,-8.75459,11,-0.00227858,10,0.000769223,-2.05776,-0.0219738,-2.68502,902.671,-0.0878651,
2,0,0,1,1,20897.6,-0.077052,-0.0774678,-1.14199,11,-0.00239992,10,8.84676e-05,-2.94234,-0.00965738,-6.10931,609.236,-0.0774678,
2,1,0,1,1,20897.7,-0.0666562,-0.0670504,4.23686,11,-0.00235543,10,-0.000284083,-2.37296,0.02117,2.78696,435.63,-0.0670504,
2,1,0,1,1,20897.7,-0.0562576,-0.0566775,8.211,11,-0.00219075,10,-0.000465379,-2.0856,0.0566321,1.04181,330.906,-0.0566775,
2,1,0,1,1,20897.7,-0.0458563,-0.0462547,11.2302,11,-0.00193585,10,-0.000519448,-1.94961,0.103388,0.570666,248.64,-0.0462547,
2,1,0,1,1,20897.7,-0.0354522,-0.0358224,13.4598,11,-0.00161339,10,-0.000482162,-1.87096,0.167574,0.352083,184.177,-0.0358224,
2,1,0,1,1,20897.8,-0.0250564,-0.0254485,15.0885,11,-0.00124098,10,-0.000383979,-1.82135,0.262079,0.225123,132.542,-0.0254485,
2,1,0,1,1,20897.8,-0.0146579,-0.0150363,16.2913,11,-0.00083207,10,-0.000244961,-1.78804,0.381614,0.154607,98.1805,-0.0150363,
2,1,0,1,1,20897.8,-0.00425653,-0.00465391,17.14,11,-0.000396886,10,-7.97678e-05,-1.76599,0.581107,0.10153,67.8369,-0.00465391,
2,1,0,0,1,20897.8,-7.54729e-05,-0.000382585,17.3819,11,-0.00021551,10,-6.65008e-06,-1.7599, , , ,-0.000382585,

File: 20221101_1-115_003_TrumpetPlot_ParaChange_from10_every3_11_CV_C01_11.csv
mode,ox/red,error,control changes,counter inc.,time/s,control/V,Ewe/V,<I>/mA,cycle number,(Q-Qo)/C,I Range,P/W,log(|I|),Tafel slope mV/dec,alpha_eff,dI/d(E-IR),E-IR/V,
2,1,0,1,0,22866,2.44065e-05,-0.000325324,10.1318,12,0.0000000E+000,10,-3.29612e-06,-1.99431, , , ,-0.000325324,
2,1,0,1,0,22866,0.0101427,0.00978989,14.2281,12,0.000316032,10,0.000139292,-1.84685,0.122645,0.481063,265.634,0.00978989,
2,1,0,1,0,22866,0.0205441,0.0202179,16.4144,12,0.000716565,10,0.000331866,-1.78477,0.220336,0.267773,171.021,0.0202179,
2,1,0,1,0,22866,0.0309482,0.0306173,17.9487,12,0.00116422,10,0.000549541,-1.74597,0.309305,0.19075,133.473,0.0306173,
2,1,0,1,0,22866.1,0.0413439,0.0409574,19.2219,12,0.00164788,10,0.000787277,-1.7162,0.377621,0.156241,117.189,0.0409574,
2,1,0,1,0,22866.1,0.0517425,0.0513907,20.4326,12,0.00216369,10,0.00105005,-1.68968,0.39904,0.147855,117.958,0.0513907,
2,1,0,1,0,22866.1,0.0621438,0.0617943,21.6629,12,0.00271104,10,0.00133864,-1.66428,0.425619,0.138622,117.14,0.0617943,
2,1,0,1,0,22866.1,0.0725479,0.072215,22.9409,12,0.00329079,10,0.00165667,-1.63939,0.426825,0.13823,123.727,0.072215,
2,1,0,1,0,22866.2,0.0829437,0.0825868,24.1849,12,0.00390377,10,0.00199735,-1.61646,0.449334,0.131305,124.093,0.0825868,
2,1,0,1,0,22866.2,0.0933422,0.0930021,25.5326,12,0.00455035,10,0.00237458,-1.59291,0.476944,0.123704,123.159,0.0930021,
2,1,0,1,0,22866.2,0.103749,0.103451,26.7824,12,0.00523036,10,0.00277067,-1.57215,0.514368,0.114704,119.876,0.103451,
2,1,0,1,0,22866.2,0.114148,0.113802,28.0724,12,0.00594332,10,0.0031947,-1.55172,0.483321,0.122072,133.786,0.113802,
2,1,0,1,0,22866.3,0.124543,0.124229,29.5811,12,0.00669242,10,0.00367483,-1.52899,0.438642,0.134506,155.246,0.124229,
2,1,0,1,0,22866.3,0.134942,0.134579,31.3059,12,0.00748376,10,0.0042131,-1.50437,0.421106,0.140107,171.218,0.134579,
2,1,0,1,0,22866.3,0.145349,0.144986,33.1011,12,0.00832133,10,0.00479921,-1.48016,0.460982,0.127988,165.238,0.144986,
2,1,0,1,0,22866.3,0.155747,0.155402,34.6769,12,0.00920314,10,0.00538885,-1.45996,0.592499,0.0995782,134.628,0.155402,
2,1,0,1,0,22866.4,0.166143,0.165786,35.8047,12,0.0101208,10,0.00593592,-1.44606,1.18345,0.0498544,69.5605,0.165786,
2,1,0,1,0,22866.4,0.176542,0.176203,35.9323,12,0.0110564,10,0.00633137,-1.44451,-1.37693,-0.042849,-59.9664,0.176203,
2,1,0,1,0,22866.4,0.186949,0.18662,34.4147,12,0.0119747,10,0.00642248,-1.46326,-0.339334,-0.17387,-232.887,0.1866201,
2,1,0,1,0,22866.4,0.197347,0.197,31.2073,12,0.0128303,10,0.00614784,-1.50574,-0.199095,-0.296341,-360.175,0.1970004,
2,1,0,1,0,22866.5,0.207743,0.207436,27.2679,12,0.01359,10,0.00565633,-1.56435,-0.169621,-0.347834,-370.108,0.207436,
2,1,0,1,0,22866.5,0.218141,0.217805,23.7319,12,0.0142511,10,0.00516892,-1.62467,-0.186767,-0.315901,-293.224,0.217805,
2,1,0,1,0,22866.5,0.228548,0.228245,21.1187,12,0.014832,10,0.00482024,-1.67533,-0.229489,-0.257093,-212.026,0.228245,
2,1,0,1,0,22866.6,0.238947,0.238655,19.2511,12,0.0153551,10,0.00459437,-1.71555,-0.300731,-0.196189,-147.546,0.238655,
2,1,0,1,0,22866.6,0.249343,0.248997,17.938,12,0.0158376,10,0.00446651,-1.74623,-0.385028,-0.153235,-107.441,0.248997,
2,1,0,1,0,22866.6,0.259741,0.259438,17.0031,12,0.0162912,10,0.00441125,-1.76947,-0.506293,-0.116533,-77.3311,0.259438,
2,1,0,1,0,22866.6,0.270148,0.269819,16.2879,12,0.0167234,10,0.00439477,-1.78814,-0.618943,-0.0953237,-60.6069,0.269819,
2,1,0,1,0,22866.7,0.280547,0.280203,15.7129,12,0.0171392,10,0.00440281,-1.80374,-0.724883,-0.0813925,-49.9696,0.280203,
2,1,0,1,0,22866.7,0.290942,0.290639,15.2566,12,0.0175416,10,0.00443417,-1.81654,-0.861323,-0.0684993,-40.7843,0.290639,
2,1,0,0,0,22866.7,0.300012,0.299689,14.9033,12,0.0178839,10,0.00446637,-1.82672,0.00106988,55.1466,27270.9,0.2996892,
2,1,0,1,0,22866.7,0.290704,0.290377,3.06016,12,0.0180634,10,0.0008886,-2.51426,0.00855857,6.89368,732.243,0.290377,
2,0,0,1,0,22866.8,0.280305,0.279969,-2.13434,12,0.0180666,10,-0.000597549,-2.67074,-0.0120209,-4.90813,346.037,0.279969,
2,0,0,1,0,22866.8,0.269909,0.269609,-4.81744,12,0.0179727,10,-0.00129882,-2.31718,-0.0562291,-1.04928,193.897,0.269609,
2,0,0,1,0,22866.8,0.2595,0.25921,-6.44925,12,0.0178247,10,-0.00167171,-2.19049,-0.114892,-0.513526,128.657,0.25921,
2,0,0,1,0,22866.8,0.249104,0.248776,-7.57231,12,0.0176415,10,-0.00188381,-2.12077,-0.187848,-0.314083,92.5619,0.248776,
2,0,0,1,0,22866.9,0.238705,0.238417,-8.43032,12,0.0174332,10,-0.00200993,-2.07416,-0.263719,-0.223723,73.4298,0.238417,
2,0,0,1,0,22866.9,0.22831,0.227988,-9.10327,12,0.0172049,10,-0.00207543,-2.0408,-0.335541,-0.175836,62.5632,0.2279876,
2,0,0,1,0,22866.9,0.2179,0.217587,-9.72012,12,0.0169598,10,-0.00211497,-2.01233,-0.382619,-0.1542,58.465,0.217587,
2,0,0,1,0,22866.9,0.207504,0.207187,-10.2763,12,0.0166997,10,-0.00212911,-1.98816,-0.466865,-0.126375,50.703,0.207187,
2,0,0,1,0,22867,0.197106,0.196766,-10.8119,12,0.0164253,10,-0.00212742,-1.9661,-0.484323,-0.12182,51.4881,0.196766,
2,0,0,1,0,22867,0.18671,0.18643,-11.3673,12,0.0161368,10,-0.0021192,-1.94434,-0.471848,-0.12504,55.4989,0.18643,
2,0,0,1,0,22867,0.1763,0.17599,-11.9903,12,0.0158333,10,-0.00211017,-1.92117,-0.422892,-0.139516,65.2486,0.17599,
2,0,0,1,0,22867,0.165905,0.165584,-12.734,12,0.0155123,10,-0.00210855,-1.89503,-0.370908,-0.159069,79.0735,0.165584,
2,0,0,1,0,22867.1,0.155506,0.155198,-13.7269,12,0.0151691,10,-0.00213039,-1.86243,-0.276871,-0.213096,114.312,0.155198,
2,0,0,1,0,22867.1,0.145105,0.144772,-15.1824,12,0.0147945,10,-0.00219799,-1.81866,-0.203823,-0.289468,171.799,0.1447722,
2,0,0,1,0,22867.1,0.134701,0.134387,-17.3749,12,0.0143731,10,-0.00233495,-1.76008,-0.156405,-0.377226,255.992,0.1343866,
2,0,0,1,0,22867.1,0.124305,0.123995,-20.4036,12,0.0138832,10,-0.00252993,-1.69029,-0.147374,-0.400343,318.94,0.1239946,
2,0,0,1,0,22867.2,0.113906,0.113617,-23.8237,12,0.0133081,10,-0.00270679,-1.62299,-0.168581,-0.34998,324.885,0.113617,
2,0,0,1,0,22867.2,0.103505,0.10325,-27.0481,12,0.0126462,10,-0.00279271,-1.56786,-0.214332,-0.275274,289.961,0.10325,
2,0,0,1,0,22867.2,0.0931008,0.0928727,-29.7672,12,0.011906,10,-0.00276456,-1.52626,-0.295359,-0.199757,231.783,0.0928727,
2,0,0,1,0,22867.2,0.0827051,0.0824415,-31.807,12,0.0111037,10,-0.00262221,-1.49748,-0.461424,-0.127865,158.562,0.0824415,
2,0,0,1,0,22867.3,0.0723065,0.0719817,-33.041,12,0.0102585,10,-0.00237835,-1.48095,-1.03222,-0.0571585,73.5817,0.0719817,
2,0,0,1,0,22867.3,0.0618997,0.0615929,-33.3822,12,0.00939344,10,-0.00205611,-1.47649,26.3725,0.00223718,-2.9114,0.0615929,
2,0,0,1,0,22867.3,0.0515011,0.051185,-33.1044,12,0.00852843,10,-0.00169445,-1.48011,1.78939,0.0329721,-42.5789,0.051185,
2,0,0,1,0,22867.4,0.0411053,0.0407485,-32.5631,12,0.00767463,10,-0.0013269,-1.48727,1.31538,0.044854,-57.0056,0.0407485,
2,0,0,1,0,22867.4,0.0307068,0.0303501,-31.9493,12,0.00683584,10,-0.000969665,-1.49554,1.19637,0.0493159,-61.5026,0.0303501,
2,0,0,1,0,22867.4,0.0202999,0.0199942,-31.2823,12,0.00601372,10,-0.000625464,-1.5047,1.03282,0.057125,-69.7133,0.0199942,
2,0,0,1,0,22867.4,0.00990136,0.00957675,-30.4574,12,0.00521086,10,-0.000291683,-1.51631,0.785419,0.0751191,-89.254,0.00957675,
2,0,0,1,0,22867.5,-0.000494411,-0.000855527,-29.4484,12,0.00443186,10,2.51939e-05,-1.53094,0.626919,0.0941111,-107.986,-0.000855527,
2,0,0,1,0,22867.5,-0.010893,-0.0112316,-28.1728,12,0.00368268,10,0.000316426,-1.55017,0.521562,0.113122,-124.4,-0.0112316,
2,0,0,1,0,22867.5,-0.0212998,-0.0216448,-26.9291,12,0.00296662,10,0.000582876,-1.56978,0.567321,0.103998,-109.39,-0.0216448,
2,0,0,1,0,22867.5,-0.0316984,-0.0320919,-25.9501,12,0.00228002,10,0.000832789,-1.58586,0.767894,0.0768335,-77.7974,-0.0320919,
2,0,0,1,0,22867.6,-0.0420942,-0.0424829,-25.2897,12,0.00161486,10,0.00107438,-1.59706,1.16455,0.0506633,-50.0362,-0.04248286,
2,0,0,1,0,22867.6,-0.0524927,-0.0528674,-24.9585,12,0.000962296,10,0.00131949,-1.60278,3.56246,0.0165616,-16.1499,-0.0528674,
2,0,0,1,0,22867.6,-0.0628996,-0.0632668,-24.935,12,0.000314338,10,0.00157756,-1.60319,-6.4626,-0.00912946,8.88061,-0.0632668,
2,0,0,1,0,22867.6,-0.0732982,-0.0736567,-25.1102,12,-0.000335534,10,0.00184953,-1.60015,-2.1276,-0.0277307,27.1691,-0.0736567,
2,0,0,1,0,22867.7,-0.0836939,-0.0840816,-25.4567,12,-0.000992497,10,0.00214044,-1.5942,-1.33191,-0.0442974,44.0347,-0.0840816,
2,0,0,1,0,22867.7,-0.0940925,-0.0944778,-25.9912,12,-0.0016611,10,0.00245559,-1.58517,-0.990043,-0.0595934,60.4641,-0.0944778,
2,0,0,1,1,22867.7,-0.0978574,-0.0982868,-21.3439,12,-0.00218069,10,0.00209783,-1.67073,-0.026061,-2.26392,1846.14,-0.0982868,
2,0,0,1,1,22867.7,-0.0874588,-0.0878248,-8.2165,12,-0.00254468,10,0.000721613,-2.08531,-0.0195625,-3.01598,947.456,-0.0878248,
2,0,0,1,1,22867.8,-0.077052,-0.0774922,-0.301051,12,-0.00264774,10,2.33291e-05,-3.52136,-0.0355068,-1.66165,627.064,-0.0774922,
2,1,0,1,1,22867.8,-0.0666562,-0.0671002,5.23423,12,-0.00257923,10,-0.000351218,-2.28115,0.025552,2.30902,452.013,-0.0671002,
2,1,0,1,1,22867.8,-0.0562576,-0.0566807,9.29437,12,-0.00238741,10,-0.000526811,-2.03178,0.0630382,0.935941,336.849,-0.0566807,
2,1,0,1,1,22867.8,-0.0458563,-0.0462558,12.3328,12,-0.0021039,10,-0.000570462,-1.90894,0.113383,0.520361,249.321,-0.04625579,
2,1,0,1,1,22867.9,-0.0354522,-0.0358193,14.5743,12,-0.00175264,10,-0.00052204,-1.83641,0.18177,0.324586,183.749,-0.0358193,
2,1,0,1,1,22867.9,-0.0250564,-0.0254442,16.1725,12,-0.00135175,10,-0.000411497,-1.79122,0.286023,0.206277,130.071,-0.0254442,
2,1,0,1,1,22867.9,-0.0146579,-0.015031,17.328,12,-0.000915116,10,-0.000260458,-1.76125,0.424606,0.138952,93.9069,-0.015031,
2,1,0,1,1,22867.9,-0.00425653,-0.00464224,18.1357,12,-0.000453323,10,-8.41901e-05,-1.74147,0.652169,0.0904674,63.9838,-0.00464224,
2,1,0,0,1,22868,-7.54729e-05,-0.000363498,18.3672,12,-0.000261513,10,-6.67643e-06,-1.73596, , , ,-0.000363498,