Folder: Figs_alphaMnO2_OER_Tafel_sleope/Figure_codes/Fig_3-5/rawdata_trumpetplot_data/after 10th (part 188)

File: 20221101_1-115_003_TrumpetPlot_ParaChange_from10_every3_12_CV_C01_28.csv
mode,ox/red,error,control changes,counter inc.,time/s,control/V,Ewe/V,<I>/mA,cycle number,(Q-Qo)/C,I Range,P/W,log(|I|),Tafel slope mV/dec,alpha_eff,dI/d(E-IR),E-IR/V,
2,1,0,1,0,56360.2,2.44065e-05,-0.000401673,13.6115,29,0.0000000E+000,10,-5.46739e-06,-1.86609, , , ,-0.000401673,
2,1,0,1,0,56360.2,0.0104008,0.0100518,16.5497,29,0.000262335,10,0.000166355,-1.78121,0.182004,0.324169,208.249,0.0100518,
2,1,0,1,0,56360.2,0.0212099,0.0208096,18.5182,29,0.000578824,10,0.000385357,-1.7324,0.265001,0.222641,160.444,0.0208096,
2,1,0,1,0,56360.2,0.0320052,0.0316661,20.1169,29,0.000927052,10,0.000637023,-1.69644,0.33213,0.177641,139.27,0.0316661,
2,1,0,1,0,56360.2,0.0428033,0.0424271,21.5252,29,0.00130216,10,0.000913251,-1.66705,0.399003,0.147869,124.096,0.0424271,
2,1,0,1,0,56360.3,0.0535986,0.0532199,22.8063,29,0.00170136,10,0.00121375,-1.64195,0.450249,0.131039,116.583,0.0532199,
2,1,0,1,0,56360.3,0.0644077,0.0640986,24.0521,29,0.00212327,10,0.00154171,-1.61885,0.484896,0.121676,114.169,0.0640986,
2,1,0,1,0,56360.3,0.075203,0.0748554,25.2781,29,0.00256737,10,0.0018922,-1.59726,0.503851,0.117098,115.533,0.07485538,
2,1,0,1,0,56360.3,0.0860011,0.0856111,26.5197,29,0.0030337,10,0.00227038,-1.57643,0.531314,0.111045,114.953,0.0856111,
2,1,0,1,0,56360.3,0.0968075,0.0963933,27.7913,29,0.00352265,10,0.00267889,-1.55609,0.544868,0.108283,117.422,0.0963933,
2,1,0,1,0,56360.4,0.107606,0.107195,29.0638,29,0.00403445,10,0.00311549,-1.53665,0.556732,0.105976,120.232,0.1071946,
2,1,0,1,0,56360.4,0.118401,0.118047,30.3841,29,0.00456959,10,0.00358675,-1.51735,0.567469,0.10397,123.324,0.118047,
2,1,0,1,0,56360.4,0.129207,0.128781,31.7601,29,0.00512899,10,0.00409011,-1.49812,0.558972,0.105551,130.856,0.128781,
2,1,0,1,0,56360.4,0.140005,0.139642,33.2953,29,0.00571417,10,0.00464942,-1.47762,0.522144,0.112996,146.787,0.139642,
2,1,0,1,0,56360.4,0.150803,0.15039,34.867,29,0.00632778,10,0.00524366,-1.45759,0.557076,0.10591,144.058,0.15039,
2,1,0,1,0,56360.4,0.161604,0.161229,36.3712,29,0.00696917,10,0.00586408,-1.43924,0.629973,0.0936548,132.851,0.161229,
2,1,0,1,0,56360.5,0.172405,0.17209,37.7087,29,0.0076364,10,0.00648931,-1.42356,0.770988,0.0765251,112.516,0.17209,
2,1,0,1,0,56360.5,0.183203,0.182831,38.7248,29,0.00832508,10,0.0070801,-1.41201,1.23548,0.0477546,72.0681,0.182831,
2,1,0,1,0,56360.5,0.194001,0.193587,39.1836,29,0.00902729,10,0.00758544,-1.4069,7.12531,0.00828034,12.6439,0.193587,
2,1,0,1,0,56360.5,0.204808,0.204388,38.9975,29,0.00973201,10,0.00797063,-1.40896,-1.88761,-0.0312564,-47.4978,0.204388,
2,1,0,1,0,56360.5,0.215603,0.215231,38.1573,29,0.0104273,10,0.00821263,-1.41842,-0.828284,-0.0712316,-105.904,0.215231,
2,1,0,1,0,56360.5,0.226401,0.226071,36.7168,29,0.0111018,10,0.00830062,-1.43514,-0.538728,-0.109517,-156.755,0.226071,
2,1,0,1,0,56360.6,0.237207,0.236874,34.857,29,0.0117463,10,0.00825671,-1.45771,-0.43959,-0.134216,-182.457,0.236874,
2,1,0,1,0,56360.6,0.248005,0.24765,32.8177,29,0.0123553,10,0.0081273,-1.48389,-0.398798,-0.147945,-189.45,0.24765,
2,1,0,1,0,56360.6,0.258801,0.258433,30.7995,29,0.0129275,10,0.0079596,-1.51146,-0.394067,-0.149721,-180.008,0.258433,
2,1,0,1,0,56360.6,0.26961,0.269263,28.944,29,0.0134646,10,0.00779356,-1.53844,-0.410956,-0.143568,-162.223,0.269263,
2,1,0,1,0,56360.6,0.280405,0.280053,27.3024,29,0.0139703,10,0.00764611,-1.5638,-0.44129,-0.133699,-142.49,0.280053,
2,1,0,1,0,56360.7,0.291203,0.290852,25.8801,29,0.0144484,10,0.00752727,-1.58703,-0.488512,-0.120775,-122.057,0.290852,
2,1,0,0,0,56360.7,0.300012,0.299727,24.8655,29,0.0148212,10,0.00745287,-1.6044,0.00268962,21.9362,19391.9,0.299727,
2,1,0,1,0,56360.7,0.290842,0.290554,14.7606,29,0.0151121,10,0.00428874,-1.8309,0.042741,1.38041,800.722,0.290554,
2,1,0,1,0,56360.7,0.280047,0.279752,7.88849,29,0.0153112,10,0.00220683,-2.10301,0.0341442,1.72797,526.151,0.2797524,
2,1,0,1,0,56360.7,0.269244,0.268872,3.03483,29,0.0154067,10,0.000815979,-2.51787,0.0164961,3.57661,383.473,0.268872,
2,0,0,1,0,56360.7,0.258443,0.258085,-0.586453,29,0.0154269,10,-0.000151355,-3.23177,-0.0290838,-2.02862,293.204,0.258085,
2,0,0,1,0,56360.8,0.247645,0.24732,-3.39556,29,0.0153897,10,-0.000839789,-2.46909,-0.0321441,-1.83548,230.761,0.24732,
2,0,0,1,0,56360.8,0.236849,0.236471,-5.63181,29,0.0153074,10,-0.00133176,-2.24935,-0.0685376,-0.860842,186.457,0.236471,
2,0,0,1,0,56360.8,0.22604,0.225747,-7.46761,29,0.0151888,10,-0.00168579,-2.12682,-0.11078,-0.532589,153.962,0.225747,
2,0,0,1,0,56360.8,0.215245,0.214877,-8.99833,29,0.0150402,10,-0.00193353,-2.04584,-0.155199,-0.380157,132.901,0.214877,
2,0,0,1,0,56360.8,0.204447,0.204097,-10.3178,29,0.014866,10,-0.00210583,-1.98641,-0.206151,-0.286199,114.871,0.204097,
2,0,0,1,0,56360.8,0.19364,0.19325,-11.4819,29,0.0146697,10,-0.00221888,-1.93999,-0.256293,-0.230205,102.882,0.19325,
2,0,0,1,0,56360.9,0.182842,0.182506,-12.5176,29,0.0144534,10,-0.00228453,-1.90248,-0.300919,-0.196066,95.7668,0.182506,
2,0,0,1,0,56360.9,0.172047,0.171705,-13.5198,29,0.0142189,10,-0.00232143,-1.86903,-0.334744,-0.176254,93.0015,0.171705,
2,0,0,1,0,56360.9,0.161241,0.160881,-14.5281,29,0.0139664,10,-0.0023373,-1.83779,-0.354876,-0.166255,94.2921,0.160881,
2,0,0,1,0,56360.9,0.150443,0.150076,-15.6102,29,0.0136953,10,-0.00234272,-1.80659,-0.330764,-0.178375,108.814,0.150076,
2,0,0,1,0,56360.9,0.139645,0.139275,-16.932,29,0.0134027,10,-0.0023582,-1.77129,-0.280875,-0.210058,139.15,0.139275,
2,0,0,1,0,56361,0.128849,0.128537,-18.6695,29,0.0130828,10,-0.00239973,-1.72887,-0.233409,-0.252775,184.589,0.1285374,
2,0,0,1,0,56361,0.118043,0.117723,-20.9626,29,0.0127268,10,-0.00246779,-1.67856,-0.206519,-0.285687,233.783,0.117723,
2,0,0,1,0,56361,0.107245,0.106933,-23.6289,29,0.0123256,10,-0.00252671,-1.62656,-0.212422,-0.277749,255.958,0.106933,
2,0,0,1,0,56361,0.0964468,0.0960985,-26.3725,29,0.0118753,10,-0.00253436,-1.57885,-0.243508,-0.242292,248.968,0.0960985,
2,0,0,1,0,56361,0.0856404,0.085346,-28.9313,29,0.011377,10,-0.00246917,-1.53863,-0.290139,-0.203351,229.289,0.085346,
2,0,0,1,0,56361,0.0748451,0.0745733,-31.2301,29,0.0108346,10,-0.00232893,-1.50543,-0.370158,-0.159391,193.967,0.0745733,
2,0,0,1,0,56361.1,0.0640471,0.0638123,-33.0951,29,0.0102548,10,-0.00211187,-1.48024,-0.500293,-0.117931,152.125,0.0638123,
2,0,0,1,0,56361.1,0.0532407,0.0529357,-34.5407,29,0.0096453,10,-0.00182844,-1.46167,-0.677965,-0.0870251,117.196,0.0529357,
2,0,0,1,0,56361.1,0.0424426,0.0421079,-35.6215,29,0.00901312,10,-0.00149995,-1.44829,-0.983541,-0.0599873,83.3148,0.0421079,
2,0,0,1,0,56361.1,0.0316473,0.0312939,-36.3616,29,0.00836473,10,-0.0011379,-1.43936,-1.53532,-0.0384284,54.4992,0.0312939,
2,0,0,1,0,56361.1,0.0208437,0.0204639,-36.8315,29,0.00770564,10,-0.000753718,-1.43378,-2.74492,-0.0214942,30.8763,0.0204639,
2,0,0,1,0,56361.2,0.0100429,0.00968491,-37.0698,29,0.00704023,10,-0.000359018,-1.43098,-7.75837,-0.00760469,10.9933,0.00968491,
2,0,0,1,0,56361.2,-0.000755208,-0.00119804,-37.1194,29,0.00637237,10,4.44705e-05,-1.4304,17.0834,0.00345364,-4.99708,-0.00119804,
2,0,0,1,0,56361.2,-0.0115505,-0.0119665,-36.9149,29,0.00570587,10,0.000441741,-1.4328,3.06238,0.0192661,-27.7372,-0.0119665,
2,0,0,1,0,56361.2,-0.0223597,-0.0227614,-36.5226,29,0.00504474,10,0.000831307,-1.43744,1.8995,0.0310608,-44.2509,-0.0227614,
2,0,0,1,0,56361.2,-0.033155,-0.033586,-35.9916,29,0.00439206,10,0.00120882,-1.4438,1.67913,0.0351372,-49.3498,-0.033586,
2,0,0,1,0,56361.2,-0.043953,-0.0443555,-35.4117,29,0.00374947,10,0.00157071,-1.45085,1.5507,0.0380474,-52.5939,-0.0443555,
2,0,0,1,0,56361.3,-0.0547594,-0.0551569,-34.8691,29,0.00311709,10,0.00192327,-1.45756,1.69179,0.0348743,-47.4692,-0.0551569,
2,0,0,1,0,56361.3,-0.0655575,-0.0659624,-34.4135,29,0.00249371,10,0.00227,-1.46327,2.27069,0.0259833,-34.9155,-0.0659624,
2,0,0,1,0,56361.3,-0.0763528,-0.0767414,-34.0992,29,0.00187727,10,0.00261682,-1.46726,3.48202,0.0169442,-22.564,-0.0767414,
2,0,0,1,0,56361.3,-0.0871592,-0.0875639,-33.9413,29,0.00126518,10,0.00297204,-1.46927,7.56781,0.00779618,-10.3284,-0.0875639,
2,0,0,1,0,56361.3,-0.0979573,-0.098291,-33.9103,29,0.000654799,10,0.00333308,-1.46967,16.0824,0.00366861,-4.85095,-0.098291,
2,0,0,1,1,56361.3,-0.0955546,-0.0960101,-26.9341,29,0.000311486,10,0.00258594,-1.5697,-0.0499861,-1.18033,1261.45,-0.0960101,
2,0,0,1,1,56361.4,-0.0847538,-0.085213,-16.8081,29,-7.46377e-05,10,0.00143227,-1.77448,-0.0499465,-1.18126,775.166,-0.08521302,
2,0,0,1,1,56361.4,-0.0739557,-0.0743894,-9.59327,29,-0.000308869,10,0.000713638,-2.01803,-0.0367779,-1.60423,592.054,-0.0743894,
2,0,0,1,1,56361.4,-0.0631604,-0.0635807,-3.87711,29,-0.000427779,10,0.000246509,-2.41149,-0.0167249,-3.52768,479.191,-0.0635807,
2,1,0,1,1,56361.4,-0.0523512,-0.052789,0.842074,29,-0.000453301,10,-4.44522e-05,-3.07465,0.0262486,2.24774,398.664,-0.052789,
2,1,0,1,1,56361.4,-0.0415559,-0.0420364,4.77671,29,-0.000401437,10,-0.000200796,-2.32087,0.0307637,1.91784,339.02,-0.0420364,
2,1,0,1,1,56361.5,-0.0307579,-0.0311916,8.12047,29,-0.000284211,10,-0.000253291,-2.09042,0.0642292,0.918586,286.903,-0.0311916,
2,1,0,1,1,56361.5,-0.0199515,-0.020385,10.9766,29,-0.000111259,10,-0.000223759,-1.95953,0.103014,0.572736,243.607,-0.020385,
2,1,0,1,1,56361.5,-0.0091534,-0.00955511,13.4073,29,0.000109053,10,-0.000128108,-1.87266,0.148623,0.396977,206.7,-0.00955511,
2,1,0,0,1,56361.5,-7.54729e-05,-0.000401673,15.0922,29,0.000325093,10,-6.06214e-06,-1.82125, , , ,-0.000401673,

File: 20221101_1-115_003_TrumpetPlot_ParaChange_from10_every3_12_CV_C01_29.csv
mode,ox/red,error,control changes,counter inc.,time/s,control/V,Ewe/V,<I>/mA,cycle number,(Q-Qo)/C,I Range,P/W,log(|I|),Tafel slope mV/dec,alpha_eff,dI/d(E-IR),E-IR/V,
2,1,0,1,0,58330.3,2.44065e-05,-0.000382585,13.983,30,0.0000000E+000,10,-5.34969e-06,-1.8544, , , ,-0.000382585,
2,1,0,1,0,58330.3,0.0104008,0.0100306,16.9843,30,0.000269296,10,0.000170363,-1.76995,0.18203,0.324123,213.643,0.0100306,
2,1,0,1,0,58330.3,0.0212099,0.0208414,18.9838,30,0.00059381,10,0.00039565,-1.72162,0.265206,0.222469,164.314,0.0208414,
2,1,0,1,0,58330.4,0.0320052,0.0316131,20.6022,30,0.000950575,10,0.000651298,-1.68609,0.340174,0.17344,139.234,0.0316131,
2,1,0,1,0,58330.4,0.0428033,0.0424621,22.0252,30,0.00133456,10,0.000935234,-1.65708,0.404308,0.145928,125.317,0.0424621,
2,1,0,1,0,58330.4,0.0535986,0.0531976,23.3207,30,0.00174292,10,0.0012406,-1.63226,0.454306,0.129869,118.166,0.0531976,
2,1,0,1,0,58330.4,0.0644077,0.0640657,24.5748,30,0.00217423,10,0.0015744,-1.60951,0.494022,0.119428,114.529,0.0640657,
2,1,0,1,0,58330.4,0.075203,0.0748066,25.8187,30,0.00262794,10,0.00193141,-1.58807,0.512102,0.115212,116.125,0.0748066,
2,1,0,1,0,58330.4,0.0860011,0.0856694,27.0678,30,0.00310405,10,0.00231888,-1.56755,0.538094,0.109646,115.86,0.0856694,
2,1,0,1,0,58330.5,0.0968075,0.0964187,28.3486,30,0.00360299,10,0.00273334,-1.54747,0.552094,0.106866,118.218,0.0964187,
2,1,0,1,0,58330.5,0.107606,0.107207,29.6363,30,0.00412501,10,0.00317723,-1.52818,0.561517,0.105073,121.551,0.107207,
2,1,0,1,0,58330.5,0.118401,0.118001,30.9805,30,0.00467061,10,0.00365574,-1.50891,0.570827,0.103359,124.963,0.118001,
2,1,0,1,0,58330.5,0.129207,0.128776,32.3612,30,0.00524076,10,0.00416734,-1.48998,0.546662,0.107928,136.424,0.128776,
2,1,0,1,0,58330.5,0.140005,0.139597,33.9482,30,0.00583752,10,0.00473909,-1.46918,0.523188,0.11277,149.359,0.139597,
2,1,0,1,0,58330.6,0.150803,0.150391,35.5414,30,0.00646314,10,0.00534512,-1.44927,0.563262,0.104747,145.261,0.150391,
2,1,0,1,0,58330.6,0.161604,0.16123,37.0624,30,0.00711698,10,0.00597555,-1.43107,0.641386,0.0919883,133.004,0.16123,
2,1,0,1,0,58330.6,0.172405,0.172003,38.4026,30,0.00779675,10,0.00660538,-1.41564,0.789835,0.0746992,111.85,0.172003,
2,1,0,1,0,58330.6,0.183203,0.182792,39.3832,30,0.00849769,10,0.00719893,-1.40469,1.3564,0.0434973,66.7658,0.182792,
2,1,0,1,0,58330.6,0.194001,0.193608,39.7782,30,0.00921125,10,0.00770139,-1.40035,18.5189,0.00318594,4.93874,0.193608,
2,1,0,1,0,58330.6,0.204808,0.204438,39.5055,30,0.00992591,10,0.00807642,-1.40334,-1.59379,-0.0370187,-56.9822,0.204438,
2,1,0,1,0,58330.7,0.215603,0.215282,38.571,30,0.0106295,10,0.00830364,-1.41374,-0.763897,-0.0772355,-116.072,0.215282,
2,1,0,1,0,58330.7,0.226401,0.226049,37.0431,30,0.0113105,10,0.00837356,-1.43129,-0.523346,-0.112736,-162.762,0.226049,
2,1,0,1,0,58330.7,0.237207,0.236874,35.129,30,0.0119602,10,0.00832113,-1.45433,-0.431752,-0.136653,-187.161,0.236874,
2,1,0,1,0,58330.7,0.248005,0.247663,33.0539,30,0.0125735,10,0.00818624,-1.48078,-0.399103,-0.147831,-190.634,0.247663,
2,1,0,1,0,58330.7,0.258801,0.258463,31.0269,30,0.0131498,10,0.00801929,-1.50826,-0.396449,-0.148821,-180.265,0.258463,
2,1,0,1,0,58330.8,0.26961,0.269209,29.1824,30,0.0136912,10,0.00785615,-1.53488,-0.41961,-0.140607,-160.216,0.269209,
2,1,0,1,0,58330.8,0.280405,0.280045,27.5545,30,0.0142013,10,0.0077165,-1.55981,-0.455899,-0.129415,-139.257,0.280045,
2,1,0,1,0,58330.8,0.291203,0.290824,26.155,30,0.0146843,10,0.00760652,-1.58244,-0.4963,-0.11888,-121.451,0.290824,
2,1,0,0,0,58330.8,0.300012,0.299689,25.1492,30,0.0150612,10,0.00753693,-1.59948,0.00255882,23.0575,20586.6,0.2996892,
2,1,0,1,0,58330.8,0.290842,0.290509,14.8324,30,0.0153544,10,0.00430895,-1.82879,0.0427556,1.37994,803.962,0.290509,
2,1,0,1,0,58330.8,0.280047,0.279746,7.85185,30,0.0155536,10,0.00219652,-2.10503,0.033556,1.75826,532.14,0.279746,
2,1,0,1,0,58330.9,0.269244,0.268918,2.93646,30,0.0156479,10,0.000789667,-2.53218,0.0155845,3.78582,388.944,0.268918,
2,0,0,1,0,58330.9,0.258443,0.258099,-0.725885,30,0.015666,10,-0.00018735,-3.13913,-0.0230276,-2.56214,295.03,0.2580989,
2,0,0,1,0,58330.9,0.247645,0.247307,-3.55541,30,0.0156262,10,-0.00087928,-2.44911,-0.0334836,-1.76206,232.702,0.247307,
2,0,0,1,0,58330.9,0.236849,0.236478,-5.82025,30,0.0155409,10,-0.00137636,-2.23506,-0.0695694,-0.848074,189.515,0.236478,
2,0,0,1,0,58330.9,0.22604,0.225739,-7.67513,30,0.0154188,10,-0.00173257,-2.11491,-0.112819,-0.522961,155.358,0.2257385,
2,0,0,1,0,58330.9,0.215245,0.214877,-9.22034,30,0.0152663,10,-0.00198124,-2.03525,-0.157424,-0.374785,134.359,0.214877,
2,0,0,1,0,58331,0.204447,0.204076,-10.5573,30,0.0150879,10,-0.0021545,-1.97645,-0.208425,-0.283076,116.362,0.204076,
2,0,0,1,0,58331,0.19364,0.193257,-11.7352,30,0.014887,10,-0.00226791,-1.93051,-0.260697,-0.226317,103.475,0.193257,
2,0,0,1,0,58331,0.182842,0.182466,-12.7981,30,0.0146659,10,-0.00233522,-1.89285,-0.308464,-0.19127,95.5134,0.182466,
2,0,0,1,0,58331,0.172047,0.171707,-13.8168,30,0.0144262,10,-0.00237244,-1.85959,-0.340969,-0.173036,93.3132,0.171707,
2,0,0,1,0,58331,0.161241,0.160887,-14.8458,30,0.0141682,10,-0.0023885,-1.8284,-0.353654,-0.16683,96.6769,0.160887,
2,0,0,1,0,58331.1,0.150443,0.150041,-15.9592,30,0.0138911,10,-0.00239454,-1.79699,-0.332503,-0.177442,110.577,0.150041,
2,0,0,1,0,58331.1,0.139645,0.13931,-17.3024,30,0.0135921,10,-0.0024104,-1.76189,-0.280294,-0.210493,142.417,0.13931,
2,0,0,1,0,58331.1,0.128849,0.128516,-19.0809,30,0.0132653,10,-0.0024522,-1.7194,-0.23188,-0.254442,189.863,0.128516,
2,0,0,1,0,58331.1,0.118043,0.117713,-21.4203,30,0.0129015,10,-0.00252144,-1.66917,-0.205648,-0.286898,239.911,0.117713,
2,0,0,1,0,58331.1,0.107245,0.10691,-24.1482,30,0.0124915,10,-0.0025817,-1.61711,-0.212186,-0.278057,261.873,0.1069104,
2,0,0,1,0,58331.1,0.0964468,0.0961303,-26.9462,30,0.0120312,10,-0.00259034,-1.5695,-0.243648,-0.242153,254.278,0.0961303,
2,0,0,1,0,58331.2,0.0856404,0.0853481,-29.5682,30,0.0115221,10,-0.00252359,-1.52918,-0.290758,-0.202918,233.737,0.0853481,
2,0,0,1,0,58331.2,0.0748451,0.0744885,-31.8994,30,0.010968,10,-0.00237614,-1.49622,-0.373857,-0.157814,196.158,0.0744885,
2,0,0,1,0,58331.2,0.0640471,0.0637497,-33.784,30,0.0103758,10,-0.00215372,-1.47129,-0.505937,-0.116615,153.554,0.0637497,
2,0,0,1,0,58331.2,0.0532407,0.0529039,-35.2381,30,0.00975393,10,-0.00186424,-1.45299,-0.700339,-0.0842449,115.725,0.0529039,
2,0,0,1,0,58331.2,0.0424426,0.0421079,-36.3033,30,0.00910934,10,-0.00152866,-1.44005,-1.03821,-0.0568287,80.4379,0.0421079,
2,0,0,1,0,58331.3,0.0316473,0.0312663,-37.0245,30,0.00844888,10,-0.00115762,-1.43151,-1.57923,-0.03736,53.9391,0.0312663,
2,0,0,1,0,58331.3,0.0208437,0.0205212,-37.4714,30,0.00777806,10,-0.000768959,-1.4263,-2.93558,-0.0200983,29.3671,0.0205212,
2,0,0,1,0,58331.3,0.0100429,0.00964144,-37.6873,30,0.00710135,10,-0.000363359,-1.42381,-9.84388,-0.00599357,8.80799,0.00964144,
2,0,0,1,0,58331.3,-0.000755207,-0.00121394,-37.7156,30,0.00642259,10,4.57846e-05,-1.42348,11.7921,0.00500335,-7.3553,-0.00121394,
2,0,0,1,0,58331.3,-0.0115505,-0.0119209,-37.476,30,0.00574566,10,0.000446746,-1.42625,2.8678,0.0205733,-30.0757,-0.0119209,
2,0,0,1,0,58331.3,-0.0223597,-0.0227423,-37.0494,30,0.00507461,10,0.00084259,-1.43122,1.79191,0.0329258,-47.6008,-0.0227423,
2,0,0,1,0,58331.4,-0.033155,-0.0335532,-36.5017,30,0.00441249,10,0.00122475,-1.43769,1.61909,0.0364401,-51.9141,-0.0335532,
2,0,0,1,0,58331.4,-0.043953,-0.044398,-35.9147,30,0.00376079,10,0.00159454,-1.44473,1.52675,0.0386442,-54.1718,-0.044398,
2,0,0,1,0,58331.4,-0.0547594,-0.0551675,-35.3723,30,0.0031194,10,0.0019514,-1.45134,1.70532,0.0345975,-47.7683,-0.0551675,
2,0,0,1,0,58331.4,-0.0655575,-0.0659688,-34.9297,30,0.00248696,10,0.00230427,-1.45681,2.32833,0.0253401,-34.5513,-0.0659688,
2,0,0,1,0,58331.4,-0.0763528,-0.0767754,-34.6313,30,0.00186123,10,0.00265883,-1.46053,3.91027,0.0150885,-20.3987,-0.0767754,
2,0,0,1,0,58331.4,-0.0871592,-0.0875523,-34.477,30,0.00123958,10,0.00301854,-1.46247,9.26098,0.00637081,-8.5738,-0.0875523,
2,0,0,1,0,58331.5,-0.0979573,-0.0983833,-34.4732,30,0.000619321,10,0.00339159,-1.46252,23.4979,0.00251086,-3.37335,-0.0983833,
2,0,0,1,1,58331.5,-0.0955546,-0.0960249,-27.2657,30,0.000270783,10,0.00261818,-1.56438,-0.0481821,-1.22452,1325.56,-0.09602493,
2,0,0,1,1,58331.5,-0.0847538,-0.0852003,-16.8776,30,-0.000118659,10,0.00143798,-1.77269,-0.049494,-1.19206,785.02,-0.0852003,
2,0,0,1,1,58331.5,-0.0739557,-0.0743619,-9.50175,30,-0.000352531,10,0.000706568,-2.0222,-0.0356978,-1.65276,603.106,-0.0743619,
2,0,0,1,1,58331.5,-0.0631604,-0.0635934,-3.68153,30,-0.000468655,10,0.000234121,-2.43397,-0.0151396,-3.89707,489.302,-0.0635934,
2,1,0,1,1,58331.5,-0.0523512,-0.0527635,1.12048,30,-0.000489735,10,-5.91204e-05,-2.9506,0.018149,3.25086,406.73,-0.05276351,
2,1,0,1,1,58331.6,-0.0415559,-0.0420608,5.11865,30,-0.000432126,10,-0.000215294,-2.29084,0.0329519,1.79049,341.609,-0.0420608,
2,1,0,1,1,58331.6,-0.0307579,-0.0312468,8.52022,30,-0.000308132,10,-0.000266229,-2.06955,0.0670562,0.879859,288.599,-0.0312468,
2,1,0,1,1,58331.6,-0.0199515,-0.0203787,11.4206,30,-0.000127668,10,-0.000232737,-1.94231,0.106131,0.555918,245.778,-0.0203787,
2,1,0,1,1,58331.6,-0.0091534,-0.00958374,13.8807,30,0.00010076,10,-0.000133029,-1.85759,0.152062,0.387999,209.001,-0.00958374,
2,1,0,0,1,58331.6,-7.54729e-05,-0.000554371,15.582,30,0.000323858,10,-8.6382e-06,-1.80738, , , ,-0.000554371,