Folder: Figs_alphaMnO2_OER_Tafel_sleope/Figure_codes/Fig_3-5/rawdata_trumpetplot_data/after 10th (part 18)

File: 20221101_1-115_003_TrumpetPlot_ParaChange_from10_every3_02_CV_C01_35.csv
mode,ox/red,error,control changes,counter inc.,time/s,control/V,Ewe/V,<I>/mA,cycle number,(Q-Qo)/C,I Range,P/W,log(|I|),Tafel slope mV/dec,alpha_eff,dI/d(E-IR),E-IR/V,
2,0,0,1,0,69294.6,2.44065e-05,-0.000268062,-0.409142,36,0.0000000E+000,10,1.09675e-07,-3.38813, , , ,-0.000268062,
2,0,0,1,0,69297.9,0.00329552,0.00294611,-0.14044,36,-0.000580393,10,-4.13752e-07,-3.85251,-0.0201654,-2.92581,16.9149,0.00294611,
2,0,0,1,0,69301.4,0.00679121,0.00646019,-0.103377,36,-0.000969751,10,-6.67838e-07,-3.98557,-0.0293956,-2.0071,8.20192,0.00646019,
2,0,0,1,0,69304.9,0.010287,0.0099808,-0.080431,36,-0.00125776,10,-8.02766e-07,-4.09458,-0.0365295,-1.61513,5.1452,0.0099808,
2,0,0,1,0,69308.4,0.0137828,0.0134314,-0.0651945,36,-0.00148223,10,-8.75651e-07,-4.18579,-0.0388257,-1.51961,3.88309,0.0134314,
2,0,0,1,0,69311.8,0.0172785,0.0169179,-0.0531167,36,-0.00165893,10,-8.98623e-07,-4.27477,-0.0436465,-1.35177,2.81169,0.01691789,
2,0,0,1,0,69315.3,0.0207743,0.0204353,-0.0441003,36,-0.00180025,10,-9.01203e-07,-4.35556,-0.0407496,-1.44787,2.49731,0.0204353,
2,0,0,1,0,69318.8,0.0242701,0.0239304,-0.0360633,36,-0.00191038,10,-8.63009e-07,-4.44293,-0.0401619,-1.46905,2.04464,0.0239304,
2,0,0,1,0,69322.3,0.0277659,0.0273969,-0.0292772,36,-0.00199502,10,-8.02105e-07,-4.53347,-0.0365377,-1.61477,1.8225,0.0273969,
2,0,0,1,0,69325.8,0.0312617,0.0309429,-0.0236692,36,-0.00205641,10,-7.32395e-07,-4.62582,-0.0284113,-2.07664,1.83624,0.0309429,
2,0,0,1,0,69329.3,0.0347575,0.0344519,-0.0165884,36,-0.00209559,10,-5.71501e-07,-4.7802,-0.0196587,-3.00122,1.87204,0.0344519,
2,0,0,1,0,69332.8,0.0382532,0.0379299,-0.010318,36,-0.00211267,10,-3.91362e-07,-4.9864,-0.0150895,-3.91002,1.54033,0.0379299,
2,1,0,1,0,69336.3,0.041749,0.0414292,-0.00534196,36,-0.00210983,10,-2.21313e-07,-5.2723,-0.00836896,-7.04986,1.36803,0.04142924,
2,0,0,1,0,69339.8,0.0452447,0.0449275,-0.000179488,36,-0.00208978,10,-8.06395e-09,-6.74596,-0.0592551,-0.995696,1.38209,0.0449275,
2,0,0,1,0,69343.3,0.0487405,0.0484448,0.00447421,36,-0.00205135,10,2.16752e-07,-5.34928,0.00582879,10.1222,1.4344,0.0484448,
2,0,0,1,0,69346.8,0.0522363,0.0518922,0.00977456,36,-0.00199553,10,5.07224e-07,-5.0099,0.0139409,4.23215,1.50386,0.05189224,
2,1,0,1,0,69350.3,0.0557321,0.0554308,0.0145235,36,-0.0019219,10,8.05048e-07,-4.83793,0.0313306,1.88314,1.00775,0.05543083,
2,1,0,1,0,69353.8,0.0592279,0.0589037,0.017781,36,-0.00183538,10,1.04737e-06,-4.75004,0.0336534,1.75316,1.21985,0.0589037,
2,1,0,1,0,69357.3,0.0627237,0.0624381,0.0217681,36,-0.00173398,10,1.35916e-06,-4.66218,0.0557042,1.05917,0.909496,0.0624381,
2,1,0,1,0,69360.8,0.0662195,0.0659236,0.0259283,36,-0.00161999,10,1.70929e-06,-4.58623,0.0499921,1.18019,1.16242,0.0659236,
2,1,0,1,0,69364.3,0.0697152,0.0694271,0.0278769,36,-0.00149346,10,1.93542e-06,-4.55475,0.0748387,0.788363,0.890214,0.06942714,
2,1,0,1,0,69367.8,0.073211,0.0728735,0.0320762,36,-0.00135484,10,2.3375e-06,-4.49382,0.093607,0.630294,0.804106,0.0728735,
2,1,0,1,0,69371.3,0.0767068,0.0763687,0.0356251,36,-0.0012053,10,2.72064e-06,-4.44824,0.080973,0.728638,1.00726,0.0763687,
2,1,0,1,0,69374.8,0.0802025,0.0799071,0.0385619,36,-0.00104393,10,3.08137e-06,-4.41384,0.0799253,0.738189,1.11973,0.0799071,
2,1,0,1,0,69378.3,0.0836983,0.0833619,0.0427834,36,-0.000869553,10,3.56651e-06,-4.36872,0.095502,0.617788,1.03321,0.0833619,
2,1,0,1,0,69381.8,0.0871941,0.0868899,0.0471813,36,-0.000680864,10,4.09958e-06,-4.32623,0.109536,0.538634,0.976464,0.0868899,
2,1,0,1,0,69385.3,0.0906899,0.0903299,0.050303,36,-0.000479583,10,4.54386e-06,-4.29841,0.0872588,0.676149,1.32673,0.0903299,
2,1,0,1,0,69388.8,0.0941857,0.0938791,0.0549231,36,-0.000263172,10,5.15613e-06,-4.26024,0.0952986,0.619107,1.33211,0.0938791,
2,1,0,1,0,69392.2,0.0976815,0.0973328,0.0601208,36,-3.06123e-05,10,5.85173e-06,-4.22098,0.0967368,0.609902,1.4205,0.09733285,
2,1,0,1,0,69395.7,0.101177,0.100902,0.0636283,36,0.000218044,10,6.42023e-06,-4.19635,0.129706,0.454874,1.1347,0.100902,
2,1,0,1,0,69399.2,0.104673,0.104317,0.0688791,36,0.000480953,10,7.18523e-06,-4.16191,0.130843,0.450921,1.19109,0.104317,
2,1,0,1,0,69402.7,0.108169,0.107865,0.071633,36,0.000758414,10,7.72667e-06,-4.14489,0.145375,0.405846,1.14171,0.107865,
2,1,0,1,0,69406.2,0.111664,0.11136,0.0763285,36,0.00105013,10,8.49993e-06,-4.11731,0.127139,0.464058,1.37749,0.11136,
2,1,0,1,0,69409.7,0.11516,0.114841,0.0803193,36,0.00135619,10,9.22397e-06,-4.09518,0.165654,0.356164,1.11274,0.114841,
2,1,0,1,0,69413.2,0.118656,0.118361,0.0834866,36,0.00167648,10,9.88153e-06,-4.07838,0.247291,0.238586,0.77882,0.118361,
2,1,0,1,0,69416.7,0.122152,0.121808,0.0870034,36,0.00200774,10,1.05977e-05,-4.06046,0.245322,0.2405,0.813197,0.121808,
2,1,0,1,0,69420.2,0.125648,0.125334,0.0894257,36,0.00234954,10,1.12081e-05,-4.04854,0.660722,0.0892963,0.31057,0.125334,
2,1,0,1,0,69423.7,0.129143,0.128754,0.0904101,36,0.00269678,10,1.16406e-05,-4.04378,0.84987,0.0694224,0.242774,0.128754,
2,1,0,1,0,69427.2,0.132639,0.132289,0.0886799,36,0.00304337,10,1.17314e-05,-4.05217,-0.265358,-0.222341,-0.762371,0.132289,
2,1,0,1,0,69430.7,0.136135,0.135813,0.0848886,36,0.00337983,10,1.1529e-05,-4.07115,-0.116586,-0.506064,-1.66554,0.135813,
2,1,0,1,0,69434.2,0.139631,0.139289,0.0779808,36,0.00369768,10,1.08619e-05,-4.10801,-0.0888197,-0.664267,-2.02448,0.139289,
2,1,0,1,0,69437.7,0.143126,0.142824,0.0715254,36,0.00399074,10,1.02156e-05,-4.14554,-0.0816748,-0.722377,-1.99534,0.142824,
2,1,0,1,0,69441.2,0.146622,0.146276,0.0633729,36,0.00425613,10,9.26992e-06,-4.1981,-0.0815262,-0.723694,-1.80225,0.146276,
2,1,0,1,0,69444.7,0.150118,0.14977,0.0581643,36,0.00449876,10,8.71126e-06,-4.23534,-0.11331,-0.520693,-1.1826,0.1497699,
2,1,0,1,0,69448.2,0.153614,0.153254,0.0542452,36,0.00472506,10,8.31332e-06,-4.26564,-0.18076,-0.326399,-0.701511,0.153254,
2,1,0,1,0,69451.7,0.15711,0.156763,0.0521426,36,0.00494102,10,8.17405e-06,-4.28281,-0.260133,-0.226807,-0.464699,0.156763,
2,1,0,1,0,69455.2,0.160605,0.160274,0.0515418,36,0.00515165,10,8.26083e-06,-4.28784,-0.354176,-0.166584,-0.334707,0.160274,
2,1,0,1,0,69458.7,0.164101,0.163793,0.0508151,36,0.00535991,10,8.32313e-06,-4.29401,-1.50149,-0.0392942,-0.0785735,0.163793,
2,1,0,1,0,69462.2,0.167597,0.167264,0.0509363,36,0.00556672,10,8.51983e-06,-4.29297,-3.25041,-0.0181515,-0.0360859,0.167264,
2,1,0,1,0,69465.7,0.171093,0.170741,0.0508668,36,0.00577418,10,8.68503e-06,-4.29357,2.44664,0.0241147,0.0478958,0.170741,
2,1,0,1,0,69469.2,0.174588,0.174247,0.0509691,36,0.00598097,10,8.88122e-06,-4.29269,1.21637,0.0485051,0.0971577,0.174247,
2,1,0,1,0,69472.7,0.178084,0.177771,0.0512239,36,0.00618897,10,9.10613e-06,-4.29053,0.601415,0.0981019,0.197259,0.177771,
2,1,0,1,0,69476.1,0.18158,0.181265,0.0517924,36,0.00639806,10,9.38815e-06,-4.28573,0.699661,0.0843265,0.171378,0.181265,
2,1,0,1,0,69479.6,0.185076,0.184761,0.0522123,36,0.00660859,10,9.64681e-06,-4.28223,-14.5178,-0.00406399,-0.00834383,0.184761,
2,1,0,1,0,69483.1,0.188572,0.188214,0.0530795,36,0.00682046,10,9.9903e-06,-4.27507,0.66779,0.0883511,0.182466,0.188214,
2,1,0,1,0,69486.6,0.192067,0.191739,0.0533516,36,0.00703406,10,1.02296e-05,-4.27285,0.940488,0.0627334,0.130785,0.191739,
2,1,0,1,0,69490.1,0.195563,0.195255,0.053677,36,0.00724941,10,1.04807e-05,-4.27021,7.36486,0.00801102,0.0168018,0.195255,
2,1,0,1,0,69493.6,0.199059,0.198697,0.0540351,36,0.00746513,10,1.07366e-05,-4.26732,1.20749,0.0488619,0.103725,0.198697,
2,1,0,1,0,69497.1,0.202555,0.202234,0.0547691,36,0.00768299,10,1.10762e-05,-4.26146,1.07951,0.0546544,0.117325,0.202234,
2,1,0,1,0,69500.6,0.20605,0.205677,0.0553817,36,0.00790287,10,1.13907e-05,-4.25663,3.59449,0.016414,0.0353188,0.2056766,
2,1,0,1,0,69504.1,0.209546,0.209286,0.0551364,36,0.00812381,10,1.15393e-05,-4.25856,1.70369,0.0346306,0.0750574,0.209286,
2,1,0,1,0,69507.6,0.213042,0.212742,0.0556939,36,0.00834432,10,1.18484e-05,-4.25419,0.765744,0.0770492,0.167955,0.212742,
2,1,0,1,0,69511.1,0.216538,0.216222,0.0560035,36,0.00856713,10,1.21092e-05,-4.25178,0.501664,0.117609,0.257879,0.216222,
2,1,0,1,0,69514.6,0.220034,0.219701,0.0568836,36,0.00879217,10,1.24974e-05,-4.24501,0.384717,0.15336,0.341513,0.219701,
2,1,0,1,0,69518.1,0.223529,0.223224,0.0576063,36,0.00901901,10,1.28591e-05,-4.23953,1.62423,0.036325,0.0810801,0.2232243,
2,1,0,1,0,69521.6,0.227025,0.226696,0.0579041,36,0.00924701,10,1.31266e-05,-4.23729,4.41995,0.0133486,0.0301342,0.226696,
2,1,0,1,0,69525.1,0.230521,0.230181,0.0582329,36,0.00947642,10,1.34041e-05,-4.23483,-1.37618,-0.0428724,-0.0972968,0.230181,
2,1,0,1,0,69528.6,0.234017,0.233662,0.0589175,36,0.00970698,10,1.37668e-05,-4.22976,0.478895,0.1232,0.282635,0.233662,
2,1,0,1,0,69532.1,0.237512,0.237181,0.0594726,36,0.00994053,10,1.41058e-05,-4.22568,1.90645,0.0309475,0.0720306,0.237181,
2,1,0,1,0,69535.6,0.241008,0.240749,0.0594799,36,0.0101749,10,1.43197e-05,-4.22563,2.62275,0.0224954,0.0526296,0.240749,
2,1,0,1,0,69539.1,0.244504,0.24418,0.0600581,36,0.0104098,10,1.4665e-05,-4.22143,0.743482,0.0793564,0.186037,0.24418,
2,1,0,1,0,69542.6,0.248,0.247678,0.060825,36,0.0106472,10,1.5065e-05,-4.21592,0.571885,0.103168,0.244565,0.247678,
2,1,0,1,0,69546.1,0.251496,0.251207,0.0611325,36,0.0108862,10,1.53569e-05,-4.21373,-10.0056,-0.00589671,-0.0140956,0.251207,
2,1,0,1,0,69548.4,0.253818,0.253527,0.0609931,36,0.0110452,10,1.54634e-05,-4.21472, , , ,0.253527,

File: 20221101_1-115_003_TrumpetPlot_ParaChange_from10_every3_03_CV_C01_0.csv
mode,ox/red,error,control changes,counter inc.,time/s,control/V,Ewe/V,<I>/mA,cycle number,(Q-Qo)/C,I Range,P/W,log(|I|),Tafel slope mV/dec,alpha_eff,dI/d(E-IR),E-IR/V,
2,0,0,0,0,940.015,2.44065e-05,-0.000363498,-0.0885815,1,0.0000000E+000,10,3.21992e-08,-4.05266, , , ,-0.000363498,
2,1,0,1,0,941.468,0.0072904,0.00697404,0.211608,1,0.000293123,10,1.47577e-06,-3.67447,0.0927286,0.636265,5.20556,0.00697404,
2,1,0,1,0,942.967,0.0147815,0.0144578,0.236676,1,0.000660508,10,3.42181e-06,-3.62584,0.196878,0.299677,2.76398,0.0144578,
2,1,0,1,0,944.465,0.0222725,0.0219697,0.256571,1,0.00106,10,5.63678e-06,-3.59079,0.206028,0.286368,2.85476,0.0219697,
2,1,0,1,0,945.963,0.0297635,0.0294762,0.274907,1,0.00148817,10,8.10323e-06,-3.56081,0.244454,0.241354,2.5886,0.0294762,
2,1,0,1,0,947.461,0.0372545,0.0369734,0.297704,1,0.00194769,10,1.10071e-05,-3.52621,0.244264,0.241542,2.81654,0.0369734,
2,1,0,1,0,948.959,0.0447456,0.0444166,0.327304,1,0.00244478,10,1.45377e-05,-3.48505,0.191753,0.307688,3.90337,0.04441664,
2,1,0,1,0,950.458,0.0522367,0.0519013,0.357511,1,0.00298628,10,1.85553e-05,-3.44671,0.151903,0.388405,5.38335,0.0519013,
2,1,0,1,0,951.956,0.0597277,0.0594045,0.389461,1,0.00357546,10,2.31357e-05,-3.40954,0.208365,0.283157,4.3021,0.0594045,
2,1,0,1,0,953.454,0.0672187,0.0669135,0.421724,1,0.00421237,10,2.8219e-05,-3.37497,0.243168,0.24263,3.95726,0.0669135,
2,1,0,0,0,954.952,0.0747092,0.0744068,0.447101,1,0.00489284,10,3.32674e-05,-3.34959,0.323936,0.182135,3.17543,0.0744068,
2,1,0,1,0,956.45,0.0822001,0.0819166,0.469959,1,0.00561205,10,3.84974e-05,-3.32794,0.36506,0.161617,2.97257,0.0819166,
2,1,0,0,0,957.949,0.0896911,0.0893808,0.496138,1,0.00636743,10,4.43452e-05,-3.3044,0.308365,0.191332,3.71027,0.0893808,
2,1,0,1,0,959.447,0.097182,0.0968493,0.529429,1,0.00716534,10,5.12748e-05,-3.27619,0.189532,0.311293,6.41813,0.0968493,
2,1,0,0,0,960.945,0.104673,0.104383,0.579244,1,0.00802261,10,6.04635e-05,-3.23714,0.179029,0.329555,7.40746,0.104383,
2,1,0,1,0,962.443,0.112164,0.11185,0.636395,1,0.00896318,10,7.11806e-05,-3.19627,0.192649,0.306256,7.61227,0.11185,
2,1,0,0,0,963.941,0.119655,0.119315,0.69974,1,0.00999649,10,8.34895e-05,-3.15506,0.229261,0.257349,7.02307,0.119315,
2,1,0,1,0,965.44,0.127146,0.126811,0.744723,1,0.0111131,10,9.44391e-05,-3.12801,0.271183,0.217565,6.36668,0.126811,
2,1,0,0,0,966.938,0.134637,0.134357,0.788218,1,0.0123014,10,0.000105902,-3.10335,0.575821,0.102462,3.15321,0.134357,
2,1,0,1,0,968.436,0.142127,0.141805,0.777604,1,0.0135169,10,0.000110268,-3.10924,-0.266207,-0.221632,-6.69088,0.141805,
2,1,0,1,0,969.934,0.149618,0.149341,0.677821,1,0.0146499,10,0.000101227,-3.16889,-0.0865792,-0.681457,-17.9525,0.149341,
2,1,0,1,0,971.432,0.157109,0.156774,0.538693,1,0.0155896,10,8.44533e-05,-3.26866,-0.0691478,-0.853244,-17.9308,0.156774,
2,1,0,1,0,972.93,0.1646,0.164296,0.437558,1,0.0163444,10,7.18892e-05,-3.35896,-0.0976937,-0.603929,-10.3316,0.164296,
2,1,0,1,0,974.429,0.172091,0.171759,0.377633,1,0.0169828,10,6.48621e-05,-3.42293,-0.160261,-0.36815,-5.47133,0.171759,
2,1,0,1,0,975.927,0.179582,0.179293,0.347225,1,0.0175549,10,6.22549e-05,-3.45939,-0.240263,-0.245564,-3.32821,0.179293,
2,1,0,1,0,977.425,0.187074,0.18678,0.328379,1,0.0180879,10,6.13347e-05,-3.48362,-0.375366,-0.15718,-2.00329,0.18678,
2,1,0,1,0,978.923,0.194564,0.194253,0.314011,1,0.0185965,10,6.09975e-05,-3.50306,-0.534013,-0.110484,-1.35577,0.194253,
2,1,0,1,0,980.421,0.202056,0.201746,0.30416,1,0.0190881,10,6.1363e-05,-3.5169,-0.461494,-0.127846,-1.51294,0.201746,
2,1,0,1,0,981.92,0.209547,0.209263,0.29538,1,0.019567,10,6.18121e-05,-3.52962,-0.956286,-0.061697,-0.711492,0.209263,
2,1,0,1,0,983.418,0.217038,0.216701,0.290712,1,0.0200357,10,6.29976e-05,-3.53654,-0.934292,-0.0631494,-0.71787,0.216701,
2,1,0,1,0,984.916,0.224529,0.224236,0.285325,1,0.0204975,10,6.39803e-05,-3.54466,-0.896244,-0.0658303,-0.734112,0.224236,
2,1,0,0,0,986.414,0.232019,0.231711,0.283362,1,0.0209528,10,6.5658e-05,-3.54766,-1.42174,-0.0414984,-0.456027,0.2317107,
2,1,0,1,0,987.912,0.23951,0.239199,0.279191,1,0.021403,10,6.67822e-05,-3.5541,-0.755319,-0.0781126,-0.852195,0.239199,
2,1,0,0,0,989.411,0.247001,0.246725,0.275268,1,0.0218485,10,6.79156e-05,-3.56024,-25.4827,-0.0023153,-0.0249398,0.246725,
2,1,0,1,0,990.909,0.254492,0.254225,0.273315,1,0.0222905,10,6.94835e-05,-3.56334,-2.92842,-0.0201474,-0.215664,0.254225,
2,1,0,0,0,992.407,0.261983,0.261668,0.272191,1,0.0227286,10,7.12238e-05,-3.56513,-1.08521,-0.0543675,-0.576943,0.261668,
2,1,0,1,0,993.905,0.269474,0.269159,0.269267,1,0.0231638,10,7.24757e-05,-3.56982,-3.19637,-0.0184584,-0.193684,0.269159,
2,1,0,0,0,995.403,0.276965,0.276672,0.266897,1,0.023596,10,7.38429e-05,-3.57366,-76.4908,-0.000771334,-0.00806068,0.276672,
2,1,0,1,0,996.902,0.284456,0.28413,0.265556,1,0.0240252,10,7.54523e-05,-3.57584,-2.63409,-0.0223986,-0.232313,0.28413,
2,1,0,0,0,998.4,0.291947,0.29163,0.263163,1,0.0244511,10,7.67463e-05,-3.57977,6.20991,0.00950095,0.0978106,0.29163,
2,1,0,1,0,999.898,0.299437,0.29912,0.260516,1,0.0248741,10,7.79256e-05,-3.58417,-0.00208373,-28.3147,-125.252,0.2991201,
2,0,0,1,0,1001.27,0.293744,0.293454,-0.0198652,1,0.0248933,10,-5.8295e-06,-4.70191,-0.00666352,-8.85418,5.04522,0.2934536,
2,0,0,1,0,1002.77,0.286253,0.285953,-0.0456191,1,0.0248134,10,-1.30449e-05,-4.34085,-0.0356557,-1.65471,2.9705,0.285953,
2,0,0,1,0,1004.26,0.278763,0.278441,-0.0650958,1,0.024699,10,-1.81253e-05,-4.18645,-0.0637167,-0.925974,2.35459,0.278441,
2,0,0,0,0,1005.76,0.271272,0.270981,-0.0819944,1,0.024559,10,-2.22189e-05,-4.08622,-0.096178,-0.613446,1.949,0.270981,
2,0,0,1,0,1007.26,0.263781,0.2635,-0.0937949,1,0.0243975,10,-2.47149e-05,-4.02782,-0.150447,-0.392164,1.44173,0.2635,
2,0,0,0,0,1008.76,0.25629,0.256009,-0.106287,1,0.0242174,10,-2.72105e-05,-3.97352,-0.225408,-0.261747,1.07639,0.256009,
2,0,0,1,0,1010.26,0.248799,0.248509,-0.115416,1,0.0240211,10,-2.86818e-05,-3.93774,-0.205326,-0.287347,1.30756,0.248509,
2,0,0,0,0,1011.75,0.241308,0.241024,-0.126291,1,0.0238091,10,-3.04393e-05,-3.89863,-0.212565,-0.277563,1.38157,0.241024,
2,0,0,1,0,1013.25,0.233817,0.233517,-0.136765,1,0.023582,10,-3.1937e-05,-3.86402,-0.389859,-0.151337,0.803659,0.233517,
2,0,0,0,0,1014.75,0.226326,0.226042,-0.146394,1,0.0233406,10,-3.30912e-05,-3.83448,-0.254857,-0.231503,1.32679,0.226042,
2,0,0,1,0,1016.25,0.218835,0.21856,-0.158065,1,0.0230843,10,-3.45466e-05,-3.80116,-0.189383,-0.311538,1.89905,0.21856,
2,0,0,0,0,1017.75,0.211344,0.211054,-0.166738,1,0.0228123,10,-3.51908e-05,-3.77796,-0.298007,-0.197982,1.28832,0.211054,
2,0,0,1,0,1019.25,0.203854,0.203561,-0.17817,1,0.0225232,10,-3.62684e-05,-3.74917,-0.282169,-0.209095,1.46647,0.203561,
2,0,0,1,0,1020.74,0.196363,0.196051,-0.191941,1,0.0222159,10,-3.76302e-05,-3.71683,-0.214988,-0.274434,2.0449,0.196051,
2,0,0,1,0,1022.24,0.188871,0.188559,-0.209477,1,0.0218859,10,-3.94987e-05,-3.67886,-0.155155,-0.380264,3.08382,0.1885587,
2,0,0,1,0,1023.74,0.181381,0.181071,-0.229222,1,0.0215285,10,-4.15055e-05,-3.63974,-0.172408,-0.342212,3.06177,0.181071,
2,0,0,1,0,1025.24,0.173889,0.173548,-0.259281,1,0.0211344,10,-4.49976e-05,-3.58623,-0.151342,-0.389846,3.91453,0.173548,
2,0,0,1,0,1026.74,0.166398,0.166066,-0.29836,1,0.020688,10,-4.95476e-05,-3.52526,-0.10817,-0.545439,6.43865,0.166066,
2,0,0,1,0,1028.23,0.158907,0.158598,-0.366434,1,0.0201598,10,-5.81156e-05,-3.436,-0.0759821,-0.776498,11.2116,0.158598,
2,0,0,1,0,1029.73,0.151416,0.151083,-0.478609,1,0.0195005,10,-7.23094e-05,-3.32002,-0.0642062,-0.918914,17.1478,0.151083,
2,0,0,1,0,1031.23,0.143925,0.143591,-0.61955,1,0.0186482,10,-8.89615e-05,-3.20792,-0.0702656,-0.839671,20.2489,0.143591,
2,0,0,1,0,1032.73,0.136434,0.136091,-0.743925,1,0.0175881,10,-0.000101242,-3.12847,-0.145637,-0.405118,11.6806,0.136091,
2,0,0,1,0,1034.23,0.128943,0.12865,-0.794359,1,0.0163969,10,-0.000102195,-3.09998,-1.45356,-0.04059,1.25188,0.12865,
2,0,0,1,0,1035.73,0.121453,0.121108,-0.784857,1,0.0151781,10,-9.50527e-05,-3.10521,0.448827,0.131454,-4.01609,0.121108,
2,0,0,0,0,1037.22,0.113962,0.11369,-0.741016,1,0.0139998,10,-8.42458e-05,-3.13017,0.26614,0.221687,-6.43606,0.11369,
2,0,0,1,0,1038.72,0.106471,0.106167,-0.694178,1,0.0128901,10,-7.36988e-05,-3.15853,0.248596,0.237332,-6.4398,0.106167,
2,0,0,0,0,1040.22,0.0989798,0.0986795,-0.64421,1,0.0118583,10,-6.35703e-05,-3.19097,0.279333,0.211218,-5.29386,0.0986795,
2,0,0,1,0,1041.72,0.0914889,0.0911623,-0.603398,1,0.0108963,10,-5.50071e-05,-3.2194,0.289718,0.203646,-4.79067,0.0911623,
2,0,0,0,0,1043.22,0.083998,0.0837023,-0.572683,1,0.00998709,10,-4.79349e-05,-3.24209,0.331476,0.177992,-3.96506,0.0837023,
2,0,0,1,0,1044.71,0.076507,0.0762021,-0.55016,1,0.00911601,10,-4.19233e-05,-3.25951,0.444894,0.132616,-2.84843,0.0762021,
2,0,0,0,0,1046.21,0.069016,0.0686955,-0.524946,1,0.00827936,10,-3.60614e-05,-3.27988,0.411618,0.143337,-2.9507,0.0686955,
2,0,0,1,0,1047.71,0.0615251,0.061209,-0.502298,1,0.00747741,10,-3.07452e-05,-3.29904,0.319169,0.184855,-3.62912,0.061209,
2,0,0,0,0,1049.21,0.0540341,0.0537268,-0.477246,1,0.00671441,10,-2.56409e-05,-3.32126,0.312259,0.188946,-3.5074,0.0537268,
2,0,0,1,0,1050.71,0.0465436,0.0462378,-0.448282,1,0.0059921,10,-2.07276e-05,-3.34845,0.3017,0.195559,-3.42872,0.0462378,
2,0,0,1,0,1052.21,0.0390526,0.0387605,-0.424649,1,0.00530765,10,-1.64596e-05,-3.37197,0.291545,0.20237,-3.36138,0.0387605,
2,0,0,1,0,1053.7,0.0315615,0.0311946,-0.410291,1,0.00465358,10,-1.27988e-05,-3.38691,0.594767,0.0991985,-1.58803,0.0311946,
2,0,0,1,0,1055.2,0.0240706,0.023779,-0.399304,1,0.00401944,10,-9.49504e-06,-3.3987,1.22059,0.0483372,-0.756332,0.023779,
2,0,0,1,0,1056.7,0.0165795,0.0163031,-0.397201,1,0.00339433,10,-6.47562e-06,-3.40099,-2.43904,-0.0241898,0.374824,0.0163031,
2,0,0,1,0,1058.2,0.00908845,0.00879093,-0.398759,1,0.00276865,10,-3.50546e-06,-3.39929,-1.04001,-0.0567301,0.885989,0.00879093,
2,0,0,1,0,1059.7,0.00159739,0.0012078,-0.409744,1,0.00213341,10,-4.94891e-07,-3.38749, , , ,0.0012078,
2,0,0,1,0,1059.98,0.000199195,-0.000201256,-0.408898,1,0.00201346,10,8.22931e-08,-3.38839, , , ,-0.000201256,