Folder: Figs_alphaMnO2_OER_Tafel_sleope/Figure_codes/Fig_3-5/rawdata_trumpetplot_data/after 10th (part 190)

File: 20221101_1-115_003_TrumpetPlot_ParaChange_from10_every3_12_CV_C01_32.csv
mode,ox/red,error,control changes,counter inc.,time/s,control/V,Ewe/V,<I>/mA,cycle number,(Q-Qo)/C,I Range,P/W,log(|I|),Tafel slope mV/dec,alpha_eff,dI/d(E-IR),E-IR/V,
2,1,0,1,0,64240.7,2.44065e-05,-0.000248974,13.7852,33,0.0000000E+000,10,-3.43216e-06,-1.86059, , , ,-0.000248974,
2,1,0,1,0,64240.7,0.0104008,0.010038,16.7997,33,0.000266377,10,0.000168636,-1.7747,0.181468,0.325127,212.055,0.010038,
2,1,0,1,0,64240.7,0.0212099,0.0208499,18.7761,33,0.000587469,10,0.000391481,-1.72639,0.264764,0.22284,162.885,0.0208499,
2,1,0,1,0,64240.7,0.0320052,0.0316724,20.3828,33,0.000940471,10,0.000645573,-1.69074,0.34038,0.173336,137.725,0.03167244,
2,1,0,1,0,64240.8,0.0428033,0.0424409,21.7926,33,0.00132042,10,0.000924897,-1.66169,0.406261,0.145227,123.417,0.0424409,
2,1,0,1,0,64240.8,0.0535986,0.0532411,23.0723,33,0.0017245,10,0.00122839,-1.63691,0.460532,0.128113,115.336,0.0532411,
2,1,0,1,0,64240.8,0.0644077,0.0640795,24.311,33,0.00215122,10,0.00155784,-1.6142,0.49731,0.118638,112.53,0.0640795,
2,1,0,1,0,64240.8,0.075203,0.0748617,25.5411,33,0.00259999,10,0.00191205,-1.59276,0.514827,0.114602,114.197,0.0748617,
2,1,0,1,0,64240.8,0.0860011,0.0856132,26.7709,33,0.00307079,10,0.00229194,-1.57234,0.535715,0.110133,115.034,0.0856132,
2,1,0,1,0,64240.9,0.0968075,0.0963997,28.0258,33,0.00356402,10,0.00270168,-1.55244,0.55878,0.105587,115.439,0.0963997,
2,1,0,1,0,64240.9,0.107606,0.107208,29.2939,33,0.00407991,10,0.00314056,-1.53322,0.56076,0.105214,120.27,0.107208,
2,1,0,1,0,64240.9,0.118401,0.118063,30.61,33,0.004619,10,0.0036139,-1.51414,0.563878,0.104633,125.005,0.1180627,
2,1,0,1,0,64240.9,0.129207,0.128788,31.9749,33,0.00518232,10,0.00411797,-1.49519,0.544603,0.108336,135.299,0.128788,
2,1,0,1,0,64240.9,0.140005,0.139637,33.5251,33,0.00577173,10,0.00468133,-1.47463,0.526662,0.112026,146.576,0.139637,
2,1,0,1,0,64240.9,0.150803,0.150414,35.089,33,0.00638958,10,0.00527786,-1.45483,0.573868,0.102811,140.763,0.150414,
2,1,0,1,0,64241,0.161604,0.161213,36.5502,33,0.00703472,10,0.00589237,-1.43711,0.662589,0.0890447,126.95,0.161213,
2,1,0,1,0,64241,0.172405,0.172079,37.8241,33,0.00770462,10,0.00650873,-1.42223,0.841164,0.0701409,103.424,0.172079,
2,1,0,1,0,64241,0.183203,0.18285,38.7403,33,0.00839448,10,0.00708367,-1.41184,1.49805,0.0393846,59.459,0.18285,
2,1,0,1,0,64241,0.194001,0.193578,39.093,33,0.00909585,10,0.00756755,-1.4079,26.3473,0.00223932,3.41024,0.193578,
2,1,0,1,0,64241,0.204808,0.204455,38.8079,33,0.00979787,10,0.00793447,-1.41108,-1.61803,-0.036464,-55.1346,0.204455,
2,1,0,1,0,64241.1,0.215603,0.21525,37.9046,33,0.0104891,10,0.00815897,-1.42131,-0.796584,-0.0740662,-109.395,0.21525,
2,1,0,1,0,64241.1,0.226401,0.226046,36.4416,33,0.0111587,10,0.00823748,-1.4384,-0.541508,-0.108955,-154.788,0.226046,
2,1,0,1,0,64241.1,0.237207,0.236908,34.6044,33,0.0117984,10,0.00819805,-1.46087,-0.441925,-0.133507,-180.192,0.236908,
2,1,0,1,0,64241.1,0.248005,0.247705,32.6207,33,0.0124033,10,0.00808031,-1.48651,-0.411395,-0.143414,-182.566,0.247705,
2,1,0,1,0,64241.1,0.258801,0.258445,30.6631,33,0.0129725,10,0.0079247,-1.51338,-0.406532,-0.14513,-173.76,0.258445,
2,1,0,1,0,64241.1,0.26961,0.269225,28.871,33,0.0135079,10,0.00777279,-1.53954,-0.418236,-0.141069,-159.012,0.269225,
2,1,0,1,0,64241.2,0.280405,0.280066,27.2736,33,0.0140127,10,0.00763841,-1.56426,-0.455121,-0.129636,-138.066,0.280066,
2,1,0,1,0,64241.2,0.291203,0.290867,25.8981,33,0.0144909,10,0.0075329,-1.58673,-0.49925,-0.118177,-119.518,0.290867,
2,1,0,0,0,64241.2,0.300012,0.29967,24.8992,33,0.0148641,10,0.00746155,-1.60381,0.00299653,19.6895,17409.6,0.29967,
2,1,0,1,0,64241.2,0.290842,0.290576,14.7644,33,0.0151548,10,0.00429018,-1.83078,0.0434327,1.35842,788.797,0.290576,
2,1,0,1,0,64241.2,0.280047,0.27973,7.93549,33,0.0153545,10,0.0022198,-2.10043,0.0345116,1.70957,523.866,0.27973,
2,1,0,1,0,64241.2,0.269244,0.268951,3.08395,33,0.015451,10,0.000829431,-2.51089,0.016819,3.50794,384.97,0.268951,
2,0,0,1,0,64241.3,0.258443,0.258132,-0.551789,33,0.015472,10,-0.000142434,-3.25823,-0.0320978,-1.83813,295.885,0.258132,
2,0,0,1,0,64241.3,0.247645,0.247318,-3.37849,33,0.0154354,10,-0.000835561,-2.47128,-0.0315102,-1.87241,234.077,0.247318,
2,0,0,1,0,64241.3,0.236849,0.236518,-5.64489,33,0.0153531,10,-0.00133511,-2.24834,-0.0675743,-0.873113,189.601,0.236518,
2,0,0,1,0,64241.3,0.22604,0.225737,-7.51425,33,0.0152339,10,-0.00169625,-2.12411,-0.10978,-0.537437,156.471,0.225737,
2,0,0,1,0,64241.3,0.215245,0.214922,-9.07667,33,0.015084,10,-0.00195078,-2.04207,-0.154162,-0.382715,135.077,0.214922,
2,0,0,1,0,64241.4,0.204447,0.204067,-10.4282,33,0.014908,10,-0.00212804,-1.98179,-0.203649,-0.289715,117.624,0.204067,
2,0,0,1,0,64241.4,0.19364,0.193285,-11.6233,33,0.0147094,10,-0.00224661,-1.93467,-0.257675,-0.228971,103.608,0.193285,
2,0,0,1,0,64241.4,0.182842,0.182492,-12.6922,33,0.0144904,10,-0.00231622,-1.89646,-0.299662,-0.196888,97.4039,0.182492,
2,0,0,1,0,64241.4,0.172047,0.171677,-13.709,33,0.0142527,10,-0.00235352,-1.86299,-0.335999,-0.175596,93.8977,0.171677,
2,0,0,1,0,64241.4,0.161241,0.160916,-14.7405,33,0.0139967,10,-0.00237198,-1.83149,-0.349898,-0.168621,96.9459,0.160916,
2,0,0,1,0,64241.4,0.150443,0.150067,-15.8498,33,0.0137216,10,-0.00237852,-1.79998,-0.329371,-0.179129,110.874,0.150067,
2,0,0,1,0,64241.5,0.139645,0.139307,-17.1881,33,0.0134246,10,-0.00239442,-1.76477,-0.277848,-0.212346,142.805,0.139307,
2,0,0,1,0,64241.5,0.128849,0.128546,-18.958,33,0.0130997,10,-0.00243697,-1.72221,-0.231365,-0.255008,189.209,0.128546,
2,0,0,1,0,64241.5,0.118043,0.117759,-21.2865,33,0.012738,10,-0.00250669,-1.6719,-0.207405,-0.284468,236.546,0.117759,
2,0,0,1,0,64241.5,0.107245,0.106928,-23.982,33,0.0123305,10,-0.00256436,-1.62011,-0.214753,-0.274734,257.054,0.106928,
2,0,0,1,0,64241.5,0.0964468,0.0961695,-26.7356,33,0.0118736,10,-0.00257115,-1.57291,-0.250362,-0.235659,245.428,0.0961695,
2,0,0,1,0,64241.6,0.0856404,0.0853757,-29.3008,33,0.011369,10,-0.00250158,-1.53312,-0.297145,-0.198557,226.501,0.0853757,
2,0,0,1,0,64241.6,0.0748451,0.0745606,-31.5489,33,0.0108206,10,-0.00235231,-1.50102,-0.384902,-0.153286,188.343,0.0745606,
2,0,0,1,0,64241.6,0.0640471,0.0637975,-33.3451,33,0.0102357,10,-0.00212733,-1.47697,-0.522096,-0.113006,146.851,0.0637975,
2,0,0,1,0,64241.6,0.0532407,0.0529453,-34.7446,33,0.00962239,10,-0.00183956,-1.45911,-0.715378,-0.0824739,111.661,0.0529453,
2,0,0,1,0,64241.6,0.0424426,0.0421323,-35.757,33,0.00898731,10,-0.00150652,-1.44664,-1.04422,-0.0565013,78.7703,0.0421323,
2,0,0,1,0,64241.6,0.0316473,0.0313586,-36.4495,33,0.00833692,10,-0.00114301,-1.43831,-1.56659,-0.0376614,53.5454,0.0313586,
2,0,0,1,0,64241.7,0.0208437,0.0205276,-36.8832,33,0.00767654,10,-0.000757122,-1.43317,-2.9828,-0.0197801,28.4566,0.0205276,
2,0,0,1,0,64241.7,0.0100429,0.00967749,-37.0806,33,0.00701048,10,-0.000358847,-1.43085,-10.7448,-0.00549102,7.94239,0.00967749,
2,0,0,1,0,64241.7,-0.000755207,-0.00115562,-37.1025,33,0.00634254,10,4.28764e-05,-1.4306,11.1786,0.00527795,-7.63564,-0.00115562,
2,0,0,1,0,64241.7,-0.0115505,-0.0119145,-36.8669,33,0.00567651,10,0.000439251,-1.43336,2.71195,0.0217556,-31.2949,-0.0119145,
2,0,0,1,0,64241.7,-0.0223597,-0.022736,-36.4631,33,0.00501628,10,0.000829023,-1.43815,1.85619,0.0317855,-45.2135,-0.022736,
2,0,0,1,0,64241.7,-0.033155,-0.0335245,-35.944,33,0.00436459,10,0.00120501,-1.44437,1.6634,0.0354696,-49.7485,-0.0335245,
2,0,0,1,0,64241.8,-0.043953,-0.0443566,-35.3903,33,0.0037227,10,0.00156979,-1.45112,1.6,0.036875,-50.9308,-0.0443566,
2,0,0,1,0,64241.8,-0.0547594,-0.0550964,-34.8902,33,0.00309041,10,0.00192232,-1.4573,1.84777,0.0319304,-43.4754,-0.0550964,
2,0,0,1,0,64241.8,-0.0655575,-0.0659518,-34.4777,33,0.0024664,10,0.00227387,-1.46246,2.64491,0.022307,-30.0232,-0.0659518,
2,0,0,1,0,64241.8,-0.0763528,-0.0767372,-34.1942,33,0.00184861,10,0.00262397,-1.46605,4.32307,0.0136477,-18.2219,-0.0767372,
2,0,0,1,0,64241.8,-0.0871592,-0.0875162,-34.0566,33,0.00123458,10,0.0029805,-1.4678,11.0881,0.00532102,-7.07549,-0.0875162,
2,0,0,1,0,64241.9,-0.0979573,-0.0982847,-34.0435,33,0.000621765,10,0.00334596,-1.46797,14.8671,0.0039685,-5.26884,-0.0982847,
2,0,0,1,1,64241.9,-0.0955546,-0.0959889,-26.7866,33,0.000278355,10,0.00257122,-1.57208,-0.0476467,-1.23828,1319.84,-0.0959889,
2,0,0,1,1,64241.9,-0.0847538,-0.0851462,-16.5786,33,-0.000103876,10,0.0014116,-1.78045,-0.0492828,-1.19717,774.039,-0.0851462,
2,0,0,1,1,64241.9,-0.0739557,-0.0743746,-9.35355,33,-0.000333738,10,0.000695667,-2.02902,-0.0359111,-1.64294,590.126,-0.0743746,
2,0,0,1,1,64241.9,-0.0631604,-0.0635479,-3.64492,33,-0.000448323,10,0.000231627,-2.43831,-0.015531,-3.79885,475.628,-0.06354785,
2,1,0,1,1,64241.9,-0.0523512,-0.0527667,1.05924,33,-0.000469807,10,-5.58928e-05,-2.975,0.0195655,3.01551,396.911,-0.0527667,
2,1,0,1,1,64242,-0.0415559,-0.0420248,4.99345,33,-0.000414017,10,-0.000209849,-2.3016,0.0324171,1.82003,337.601,-0.0420248,
2,1,0,1,1,64242,-0.0307579,-0.0311991,8.34718,33,-0.000292915,10,-0.000260424,-2.07846,0.0664942,0.887295,284.461,-0.0311991,
2,1,0,1,1,64242,-0.0199515,-0.0203882,11.2059,33,-0.000116046,10,-0.000228469,-1.95055,0.105165,0.561021,243.313,-0.0203882,
2,1,0,1,1,64242,-0.0091534,-0.00954662,13.6296,33,0.000108249,10,-0.000130116,-1.86552,0.151035,0.390638,206.794,-0.00954662,
2,1,0,0,1,64242,-7.54729e-05,-0.000382585,15.3326,33,0.000327663,10,-5.86605e-06,-1.81438, , , ,-0.000382585,

File: 20221101_1-115_003_TrumpetPlot_ParaChange_from10_every3_12_CV_C01_33.csv
mode,ox/red,error,control changes,counter inc.,time/s,control/V,Ewe/V,<I>/mA,cycle number,(Q-Qo)/C,I Range,P/W,log(|I|),Tafel slope mV/dec,alpha_eff,dI/d(E-IR),E-IR/V,
2,1,0,1,0,66210.8,2.44065e-05,-0.000363498,13.8074,34,0.0000000E+000,10,-5.01898e-06,-1.85989, , , ,-0.000363498,
2,1,0,1,0,66210.8,0.0104008,0.0100698,16.7862,34,0.000266267,10,0.000169035,-1.77505,0.181616,0.32486,211.832,0.0100698,
2,1,0,1,0,66210.9,0.0212099,0.0208521,18.7947,34,0.000587432,10,0.000391908,-1.72596,0.263474,0.223931,163.817,0.0208521,
2,1,0,1,0,66210.9,0.0320052,0.0316385,20.4166,34,0.000940874,10,0.000645951,-1.69002,0.334507,0.176379,140.364,0.0316385,
2,1,0,1,0,66210.9,0.0428033,0.042443,21.8396,34,0.00132167,10,0.000926938,-1.66076,0.402631,0.146536,124.849,0.042443,
2,1,0,1,0,66210.9,0.0535986,0.0532602,23.1477,34,0.00172684,10,0.00123285,-1.63549,0.460544,0.128109,115.664,0.0532602,
2,1,0,1,0,66210.9,0.0644077,0.0640795,24.3868,34,0.00215481,10,0.0015627,-1.61284,0.494162,0.119394,113.572,0.0640795,
2,1,0,1,0,66210.9,0.075203,0.0748607,25.6124,34,0.00260487,10,0.00191736,-1.59155,0.518029,0.113893,113.812,0.0748607,
2,1,0,1,0,66211,0.0860011,0.0856599,26.8332,34,0.00307691,10,0.00229853,-1.57133,0.545639,0.10813,113.229,0.0856599,
2,1,0,1,0,66211,0.0968075,0.0964527,28.0768,34,0.00357118,10,0.00270808,-1.55165,0.561635,0.10505,115.066,0.0964527,
2,1,0,1,0,66211,0.107606,0.107268,29.3257,34,0.00408788,10,0.0031457,-1.53275,0.568269,0.103824,118.831,0.107268,
2,1,0,1,0,66211,0.118401,0.118075,30.6161,34,0.00462741,10,0.00361501,-1.51405,0.580469,0.101642,121.473,0.118075,
2,1,0,1,0,66211,0.129207,0.12881,31.9477,34,0.00519064,10,0.00411518,-1.49556,0.569267,0.103642,129.339,0.12881,
2,1,0,1,0,66211.1,0.140005,0.139656,33.4592,34,0.00577924,10,0.00467277,-1.47548,0.537567,0.109754,143.322,0.139656,
2,1,0,1,0,66211.1,0.150803,0.150494,35.0035,34,0.00639564,10,0.00526783,-1.45589,0.575599,0.102502,139.992,0.150494,
2,1,0,1,0,66211.1,0.161604,0.161223,36.4813,34,0.00703932,10,0.00588164,-1.43793,0.646697,0.0912328,129.833,0.161223,
2,1,0,1,0,66211.1,0.172405,0.172077,37.8016,34,0.00770837,10,0.00650477,-1.42249,0.787514,0.0749193,110.416,0.172077,
2,1,0,1,0,66211.1,0.183203,0.182849,38.8088,34,0.00839857,10,0.00709616,-1.41107,1.2438,0.0474354,71.7428,0.182849,
2,1,0,1,0,66211.1,0.194001,0.193616,39.2935,34,0.00910237,10,0.00760783,-1.40568,5.29936,0.0111334,17.0462,0.1936156,
2,1,0,1,0,66211.2,0.204808,0.204447,39.1701,34,0.00980949,10,0.0080082,-1.40705,-2.24501,-0.0262806,-40.1062,0.2044466,
2,1,0,1,0,66211.2,0.215603,0.215271,38.4091,34,0.0105086,10,0.00826838,-1.41557,-0.915563,-0.0644412,-96.457,0.2152712,
2,1,0,1,0,66211.2,0.226401,0.226053,37.0633,34,0.0111885,10,0.00837828,-1.43106,-0.582515,-0.101285,-146.363,0.226053,
2,1,0,1,0,66211.2,0.237207,0.236876,35.3081,34,0.0118402,10,0.00836364,-1.45213,-0.462828,-0.127477,-175.518,0.236876,
2,1,0,1,0,66211.2,0.248005,0.2477,33.3417,34,0.012458,10,0.00825873,-1.47701,-0.419662,-0.140589,-182.903,0.2477,
2,1,0,1,0,66211.3,0.258801,0.258471,31.3712,34,0.0130401,10,0.00810855,-1.50347,-0.404812,-0.145747,-178.538,0.258471,
2,1,0,1,0,66211.3,0.26961,0.269296,29.5558,34,0.0135881,10,0.00795924,-1.52936,-0.420816,-0.140204,-161.757,0.269296,
2,1,0,1,0,66211.3,0.280405,0.280069,27.9161,34,0.0141048,10,0.00781845,-1.55415,-0.453313,-0.130153,-141.845,0.280069,
2,1,0,1,0,66211.3,0.291203,0.290905,26.4894,34,0.0145939,10,0.00770589,-1.57693,-0.492056,-0.119905,-124.006,0.290905,
2,1,0,0,0,66211.3,0.300012,0.299861,25.4608,34,0.0149756,10,0.00763471,-1.59413,0.00268788,21.9504,19937.6,0.299861,
2,1,0,1,0,66211.3,0.290843,0.290578,15.4215,34,0.0152763,10,0.00448115,-1.81187,0.0449698,1.31199,795.312,0.290578,
2,1,0,1,0,66211.4,0.280047,0.279803,8.50114,34,0.015487,10,0.00237865,-2.07052,0.0361765,1.63089,536.304,0.279803,
2,1,0,1,0,66211.4,0.269244,0.268962,3.54998,34,0.0155928,10,0.000954809,-2.44977,0.0192784,3.06041,396.489,0.268962,
2,0,0,1,0,66211.4,0.258443,0.258137,-0.177803,34,0.0156213,10,-4.58974e-05,-3.75006,-0.160333,-0.367984,304.468,0.258137,
2,0,0,1,0,66211.4,0.247645,0.247341,-3.09207,34,0.0155905,10,-0.000764795,-2.50975,-0.0275957,-2.13802,241.675,0.2473411,
2,0,0,1,0,66211.4,0.236849,0.2365,-5.43563,34,0.0155126,10,-0.00128552,-2.26475,-0.0625797,-0.942797,196.866,0.2364995,
2,0,0,1,0,66211.4,0.22604,0.225757,-7.36931,34,0.0153966,10,-0.00166367,-2.13257,-0.103562,-0.569708,162.626,0.225757,
2,0,0,1,0,66211.5,0.215245,0.21493,-8.98027,34,0.0152488,10,-0.00193013,-2.04671,-0.149233,-0.395356,138.114,0.21493,
2,0,0,1,0,66211.5,0.204447,0.204095,-10.3898,34,0.0150741,10,-0.00212049,-1.98339,-0.197389,-0.298902,120.692,0.204095,
2,0,0,1,0,66211.5,0.19364,0.193299,-11.6101,34,0.014876,10,-0.00224421,-1.93517,-0.247446,-0.238436,107.704,0.193299,
2,0,0,1,0,66211.5,0.182842,0.182591,-12.7064,34,0.014657,10,-0.00232006,-1.89598,-0.296,-0.199324,98.6935,0.182591,
2,0,0,1,0,66211.5,0.172047,0.171742,-13.744,34,0.0144188,10,-0.00236042,-1.86189,-0.328422,-0.179647,96.3265,0.171742,
2,0,0,1,0,66211.6,0.161241,0.160946,-14.7825,34,0.014162,10,-0.00237917,-1.83025,-0.348197,-0.169444,97.73,0.160946,
2,0,0,1,0,66211.6,0.150443,0.150117,-15.884,34,0.0138861,10,-0.00238445,-1.79904,-0.334717,-0.176268,109.354,0.150117,
2,0,0,1,0,66211.6,0.139645,0.139381,-17.1882,34,0.0135887,10,-0.0023957,-1.76477,-0.289527,-0.203781,137.099,0.139381,
2,0,0,1,0,66211.6,0.128849,0.128498,-18.9133,34,0.0132642,10,-0.00243033,-1.72323,-0.238546,-0.247332,183.005,0.128498,
2,0,0,1,0,66211.6,0.118043,0.11776,-21.1493,34,0.0129042,10,-0.00249055,-1.6747,-0.211465,-0.279005,230.614,0.11776,
2,0,0,1,0,66211.6,0.107245,0.106974,-23.7933,34,0.0124996,10,-0.00254526,-1.62355,-0.216784,-0.27216,252.663,0.106974,
2,0,0,1,0,66211.7,0.0964468,0.0961876,-26.5235,34,0.0120464,10,-0.00255123,-1.57637,-0.247214,-0.238659,246.664,0.0961876,
2,0,0,1,0,66211.7,0.0856404,0.085381,-29.0658,34,0.0115456,10,-0.00248167,-1.53662,-0.294199,-0.200544,227.272,0.085381,
2,0,0,1,0,66211.7,0.0748451,0.0745447,-31.3684,34,0.0110009,10,-0.00233835,-1.50351,-0.36978,-0.159554,194.984,0.0745447,
2,0,0,1,0,66211.7,0.0640471,0.0637444,-33.2464,34,0.0104185,10,-0.00211927,-1.47826,-0.496878,-0.118741,153.829,0.0637444,
2,0,0,1,0,66211.7,0.0532407,0.0529675,-34.7114,34,0.00980632,10,-0.00183858,-1.45953,-0.664854,-0.0887413,120.073,0.0529675,
2,0,0,1,0,66211.8,0.0424426,0.042163,-35.8128,34,0.00917092,10,-0.00150998,-1.44596,-0.951441,-0.0620112,86.5874,0.04216304,
2,0,0,1,0,66211.8,0.0316473,0.0313321,-36.5781,34,0.00851881,10,-0.00114607,-1.43678,-1.43004,-0.0412576,58.8651,0.0313321,
2,0,0,1,0,66211.8,0.0208437,0.020571,-37.0769,34,0.00785545,10,-0.00076271,-1.4309,-2.50839,-0.0235211,34.0185,0.020571,
2,0,0,1,0,66211.8,0.0100429,0.00974217,-37.3338,34,0.00718531,10,-0.000363713,-1.4279,-5.80616,-0.0101616,14.8008,0.00974217,
2,0,0,1,0,66211.8,-0.000755208,-0.00113866,-37.4245,34,0.00651217,10,4.26136e-05,-1.42684,30.9528,0.00190613,-2.78121,-0.00113866,
2,0,0,1,0,66211.8,-0.0115505,-0.0119516,-37.2502,34,0.00583983,10,0.0004452,-1.42887,3.34916,0.0176163,-25.5961,-0.0119516,
2,0,0,1,0,66211.9,-0.0223597,-0.0227073,-36.8952,34,0.00517236,10,0.000837792,-1.43303,2.05921,0.0286517,-41.2274,-0.0227073,
2,0,0,1,0,66211.9,-0.033155,-0.0335108,-36.3978,34,0.00451268,10,0.00121972,-1.43892,1.77956,0.0331543,-47.0911,-0.0335108,
2,0,0,1,0,66211.9,-0.043953,-0.0443407,-35.8661,34,0.00386241,10,0.00159033,-1.44532,1.67092,0.03531,-49.417,-0.0443407,
2,0,0,1,0,66211.9,-0.0547594,-0.0551399,-35.359,34,0.00322167,10,0.00194969,-1.4515,1.86166,0.0316921,-43.7292,-0.0551399,
2,0,0,1,0,66211.9,-0.0655575,-0.0659528,-34.9274,34,0.00258934,10,0.00230356,-1.45683,2.56021,0.023045,-31.4269,-0.0659528,
2,0,0,1,0,66212,-0.0763528,-0.0767086,-34.6347,34,0.00196345,10,0.00265678,-1.46049,3.95282,0.0149261,-20.1865,-0.0767086,
2,0,0,1,0,66212,-0.0871592,-0.0875396,-34.488,34,0.00134159,10,0.00301907,-1.46233,8.71611,0.00676907,-9.11411,-0.0875396,
2,0,0,1,0,66212,-0.0979573,-0.0983133,-34.4651,34,0.000721209,10,0.00338838,-1.46262,12.3033,0.00479548,-6.44382,-0.0983133,
2,0,0,1,1,66212,-0.0955546,-0.0959921,-27.4386,34,0.000372079,10,0.00263389,-1.56164,-0.0499957,-1.1801,1285.02,-0.0959921,
2,0,0,1,1,66212,-0.0847538,-0.085142,-17.2826,34,-2.27016e-05,10,0.00147147,-1.76239,-0.05145,-1.14674,773.409,-0.085142,
2,0,0,1,1,66212,-0.0739557,-0.0743576,-10.0165,34,-0.000264953,10,0.000744804,-1.99928,-0.0385338,-1.53112,590.836,-0.0743576,
2,0,0,1,1,66212.1,-0.0631604,-0.0635754,-4.24371,34,-0.000390962,10,0.000269795,-2.37225,-0.0185197,-3.1858,483.236,-0.0635754,
2,1,0,1,1,66212.1,-0.0523512,-0.0527423,0.534553,34,-0.00042258,10,-2.81936e-05,-3.27201,0.0468618,1.25902,404.057,-0.0527423,
2,1,0,1,1,66212.1,-0.0415559,-0.0419749,4.53852,34,-0.000375626,10,-0.000190504,-2.34309,0.0286336,2.06052,343.243,-0.0419749,
2,1,0,1,1,66212.1,-0.0307579,-0.0311779,7.95712,34,-0.000262068,10,-0.000248086,-2.09924,0.0615059,0.959258,292.839,-0.0311779,
2,1,0,1,1,66212.1,-0.0199515,-0.0203755,10.8866,34,-9.15045e-05,10,-0.00022182,-1.96311,0.0990855,0.595445,250.892,-0.0203755,
2,1,0,1,1,66212.1,-0.0091534,-0.00955405,13.3818,34,0.000127736,10,-0.00012785,-1.87349,0.143535,0.411051,213.619,-0.00955405,
2,1,0,0,1,66212.2,-7.54729e-05,-0.000363498,15.138,34,0.000343867,10,-5.50264e-06,-1.81993, , , ,-0.000363498,