Folder: Figs_alphaMnO2_OER_Tafel_sleope/Figure_codes/Fig_3-5/rawdata_trumpetplot_data/after 10th (part 51)

File: 20221101_1-115_003_TrumpetPlot_ParaChange_from10_every3_04_CV_C01_31.csv
mode,ox/red,error,control changes,counter inc.,time/s,control/V,Ewe/V,<I>/mA,cycle number,(Q-Qo)/C,I Range,P/W,log(|I|),Tafel slope mV/dec,alpha_eff,dI/d(E-IR),E-IR/V,
2,0,0,1,0,62134.1,2.44065e-05,-0.000325324,-0.390697,32,0.0000000E+000,10,1.27103e-07,-3.40816, , , ,-0.000325324,
2,1,0,1,0,62134.8,0.00729063,0.00695649,0.333187,32,0.000151703,10,2.31781e-06,-3.47731,0.05207,1.13309,14.5239,0.00695649,
2,1,0,1,0,62135.5,0.0147814,0.0144331,0.408956,32,0.000442295,10,5.90251e-06,-3.38832,0.108259,0.544989,8.69848,0.0144331,
2,1,0,1,0,62136.3,0.0222725,0.0218955,0.463597,32,0.00077933,10,1.01507e-05,-3.33386,0.159229,0.370536,6.68851,0.0218955,
2,1,0,1,0,62137,0.0297635,0.0294076,0.513649,32,0.00115417,10,1.51052e-05,-3.28933,0.17372,0.339627,6.78596,0.0294076,
2,1,0,1,0,62137.8,0.0372544,0.0369289,0.559591,32,0.00156555,10,2.06651e-05,-3.25213,0.224551,0.262747,5.74499,0.0369289,
2,1,0,1,0,62138.5,0.0447458,0.0443916,0.60627,32,0.00201233,10,2.69133e-05,-3.21733,0.230058,0.256457,6.07575,0.0443916,
2,1,0,1,0,62139.3,0.0522363,0.0518721,0.651138,32,0.00249364,10,3.37759e-05,-3.18633,0.227792,0.259008,6.5793,0.0518721,
2,1,0,1,0,62140,0.0597282,0.0593573,0.69378,32,0.00300671,10,4.1181e-05,-3.15878,0.302136,0.195277,5.26677,0.0593573,
2,1,0,1,0,62140.8,0.0672182,0.0669299,0.726105,32,0.00354733,10,4.85981e-05,-3.139,0.421545,0.139961,3.95539,0.0669299,
2,1,0,1,0,62141.5,0.0747092,0.074357,0.755056,32,0.00411172,10,5.61437e-05,-3.12202,0.456686,0.129192,3.80134,0.074357,
2,1,0,1,0,62142.3,0.0822001,0.0818774,0.779514,32,0.00469699,10,6.38245e-05,-3.10818,0.539165,0.109428,3.33897,0.0818774,
2,1,0,1,0,62143,0.0896911,0.0893745,0.813721,32,0.00530299,10,7.27259e-05,-3.08952,0.389216,0.151587,4.82438,0.08937446,
2,1,0,1,0,62143.8,0.097182,0.0968577,0.863965,32,0.0059403,10,8.36817e-05,-3.0635,0.211274,0.279259,9.42991,0.0968577,
2,1,0,1,0,62144.5,0.104673,0.10431,0.940974,32,0.00662497,10,9.81533e-05,-3.02642,0.205345,0.287321,10.5233,0.10431,
2,1,0,1,0,62145.3,0.112164,0.111807,1.01111,32,0.00736639,10,0.00011305,-2.9952,0.281239,0.209786,8.26652,0.111807,
2,1,0,1,0,62146,0.119655,0.119297,1.06021,32,0.00815391,10,0.000126479,-2.97461,0.643158,0.0917348,3.7974,0.119297,
2,1,0,1,0,62146.8,0.127146,0.126839,1.0834,32,0.00896812,10,0.000137416,-2.96521,1.15114,0.0512537,2.16929,0.126839,
2,1,0,1,0,62147.5,0.134637,0.134265,1.08133,32,0.00979277,10,0.000145185,-2.96604,-0.473746,-0.124539,-5.2551,0.134265,
2,1,0,1,0,62148.3,0.142127,0.141766,0.994351,32,0.0105876,10,0.000140965,-3.00246,-0.122371,-0.48214,-18.6166,0.141766,
2,1,0,1,0,62149,0.149619,0.149247,0.818783,32,0.0112778,10,0.000122201,-3.08683,-0.077929,-0.7571,-24.1636,0.149247,
2,1,0,1,0,62149.8,0.157109,0.156779,0.673309,32,0.0118397,10,0.000105561,-3.17179,-0.108101,-0.545788,-14.3668,0.156779,
2,1,0,1,0,62150.5,0.164601,0.164284,0.599472,32,0.0123216,10,9.84835e-05,-3.22223,-0.214158,-0.275498,-6.44931,0.164284,
2,1,0,1,0,62151.3,0.172091,0.171726,0.561861,32,0.0127646,10,9.64858e-05,-3.25037,-0.420932,-0.140165,-3.09133,0.1717255,
2,1,0,1,0,62152,0.179582,0.179255,0.543552,32,0.0131883,10,9.74341e-05,-3.26476,-0.690804,-0.0854077,-1.82177,0.1792545,
2,1,0,1,0,62152.8,0.187074,0.186722,0.532939,32,0.0136009,10,9.95115e-05,-3.27332,-1.36215,-0.0433138,-0.900854,0.186722,
2,1,0,1,0,62153.5,0.194564,0.194213,0.525861,32,0.0140064,10,0.000102129,-3.27913,-1.39435,-0.0423138,-0.868331,0.194213,
2,1,0,1,0,62154.3,0.202056,0.201697,0.518948,32,0.0144067,10,0.00010467,-3.28488,-0.8581,-0.0687566,-1.39176,0.201697,
2,1,0,1,0,62155,0.209546,0.209198,0.51493,32,0.0148034,10,0.000107723,-3.28825,-0.968708,-0.0609059,-1.22563,0.209198,
2,1,0,1,0,62155.8,0.217038,0.216676,0.509991,32,0.0151965,10,0.000110503,-3.29244,-2.63141,-0.0224214,-0.447658,0.216676,
2,1,0,1,0,62156.5,0.224528,0.224183,0.508093,32,0.0155872,10,0.000113906,-3.29406,-2.62915,-0.0224407,-0.444724,0.224183,
2,1,0,1,0,62157.3,0.232019,0.231687,0.505337,32,0.0159754,10,0.00011708,-3.29642,-4.13337,-0.0142741,-0.280945,0.231687,
2,1,0,1,0,62158,0.23951,0.239165,0.500973,32,0.0163616,10,0.000119815,-3.30019,-2.39006,-0.0246855,-0.484196,0.239165,
2,1,0,1,0,62158.8,0.247001,0.246643,0.500932,32,0.0167457,10,0.000123551,-3.30022,-1.76931,-0.0333463,-0.648556,0.246643,
2,1,0,1,0,62159.5,0.254492,0.25416,0.497345,32,0.0171277,10,0.000126405,-3.30334,-23.7727,-0.00248184,-0.0481219,0.25416,
2,1,0,1,0,62160.3,0.261983,0.261651,0.492922,32,0.0175071,10,0.000128974,-3.30722,-2.49737,-0.0236249,-0.455181,0.261651,
2,1,0,1,0,62161,0.269474,0.269146,0.48951,32,0.0178844,10,0.00013175,-3.31024,22.5828,0.00261261,0.0500454,0.2691462,
2,1,0,1,0,62161.8,0.276965,0.276658,0.486871,32,0.0182594,10,0.000134697,-3.31259,-2.11453,-0.0279021,-0.530879,0.276658,
2,1,0,1,0,62162.5,0.284456,0.284155,0.483205,32,0.0186313,10,0.000137305,-3.31587,-4.35901,-0.0135352,-0.254983,0.284155,
2,1,0,1,0,62163.3,0.291947,0.291599,0.47938,32,0.0190003,10,0.000139787,-3.31932,-1.22631,-0.0481116,-0.899588,0.291599,
2,1,0,1,0,62164,0.299437,0.299086,0.474665,32,0.0193663,10,0.000141966,-3.32361,-0.00345557,-17.0739,-184.729,0.299086,
2,0,0,1,0,62164.7,0.293745,0.293397,-0.0637763,32,0.0194026,10,-1.87117e-05,-4.19534,-0.0113798,-5.18464,11.5366,0.293397,
2,0,0,1,0,62165.4,0.286253,0.285957,-0.121163,32,0.0193219,10,-3.46474e-05,-3.91663,-0.0455814,-1.29439,6.1536,0.285957,
2,0,0,1,0,62166.2,0.278763,0.278453,-0.157544,32,0.0192069,10,-4.38686e-05,-3.8026,-0.0867701,-0.679958,4.19794,0.278453,
2,0,0,1,0,62166.9,0.271272,0.270937,-0.189116,32,0.0190681,10,-5.12385e-05,-3.72327,-0.109591,-0.538366,3.92911,0.270937,
2,0,0,1,0,62167.7,0.263781,0.263421,-0.211344,32,0.0189093,10,-5.56726e-05,-3.67501,-0.173653,-0.339758,2.80658,0.263421,
2,0,0,1,0,62168.4,0.25629,0.255941,-0.233623,32,0.0187336,10,-5.97938e-05,-3.63148,-0.220253,-0.267873,2.43113,0.255941,
2,0,0,1,0,62169.2,0.248799,0.248444,-0.250734,32,0.0185432,10,-6.22934e-05,-3.60079,-0.247454,-0.238428,2.33736,0.248444,
2,0,0,1,0,62169.9,0.241308,0.24096,-0.266732,32,0.0183399,10,-6.42717e-05,-3.57392,-0.325626,-0.181189,1.89475,0.24096,
2,0,0,1,0,62170.7,0.233817,0.233482,-0.282542,32,0.0181247,10,-6.59683e-05,-3.54892,-0.314595,-0.187542,2.07353,0.233482,
2,0,0,1,0,62171.4,0.226326,0.226016,-0.297406,32,0.0178982,10,-6.72186e-05,-3.52665,-0.359732,-0.164011,1.90682,0.226016,
2,0,0,1,0,62172.2,0.218835,0.218477,-0.312491,32,0.0176603,10,-6.82721e-05,-3.50516,-0.329903,-0.17884,2.17918,0.218477,
2,0,0,1,0,62172.9,0.211344,0.210984,-0.327494,32,0.0174116,10,-6.9096e-05,-3.4848,-0.506794,-0.116418,1.4823,0.210984,
2,0,0,1,0,62173.7,0.203854,0.203468,-0.341477,32,0.0171517,10,-6.94796e-05,-3.46664,-0.418391,-0.141016,1.8819,0.203468,
2,0,0,1,0,62174.4,0.196362,0.195996,-0.356316,32,0.0168813,10,-6.98365e-05,-3.44817,-0.393025,-0.150118,2.08597,0.1959962,
2,0,0,1,0,62175.2,0.188872,0.188478,-0.371562,32,0.0165988,10,-7.00313e-05,-3.42997,-0.276843,-0.213118,3.10527,0.188478,
2,0,0,1,0,62175.9,0.18138,0.181041,-0.390379,32,0.0163042,10,-7.06746e-05,-3.40851,-0.382748,-0.154148,2.34625,0.181041,
2,0,0,1,0,62176.7,0.17389,0.173525,-0.410215,32,0.015996,10,-7.11826e-05,-3.38699,-0.276593,-0.21331,3.41354,0.173525,
2,0,0,1,0,62177.4,0.166398,0.166048,-0.432377,32,0.0156714,10,-7.17955e-05,-3.36414,-0.357935,-0.164834,2.79297,0.1660482,
2,0,0,1,0,62178.2,0.158907,0.158526,-0.464221,32,0.015326,10,-7.35913e-05,-3.33328,-0.199566,-0.295642,5.3853,0.158526,
2,0,0,1,0,62178.9,0.151417,0.150992,-0.513837,32,0.0149507,10,-7.7585e-05,-3.28917,-0.156614,-0.376722,7.5697,0.150992,
2,0,0,1,0,62179.7,0.143925,0.143574,-0.593213,32,0.0145292,10,-8.51701e-05,-3.22679,-0.0907125,-0.650406,15.0652,0.143574,
2,0,0,1,0,62180.4,0.136435,0.136068,-0.717611,32,0.0140304,10,-9.76442e-05,-3.14411,-0.0860151,-0.685926,19.1978,0.1360684,
2,0,0,1,0,62181.2,0.128943,0.128577,-0.869134,32,0.0134265,10,-0.00011175,-3.06091,-0.102493,-0.575649,19.4443,0.128577,
2,0,0,1,0,62181.9,0.121453,0.121103,-0.999818,32,0.0127148,10,-0.000121081,-3.00008,-0.157528,-0.374537,14.5773,0.121103,
2,0,0,1,0,62182.7,0.113962,0.113638,-1.08001,32,0.0119213,10,-0.00012273,-2.96657,-0.388817,-0.151742,6.38733,0.113638,
2,0,0,1,0,62183.4,0.106471,0.106164,-1.09982,32,0.0110906,10,-0.000116761,-2.95868,20.1289,0.00293111,-0.125952,0.106164,
2,0,0,1,0,62184.2,0.0989798,0.0986169,-1.08582,32,0.0102602,10,-0.00010708,-2.96424,1.28521,0.0459069,-1.94393,0.09861695,
2,0,0,1,0,62184.9,0.0914889,0.0911188,-1.0653,32,0.00944506,10,-9.70686e-05,-2.97253,0.896861,0.065785,-2.73143,0.0911188,
2,0,0,1,0,62185.7,0.083998,0.0836058,-1.04213,32,0.00864652,10,-8.71281e-05,-2.98208,0.601036,0.0981638,-3.98452,0.0836058,
2,0,0,1,0,62186.4,0.076507,0.076183,-1.01773,32,0.00786548,10,-7.75335e-05,-2.99237,0.676108,0.0872642,-3.46244,0.076183,
2,0,0,1,0,62187.2,0.069016,0.0686743,-0.987368,32,0.00710428,10,-6.78068e-05,-3.00552,0.587579,0.100412,-3.88276,0.0686743,
2,0,0,1,0,62187.9,0.0615251,0.0611655,-0.959836,32,0.00636347,10,-5.87089e-05,-3.0178,0.555346,0.10624,-3.99039,0.0611655,
2,0,0,1,0,62188.7,0.0540342,0.0536419,-0.933588,32,0.00564445,10,-5.00795e-05,-3.02984,0.576178,0.102399,-3.72334,0.0536419,
2,0,0,1,0,62189.4,0.0465441,0.0462086,-0.901759,32,0.00494716,10,-4.1669e-05,-3.04491,0.575484,0.102522,-3.61552,0.0462086,
2,0,0,1,0,62190.2,0.0390523,0.0386923,-0.873024,32,0.00427274,10,-3.37793e-05,-3.05897,0.406206,0.145247,-4.93816,0.0386923,
2,0,0,1,0,62190.9,0.0315618,0.0311988,-0.839998,32,0.00362196,10,-2.62069e-05,-3.07572,0.448559,0.131532,-4.31096,0.0311988,
2,0,0,1,0,62191.7,0.0240704,0.0237311,-0.808608,32,0.00299421,10,-1.91891e-05,-3.09226,0.521342,0.113169,-3.58381,0.0237311,
2,0,0,1,0,62192.4,0.0165796,0.016219,-0.788487,32,0.00238659,10,-1.27885e-05,-3.10321,0.723677,0.0815281,-2.50871,0.016219,
2,0,0,1,0,62193.1,0.00908846,0.00872737,-0.772601,32,0.00179355,10,-6.74278e-06,-3.11204,1.96419,0.0300378,-0.905343,0.00872737,
2,0,0,1,0,62193.9,0.00159728,0.00118096,-0.77637,32,0.00120693,10,-9.16858e-07,-3.10993, , , ,0.00118096,
2,0,0,1,0,62194,0.000199195,-0.0002108,-0.769576,32,0.0010971,10,1.62226e-07,-3.11375, , , ,-0.0002108,

File: 20221101_1-115_003_TrumpetPlot_ParaChange_from10_every3_04_CV_C01_32.csv
mode,ox/red,error,control changes,counter inc.,time/s,control/V,Ewe/V,<I>/mA,cycle number,(Q-Qo)/C,I Range,P/W,log(|I|),Tafel slope mV/dec,alpha_eff,dI/d(E-IR),E-IR/V,
2,0,0,1,0,64104.2,2.44065e-05,-0.000287149,-0.37416,33,0.0000000E+000,10,1.0744e-07,-3.42694, , , ,-0.0002871489,
2,1,0,1,0,64104.9,0.00729063,0.00697027,0.337265,33,0.000158291,10,2.35083e-06,-3.47203,0.0526872,1.11982,14.4978,0.00697027,
2,1,0,1,0,64105.7,0.0147814,0.0144397,0.412344,33,0.000451919,10,5.95414e-06,-3.38474,0.121775,0.484502,7.7628,0.0144397,
2,1,0,1,0,64106.4,0.0222725,0.0219294,0.463456,33,0.000790631,10,1.01633e-05,-3.33399,0.161954,0.364301,6.57366,0.0219294,
2,1,0,1,0,64107.2,0.0297635,0.0294708,0.513632,33,0.00116665,10,1.51372e-05,-3.28935,0.188092,0.313676,6.27586,0.02947079,
2,1,0,1,0,64107.9,0.0372544,0.0369045,0.559897,33,0.00157896,10,2.06627e-05,-3.25189,0.20856,0.282893,6.181,0.0369045,
2,1,0,1,0,64108.7,0.0447458,0.0444097,0.60703,33,0.00202685,10,2.6958e-05,-3.21679,0.215617,0.273634,6.4855,0.0444097,
2,1,0,1,0,64109.4,0.0522363,0.0519315,0.652372,33,0.0025094,10,3.38787e-05,-3.1855,0.241252,0.244558,6.2159,0.0519315,
2,1,0,1,0,64110.2,0.0597282,0.0593699,0.692138,33,0.00302384,10,4.10922e-05,-3.15981,0.290794,0.202893,5.47888,0.0593699,
2,1,0,1,0,64110.9,0.0672182,0.0669023,0.729079,33,0.00356612,10,4.87771e-05,-3.13723,0.355627,0.165904,4.69589,0.0669023,
2,1,0,1,0,64111.7,0.0747092,0.0743888,0.756756,33,0.0041323,10,5.62942e-05,-3.12104,0.594838,0.0991866,2.92389,0.0743888,
2,1,0,1,0,64112.4,0.0822001,0.0818625,0.779935,33,0.004719,10,6.38474e-05,-3.10794,0.479512,0.123042,3.75252,0.0818625,
2,1,0,1,0,64113.2,0.0896911,0.0893723,0.813842,33,0.00532656,10,7.27349e-05,-3.08946,0.345412,0.17081,5.44062,0.0893723,
2,1,0,1,0,64113.9,0.097182,0.0968641,0.865734,33,0.00596541,10,8.38586e-05,-3.06262,0.213063,0.276914,9.35181,0.0968641,
2,1,0,1,0,64114.7,0.104673,0.104311,0.94255,33,0.00665151,10,9.83186e-05,-3.0257,0.203303,0.290208,10.6371,0.104311,
2,1,0,1,0,64115.4,0.112164,0.111857,1.01455,33,0.00739531,10,0.000113485,-2.99373,0.283586,0.20805,8.21298,0.111857,
2,1,0,1,0,64116.2,0.119655,0.11934,1.06257,33,0.0081857,10,0.000126807,-2.97364,0.704164,0.0837873,3.47237,0.11934,
2,1,0,1,0,64116.9,0.127146,0.126781,1.08321,33,0.00900225,10,0.000137331,-2.96529,1.56928,0.037597,1.59093,0.126781,
2,1,0,1,0,64117.6,0.134637,0.134296,1.08335,33,0.00982825,10,0.00014549,-2.96523,-0.508266,-0.116081,-4.89347,0.134296,
2,1,0,1,0,64118.4,0.142127,0.141785,0.990957,33,0.0106232,10,0.000140503,-3.00395,-0.124934,-0.472251,-18.1998,0.141785,
2,1,0,1,0,64119.1,0.149619,0.149313,0.814855,33,0.0113127,10,0.000121668,-3.08892,-0.076762,-0.76861,-24.4098,0.149313,
2,1,0,1,0,64119.9,0.157109,0.156763,0.667392,33,0.0118728,10,0.000104622,-3.17562,-0.106427,-0.554368,-14.4784,0.1567627,
2,1,0,1,0,64120.6,0.164601,0.164254,0.595871,33,0.0123523,10,9.78742e-05,-3.22485,-0.196541,-0.300192,-6.96205,0.164254,
2,1,0,1,0,64121.4,0.172091,0.171744,0.558215,33,0.0127934,10,9.58703e-05,-3.2532,-0.378185,-0.156008,-3.41457,0.171744,
2,1,0,1,0,64122.1,0.179582,0.179233,0.54091,33,0.0132151,10,9.69491e-05,-3.26687,-0.77394,-0.0762333,-1.61361,0.179233,
2,1,0,1,0,64122.9,0.187074,0.186718,0.53045,33,0.0136262,10,9.90445e-05,-3.27536,-2.35633,-0.0250389,-0.518064,0.186718,
2,1,0,1,0,64123.6,0.194564,0.194236,0.523861,33,0.0140305,10,0.000101753,-3.28078,-0.942935,-0.0625706,-1.27844,0.194236,
2,1,0,1,0,64124.4,0.202056,0.201683,0.517793,33,0.0144302,10,0.00010443,-3.28584,-1.47143,-0.040097,-0.808901,0.201683,
2,1,0,1,0,64125.1,0.209546,0.20921,0.5143,33,0.0148267,10,0.000107597,-3.28878,-1.19038,-0.0495641,-0.994877,0.2092099,
2,1,0,1,0,64125.9,0.217038,0.216725,0.510173,33,0.01522,10,0.000110567,-3.29228,-2.83044,-0.0208448,-0.414565,0.216725,
2,1,0,1,0,64126.6,0.224528,0.224193,0.505873,33,0.0156109,10,0.000113413,-3.29596,-3.33662,-0.0176826,-0.349674,0.224193,
2,1,0,1,0,64127.4,0.232019,0.231676,0.503723,33,0.0159992,10,0.0001167,-3.29781,11.4302,0.00516177,0.101515,0.2316757,
2,1,0,1,0,64128.1,0.23951,0.23918,0.50082,33,0.0163858,10,0.000119786,-3.30032,-1.72377,-0.0342272,-0.669643,0.23918,
2,1,0,1,0,64128.9,0.247001,0.246662,0.499112,33,0.0167702,10,0.000123112,-3.3018,-2.06151,-0.0286197,-0.556266,0.246662,
2,1,0,1,0,64129.6,0.254492,0.25417,0.494654,33,0.0171523,10,0.000125726,-3.3057,-3.89913,-0.0151316,-0.293297,0.25417,
2,1,0,1,0,64130.4,0.261983,0.261647,0.493547,33,0.0175322,10,0.000129135,-3.30667,-1.70814,-0.0345405,-0.664866,0.261647,
2,1,0,1,0,64131.1,0.269474,0.269155,0.490187,33,0.0179099,10,0.000131936,-3.30964,127.292,0.000463503,0.00885328,0.2691547,
2,1,0,1,0,64131.9,0.276965,0.276605,0.485826,33,0.0182851,10,0.000134382,-3.31352,-1.55708,-0.0378913,-0.718695,0.276605,
2,1,0,1,0,64132.6,0.284456,0.284135,0.483161,33,0.0186573,10,0.000137283,-3.31591,-64.7474,-0.000911233,-0.0171603,0.284135,
2,1,0,1,0,64133.4,0.291947,0.291647,0.478735,33,0.0190267,10,0.000139622,-3.3199,-1.38577,-0.0425756,-0.795266,0.291647,
2,1,0,1,0,64134.1,0.299437,0.299113,0.474503,33,0.0193933,10,0.00014193,-3.32376,-0.00335335,-17.5944,-186.783,0.299113,
2,0,0,1,0,64134.8,0.293745,0.293401,-0.0651102,33,0.0194265,10,-1.91034e-05,-4.18635,-0.0118194,-4.9918,11.5499,0.293401,
2,0,0,1,0,64135.6,0.286253,0.28593,-0.122049,33,0.0193439,10,-3.48976e-05,-3.91346,-0.0499764,-1.18056,5.6348,0.28593,
2,0,0,1,0,64136.3,0.278763,0.27844,-0.159205,33,0.0192278,10,-4.43289e-05,-3.79804,-0.0918437,-0.642396,3.96817,0.27844,
2,0,0,1,0,64137.1,0.271272,0.27092,-0.188453,33,0.0190879,10,-5.10558e-05,-3.7248,-0.117099,-0.503848,3.67669,0.27092,
2,0,0,1,0,64137.8,0.263781,0.263504,-0.212784,33,0.0189279,10,-5.60695e-05,-3.67206,-0.159938,-0.368892,3.0357,0.263504,
2,0,0,1,0,64138.6,0.25629,0.255988,-0.235043,33,0.0187511,10,-6.0168e-05,-3.62885,-0.207681,-0.28409,2.58229,0.255988,
2,0,0,1,0,64139.3,0.248799,0.248483,-0.251485,33,0.0185595,10,-6.24898e-05,-3.59949,-0.276128,-0.213669,2.095,0.248483,
2,0,0,1,0,64140.1,0.241308,0.240992,-0.268422,33,0.018355,10,-6.46878e-05,-3.57118,-0.335219,-0.176004,1.84587,0.240992,
2,0,0,1,0,64140.8,0.233817,0.233512,-0.283531,33,0.0181386,10,-6.6208e-05,-3.5474,-0.292467,-0.201732,2.22868,0.233512,
2,0,0,1,0,64141.6,0.226326,0.225996,-0.297833,33,0.0179108,10,-6.73091e-05,-3.52603,-0.3788,-0.155755,1.81773,0.225996,
2,0,0,1,0,64142.3,0.218835,0.218481,-0.312017,33,0.0176719,10,-6.81698e-05,-3.50582,-0.365296,-0.161513,1.9658,0.218481,
2,0,0,1,0,64143.1,0.211344,0.21102,-0.32674,33,0.0174223,10,-6.89487e-05,-3.4858,-0.393759,-0.149838,1.91115,0.21102,
2,0,0,1,0,64143.8,0.203854,0.203502,-0.341225,33,0.0171615,10,-6.94402e-05,-3.46696,-0.344941,-0.171044,2.28526,0.203502,
2,0,0,1,0,64144.6,0.196362,0.196016,-0.357991,33,0.0168896,10,-7.01721e-05,-3.44613,-0.359777,-0.163991,2.28582,0.196016,
2,0,0,1,0,64145.3,0.188872,0.188527,-0.373253,33,0.016606,10,-7.03681e-05,-3.428,-0.316703,-0.186295,2.70365,0.188527,
2,0,0,1,0,64146.1,0.18138,0.181047,-0.390888,33,0.0163101,10,-7.0769e-05,-3.40795,-0.347179,-0.169941,2.58903,0.181047,
2,0,0,1,0,64146.8,0.17389,0.173517,-0.409507,33,0.0160004,10,-7.10563e-05,-3.38774,-0.299317,-0.197116,3.14637,0.173517,
2,0,0,1,0,64147.5,0.166398,0.166076,-0.433844,33,0.0156742,10,-7.20509e-05,-3.36267,-0.329157,-0.179246,3.04564,0.166076,
2,0,0,1,0,64148.3,0.158907,0.158575,-0.464306,33,0.0153269,10,-7.36272e-05,-3.3332,-0.196449,-0.300333,5.48001,0.158575,
2,0,0,1,0,64149,0.151417,0.151063,-0.516092,33,0.0149492,10,-7.79622e-05,-3.28727,-0.147614,-0.399691,8.07801,0.151063,
2,0,0,1,0,64149.8,0.143925,0.14361,-0.595654,33,0.014524,10,-8.5542e-05,-3.22501,-0.0918955,-0.642034,14.9901,0.14361,
2,0,0,1,0,64150.5,0.136435,0.136063,-0.724578,33,0.0140205,10,-9.85883e-05,-3.13991,-0.087282,-0.67597,19.0929,0.1360631,
2,0,0,1,0,64151.3,0.128943,0.128619,-0.876755,33,0.0134106,10,-0.000112767,-3.05712,-0.1027,-0.57449,19.5164,0.128619,
2,0,0,1,0,64152,0.121453,0.121154,-1.00652,33,0.0126932,10,-0.000121943,-2.99718,-0.160038,-0.368663,14.4299,0.121154,
2,0,0,1,0,64152.8,0.113962,0.113655,-1.08178,33,0.0118951,10,-0.00012295,-2.96586,-0.439684,-0.134187,5.66146,0.113655,
2,0,0,1,0,64153.5,0.106471,0.106119,-1.10096,33,0.0110623,10,-0.000116833,-2.95823,-20.6765,-0.00285348,0.122549,0.106119,
2,0,0,1,0,64154.3,0.0989798,0.0986742,-1.08312,33,0.0102316,10,-0.000106876,-2.96532,0.891043,0.0662146,-2.79797,0.0986742,
2,0,0,1,0,64155,0.0914889,0.0911474,-1.06545,33,0.00941635,10,-9.71128e-05,-2.97247,0.800792,0.0736771,-3.05253,0.0911474,
2,0,0,1,0,64155.8,0.083998,0.0836589,-1.03967,33,0.00861816,10,-8.69774e-05,-2.98311,0.578134,0.102052,-4.132,0.0836589,
2,0,0,1,0,64156.5,0.076507,0.0761385,-1.01495,33,0.00783779,10,-7.72768e-05,-2.99356,0.649069,0.0908994,-3.59853,0.0761385,
2,0,0,1,0,64157.3,0.069016,0.0687336,-0.984058,33,0.00707729,10,-6.76379e-05,-3.00698,0.539151,0.109431,-4.21889,0.0687336,
2,0,0,1,0,64158,0.0615251,0.0611878,-0.957663,33,0.0063371,10,-5.85973e-05,-3.01879,0.54703,0.107855,-4.03987,0.0611878,
2,0,0,1,0,64158.8,0.0540342,0.0536981,-0.929907,33,0.00561887,10,-4.99343e-05,-3.03156,0.648447,0.0909867,-3.30037,0.0536981,
2,0,0,1,0,64159.5,0.0465441,0.0461797,-0.899034,33,0.00492264,10,-4.15171e-05,-3.04622,0.513118,0.114983,-4.0453,0.0461797,
2,0,0,1,0,64160.3,0.0390523,0.0387188,-0.870173,33,0.0042495,10,-3.36921e-05,-3.06039,0.406471,0.145152,-4.91476,0.0387188,
2,0,0,1,0,64161,0.0315618,0.031238,-0.837151,33,0.00360014,10,-2.6151e-05,-3.0772,0.453044,0.13023,-4.2528,0.031238,
2,0,0,1,0,64161.8,0.0240704,0.0236961,-0.806064,33,0.00297391,10,-1.91005e-05,-3.09363,0.448819,0.131456,-4.1466,0.0236961,
2,0,0,1,0,64162.5,0.0165796,0.0162822,-0.784699,33,0.00236778,10,-1.27766e-05,-3.1053,1.07915,0.0546729,-1.67499,0.0162822,
2,0,0,1,0,64163.3,0.00908846,0.00874964,-0.770888,33,0.00177537,10,-6.74499e-06,-3.11301,1.90186,0.0310223,-0.933108,0.008749635,
2,0,0,1,0,64164,0.00159728,0.00124073,-0.775938,33,0.00118877,10,-9.6273e-07,-3.11017, , , ,0.00124073,
2,0,0,1,0,64164.2,0.000199195,-0.000178351,-0.767551,33,0.00107881,10,1.36894e-07,-3.11489, , , ,-0.000178351,