Folder: Figs_alphaMnO2_OER_Tafel_sleope/Figure_codes/Fig_3-5/rawdata_trumpetplot_data/after 10th (part 78)

File: 20221101_1-115_003_TrumpetPlot_ParaChange_from10_every3_06_CV_C01_17.csv
mode,ox/red,error,control changes,counter inc.,time/s,control/V,Ewe/V,<I>/mA,cycle number,(Q-Qo)/C,I Range,P/W,log(|I|),Tafel slope mV/dec,alpha_eff,dI/d(E-IR),E-IR/V,
2,0,0,0,0,34642.2,2.44065e-05,-0.000401673,-1.42298,18,0.0000000E+000,10,5.71571e-07,-2.8468, , , ,-0.000401673,
2,1,0,1,0,34642.4,0.00729063,0.00695018,1.09645,18,7.00866e-05,10,7.62051e-06,-2.96001,0.0249263,2.36698,96.487,0.00695018,
2,1,0,1,0,34642.6,0.014778,0.0144527,1.49493,18,0.000322133,10,2.16057e-05,-2.82538,0.0968313,0.609307,35.5545,0.0144527,
2,1,0,1,0,34642.8,0.0222743,0.0219659,1.71253,18,0.000627031,10,3.76173e-05,-2.76636,0.156145,0.377853,25.2114,0.0219659,
2,1,0,1,0,34643,0.0297626,0.0294303,1.89468,18,0.000967583,10,5.5761e-05,-2.72246,0.190747,0.30931,22.7932,0.02943027,
2,1,0,1,0,34643.2,0.0372544,0.0369149,2.06514,18,0.00134152,10,7.62345e-05,-2.68505,0.206121,0.286239,23.1357,0.0369149,
2,1,0,1,0,34643.4,0.0447472,0.0444157,2.24218,18,0.00174822,10,9.9588e-05,-2.64933,0.223284,0.264237,23.1013,0.04441569,
2,1,0,1,0,34643.5,0.0522345,0.0519434,2.40753,18,0.00218659,10,0.000125055,-2.61843,0.247093,0.238777,22.4392,0.0519434,
2,1,0,1,0,34643.7,0.0597309,0.0594089,2.56445,18,0.00265586,10,0.000152351,-2.59101,0.287873,0.204951,20.5159,0.0594089,
2,1,0,1,0,34643.9,0.0672182,0.066911,2.71285,18,0.00315239,10,0.000181519,-2.56657,0.330549,0.178491,18.8243,0.066911,
2,1,0,1,0,34644.1,0.0747074,0.0744366,2.8326,18,0.00367408,10,0.000210849,-2.54781,0.459345,0.128444,14.1819,0.07443662,
2,1,0,1,0,34644.3,0.0822019,0.0818912,2.93278,18,0.00421751,10,0.000240169,-2.53272,0.508306,0.116072,13.2978,0.0818912,
2,1,0,1,0,34644.5,0.0896911,0.0894292,3.03774,18,0.0047792,10,0.000271663,-2.51745,0.466015,0.126605,15.0138,0.0894292,
2,1,0,1,0,34644.7,0.097182,0.0968377,3.17866,18,0.0053634,10,0.000307814,-2.49776,0.295352,0.199761,24.8271,0.0968377,
2,1,0,1,0,34644.9,0.104675,0.104348,3.40919,18,0.00598176,10,0.000355741,-2.46735,0.207532,0.284293,37.7852,0.104348,
2,1,0,1,0,34645,0.112162,0.111881,3.69023,18,0.00664829,10,0.000412866,-2.43295,0.23119,0.255201,36.6718,0.111881,
2,1,0,1,0,34645.2,0.119655,0.119308,3.9327,18,0.00736647,10,0.000469201,-2.40531,0.351344,0.167927,25.7961,0.119308,
2,1,0,1,0,34645.4,0.127146,0.126881,4.09469,18,0.00812286,10,0.000519539,-2.38778,0.622862,0.0947241,15.1232,0.126881,
2,1,0,1,0,34645.6,0.134635,0.134307,4.19063,18,0.00890222,10,0.00056283,-2.37772,1.17954,0.0500196,8.18218,0.134307,
2,1,0,1,0,34645.8,0.14213,0.141786,4.18084,18,0.0096931,10,0.000592784,-2.37874,-0.56016,-0.105327,-17.1353,0.141786,
2,1,0,1,0,34646,0.149619,0.149322,3.84037,18,0.0104532,10,0.000573452,-2.41563,-0.12156,-0.485358,-72.3766,0.149322,
2,1,0,1,0,34646.2,0.157106,0.1568,3.18412,18,0.0111154,10,0.000499271,-2.49701,-0.0813908,-0.724898,-90.1954,0.1568,
2,1,0,1,0,34646.3,0.164602,0.16431,2.62136,18,0.0116586,10,0.000430715,-2.58147,-0.099226,-0.594602,-60.9163,0.16431,
2,1,0,1,0,34646.5,0.172091,0.171799,2.2705,18,0.0121166,10,0.00039007,-2.64388,-0.149332,-0.395093,-35.1161,0.171799,
2,1,0,1,0,34646.7,0.179582,0.17927,2.06396,18,0.0125242,10,0.000370006,-2.6853,-0.2319,-0.25442,-20.6146,0.17927,
2,1,0,1,0,34646.9,0.187074,0.186755,1.94702,18,0.0129022,10,0.000363615,-2.71063,-0.405534,-0.145487,-11.0542,0.186755,
2,1,0,1,0,34647.1,0.194563,0.194233,1.87359,18,0.0132623,10,0.000363915,-2.72732,-0.540202,-0.109218,-7.99274,0.1942334,
2,1,0,1,0,34647.3,0.202059,0.201734,1.82055,18,0.0136115,10,0.000367266,-2.7398,-0.755819,-0.078061,-5.5519,0.201734,
2,1,0,1,0,34647.5,0.209546,0.209291,1.79577,18,0.0139525,10,0.000375838,-2.74575,-0.58611,-0.100664,-7.02101,0.209291,
2,1,0,1,0,34647.7,0.217035,0.216717,1.75815,18,0.0142877,10,0.000381021,-2.75494,-1.31652,-0.0448152,-3.08927,0.216717,
2,1,0,1,0,34647.8,0.22453,0.224189,1.74231,18,0.0146191,10,0.000390605,-2.75888,-1.57761,-0.0373984,-2.54385,0.224189,
2,1,0,1,0,34648,0.232019,0.231663,1.72632,18,0.0149465,10,0.000399926,-2.76288,-2.46315,-0.0239531,-1.6103,0.231663,
2,1,0,1,0,34648.2,0.23951,0.239207,1.70905,18,0.0152711,10,0.000408816,-2.76725,-2.18945,-0.0269473,-1.80066,0.239207,
2,1,0,1,0,34648.4,0.247003,0.246701,1.69702,18,0.015593,10,0.000418658,-2.77031,-1.74585,-0.0337944,-2.23182,0.246701,
2,1,0,1,0,34648.6,0.25449,0.254196,1.68212,18,0.015912,10,0.000427588,-2.77414,-1.9184,-0.0307548,-2.01987,0.254196,
2,1,0,1,0,34648.8,0.261983,0.261636,1.66676,18,0.016229,10,0.000436084,-2.77813,-1.5102,-0.0390678,-2.55184,0.2616359,
2,1,0,1,0,34649,0.269474,0.269181,1.66024,18,0.0165436,10,0.000446904,-2.77983,-12.5636,-0.0046961,-0.303456,0.269181,
2,1,0,1,0,34649.2,0.276963,0.27665,1.64355,18,0.0168557,10,0.000454687,-2.78422,-3.41163,-0.0172938,-1.1116,0.27665,
2,1,0,1,0,34649.3,0.284458,0.284175,1.63118,18,0.0171656,10,0.000463541,-2.7875,-2.14756,-0.027473,-1.75006,0.284175,
2,1,0,1,0,34649.5,0.291947,0.291639,1.61736,18,0.0174724,10,0.000471684,-2.79119,-1.34452,-0.043882,-2.76157,0.291639,
2,1,0,1,0,34649.7,0.299434,0.299159,1.59689,18,0.0177764,10,0.000477725,-2.79672,-0.0164823,-3.57959,-192.543,0.299159,
2,0,0,1,0,34649.9,0.294196,0.293853,-0.291299,18,0.0178225,10,-8.5599e-05,-3.53566,-0.00771254,-7.64988,67.8439,0.293853,
2,0,0,1,0,34650.1,0.286701,0.286375,-0.549708,18,0.0177361,10,-0.000157423,-3.25987,-0.057266,-1.03028,22.055,0.286375,
2,0,0,1,0,34650.3,0.279212,0.278911,-0.682992,18,0.017616,10,-0.000190494,-3.16558,-0.112945,-0.522377,13.9943,0.278911,
2,0,0,1,0,34650.4,0.271725,0.271406,-0.779327,18,0.0174752,10,-0.000211514,-3.10828,-0.137085,-0.43039,13.0185,0.271406,
2,0,0,1,0,34650.6,0.264228,0.263892,-0.858378,18,0.0173182,10,-0.000226519,-3.06632,-0.222491,-0.26518,8.86874,0.263892,
2,0,0,1,0,34650.8,0.256741,0.256452,-0.922336,18,0.0171485,10,-0.000236535,-3.03511,-0.268237,-0.219955,7.89817,0.256452,
2,0,0,1,0,34651,0.249248,0.248913,-0.9815,18,0.0169673,10,-0.000244308,-3.00811,-0.302933,-0.194762,7.41374,0.248913,
2,0,0,1,0,34651.2,0.241756,0.241389,-1.02505,18,0.0167757,10,-0.000247435,-2.98926,-0.360943,-0.163461,6.59294,0.241389,
2,0,0,1,0,34651.4,0.234268,0.233931,-1.0791,18,0.0165749,10,-0.000252435,-2.96694,-0.381693,-0.154575,6.50922,0.2339308,
2,0,0,1,0,34651.6,0.226772,0.226454,-1.12844,18,0.0163648,10,-0.00025554,-2.94752,-0.400552,-0.147297,6.45696,0.226454,
2,0,0,1,0,34651.8,0.219284,0.21899,-1.17123,18,0.0161464,10,-0.000256488,-2.93136,-0.535848,-0.110106,5.03742,0.21899,
2,0,0,1,0,34651.9,0.211796,0.211465,-1.21864,18,0.0159195,10,-0.0002577,-2.91412,-0.516092,-0.114321,5.40758,0.211465,
2,0,0,1,0,34652.1,0.204301,0.203955,-1.26234,18,0.0156837,10,-0.00025746,-2.89882,-0.653494,-0.0902839,4.45691,0.203955,
2,0,0,1,0,34652.3,0.196812,0.196511,-1.30715,18,0.0154398,10,-0.00025687,-2.88367,-0.532072,-0.110887,5.68707,0.196511,
2,0,0,1,0,34652.5,0.189321,0.188987,-1.36273,18,0.0151864,10,-0.000257538,-2.86559,-0.463512,-0.127289,6.76544,0.188987,
2,0,0,1,0,34652.7,0.181828,0.181519,-1.41652,18,0.0149231,10,-0.000257125,-2.84878,-0.37457,-0.157514,8.72291,0.181519,
2,0,0,1,0,34652.9,0.174341,0.173976,-1.48527,18,0.0146482,10,-0.000258402,-2.82819,-0.319887,-0.18444,10.7019,0.173976,
2,0,0,1,0,34653.1,0.166848,0.166529,-1.57516,18,0.0143587,10,-0.00026231,-2.80268,-0.290581,-0.203041,12.4591,0.1665293,
2,0,0,1,0,34653.2,0.159357,0.159032,-1.68983,18,0.0140502,10,-0.000268736,-2.77216,-0.207854,-0.283852,18.7856,0.159032,
2,0,0,1,0,34653.4,0.151868,0.151539,-1.87582,18,0.0137141,10,-0.00028426,-2.72681,-0.143824,-0.410224,30.0763,0.151539,
2,0,0,1,0,34653.6,0.144373,0.14407,-2.17877,18,0.0133333,10,-0.000313895,-2.66179,-0.095865,-0.615449,52.4754,0.14407,
2,0,0,1,0,34653.8,0.136884,0.136576,-2.64411,18,0.0128804,10,-0.000361122,-2.57772,-0.0858384,-0.687338,71.0445,0.136576,
2,0,0,1,0,34654,0.129393,0.129086,-3.19835,18,0.0123296,10,-0.000412861,-2.49507,-0.100001,-0.589995,73.56,0.129086,
2,0,0,1,0,34654.2,0.1219,0.121609,-3.69307,18,0.011679,10,-0.000449108,-2.43261,-0.155036,-0.380556,54.73,0.121609,
2,0,0,1,0,34654.4,0.114413,0.114077,-4.04242,18,0.0109489,10,-0.000461148,-2.39336,-0.265483,-0.222237,35.0354,0.114077,
2,0,0,1,0,34654.6,0.10692,0.106624,-4.22052,18,0.0101688,10,-0.000450008,-2.37463,-0.949083,-0.0621653,10.2172,0.106624,
2,0,0,1,0,34654.7,0.0994284,0.0991184,-4.20868,18,0.00937299,10,-0.000417158,-2.37585,0.950678,0.062061,-10.1995,0.0991184,
2,0,0,1,0,34654.9,0.0919401,0.0916135,-4.08186,18,0.00859216,10,-0.000373954,-2.38914,0.470999,0.125266,-19.9456,0.0916135,
2,0,0,1,0,34655.1,0.0844447,0.0840984,-3.92981,18,0.00783858,10,-0.00033049,-2.40563,0.510258,0.115628,-17.7273,0.0840984,
2,0,0,1,0,34655.3,0.0769565,0.0766213,-3.80807,18,0.0071115,10,-0.000291779,-2.41929,0.584275,0.10098,-15.0247,0.0766213,
2,0,0,1,0,34655.5,0.0694682,0.0691491,-3.72067,18,0.00640346,10,-0.000257281,-2.42938,0.6677,0.088363,-12.8104,0.0691491,
2,0,0,1,0,34655.7,0.0619728,0.0616974,-3.6238,18,0.00571179,10,-0.000223579,-2.44084,0.665491,0.0886563,-12.5538,0.0616974,
2,0,0,1,0,34655.9,0.0544836,0.0541366,-3.52832,18,0.00503856,10,-0.000191011,-2.45243,0.661232,0.0892274,-12.2961,0.0541366,
2,0,0,1,0,34656.1,0.0469927,0.0466425,-3.42681,18,0.00438367,10,-0.000159835,-2.46511,0.608984,0.0968826,-12.936,0.0466425,
2,0,0,1,0,34656.2,0.0394999,0.0391452,-3.31428,18,0.00374908,10,-0.000129738,-2.47961,0.48762,0.120996,-15.6403,0.0391452,
2,0,0,1,0,34656.4,0.0320125,0.0316933,-3.18919,18,0.00313699,10,-0.000101076,-2.49632,0.411121,0.14351,-17.8582,0.03169331,
2,0,0,1,0,34656.6,0.0245198,0.0242044,-3.05892,18,0.00254878,10,-7.40394e-05,-2.51443,0.404103,0.146002,-17.4351,0.0242044,
2,0,0,1,0,34656.8,0.0170289,0.0166864,-2.94063,18,0.00198369,10,-4.90685e-05,-2.53156,0.509319,0.115841,-13.3221,0.0166864,
2,0,0,1,0,34657,0.0095397,0.009188,-2.85559,18,0.00143807,10,-2.62371e-05,-2.5443,0.745645,0.0791261,-8.80005,0.009188001,
2,0,0,1,0,34657.2,0.00204518,0.00166913,-2.83145,18,0.000905699,10,-4.72607e-06,-2.54799,1.84045,0.0320574,-3.50547,0.00166913,
2,0,0,1,0,34657.2,0.000177222,-0.000272261,-2.7949,18,0.000773631,10,7.60941e-07,-2.55363, , , ,-0.0002722608,

File: 20221101_1-115_003_TrumpetPlot_ParaChange_from10_every3_06_CV_C01_18.csv
mode,ox/red,error,control changes,counter inc.,time/s,control/V,Ewe/V,<I>/mA,cycle number,(Q-Qo)/C,I Range,P/W,log(|I|),Tafel slope mV/dec,alpha_eff,dI/d(E-IR),E-IR/V,
2,0,0,0,0,36612.4,2.44065e-05,-0.000306236,-1.43761,19,0.0000000E+000,10,4.40247e-07,-2.84236, , , ,-0.000306236,
2,1,0,1,0,36612.5,0.00729063,0.00692786,1.0859,19,6.42996e-05,10,7.52294e-06,-2.96421,0.0234923,2.51146,100.845,0.00692786,
2,1,0,1,0,36612.7,0.014778,0.0144535,1.50515,19,0.0003168,10,2.17547e-05,-2.82242,0.0914108,0.645438,37.8673,0.0144535,
2,1,0,1,0,36612.9,0.0222743,0.0219332,1.72745,19,0.000624237,10,3.78885e-05,-2.7626,0.151154,0.390331,26.3042,0.0219332,
2,1,0,1,0,36613.1,0.0297626,0.0294863,1.91139,19,0.000967605,10,5.63598e-05,-2.71865,0.186792,0.31586,23.4694,0.02948634,
2,1,0,1,0,36613.3,0.0372544,0.0369887,2.07692,19,0.00134413,10,7.68227e-05,-2.68258,0.217427,0.271356,22.0755,0.0369887,
2,1,0,1,0,36613.5,0.0447472,0.0444172,2.2544,19,0.00175321,10,0.000100134,-2.64697,0.225628,0.261492,23.0205,0.0444172,
2,1,0,1,0,36613.7,0.0522345,0.0519056,2.4201,19,0.00219378,10,0.000125616,-2.61617,0.245742,0.240089,22.6636,0.0519056,
2,1,0,1,0,36613.9,0.0597308,0.0594222,2.57705,19,0.00266513,10,0.000153134,-2.58888,0.286081,0.206235,20.7352,0.05942224,
2,1,0,1,0,36614,0.0672182,0.0669043,2.72148,19,0.00316391,10,0.000182079,-2.56519,0.344556,0.171235,18.1454,0.0669043,
2,1,0,1,0,36614.2,0.0747074,0.0743785,2.84514,19,0.00368796,10,0.000211617,-2.5459,0.429299,0.137433,15.2342,0.0743785,
2,1,0,1,0,36614.4,0.0822019,0.0819241,2.94647,19,0.00423373,10,0.000241387,-2.5307,0.550538,0.107168,12.3361,0.08192414,
2,1,0,1,0,36614.6,0.0896911,0.0893866,3.04666,19,0.00479754,10,0.00027233,-2.51618,0.456155,0.129342,15.3791,0.0893866,
2,1,0,1,0,36614.8,0.097182,0.0968435,3.18545,19,0.00538328,10,0.000308491,-2.49683,0.301134,0.195926,24.4018,0.0968435,
2,1,0,1,0,36615,0.104675,0.104342,3.40872,19,0.00600218,10,0.000355672,-2.46741,0.228279,0.258456,34.3793,0.104342,
2,1,0,1,0,36615.2,0.112162,0.111856,3.68621,19,0.0066684,10,0.000412325,-2.43342,0.228427,0.258288,37.093,0.111856,
2,1,0,1,0,36615.4,0.119655,0.119368,3.9397,19,0.00738643,10,0.000470276,-2.40454,0.33311,0.177119,27.2248,0.119368,
2,1,0,1,0,36615.5,0.127146,0.126822,4.10043,19,0.00814408,10,0.000520023,-2.38717,0.565007,0.104424,16.7265,0.126822,
2,1,0,1,0,36615.7,0.134635,0.134334,4.21348,19,0.00892634,10,0.000566016,-2.37536,1.01764,0.0579771,9.5228,0.1343345,
2,1,0,1,0,36615.9,0.142129,0.141792,4.21271,19,0.00972197,10,0.000597327,-2.37544,-0.652115,-0.0904748,-14.8591,0.141792,
2,1,0,1,0,36616.1,0.149619,0.149293,3.90006,19,0.0104911,10,0.000582253,-2.40893,-0.128572,-0.458887,-69.535,0.149293,
2,1,0,1,0,36616.3,0.157106,0.15676,3.24688,19,0.011165,10,0.000508982,-2.48853,-0.0809921,-0.728466,-92.1612,0.15676,
2,1,0,1,0,36616.5,0.164602,0.164271,2.64175,19,0.0117161,10,0.000433963,-2.57811,-0.0948165,-0.622255,-64.3983,0.1642711,
2,1,0,1,0,36616.7,0.172091,0.171829,2.27764,19,0.0121765,10,0.000391364,-2.64252,-0.135256,-0.436209,-38.8673,0.171829,
2,1,0,1,0,36616.9,0.179582,0.179285,2.07042,19,0.0125847,10,0.000371195,-2.68394,-0.216927,-0.271981,-22.0111,0.179285,
2,1,0,1,0,36617,0.187074,0.186771,1.94894,19,0.012963,10,0.000364005,-2.7102,-0.413568,-0.142661,-10.8805,0.186771,
2,1,0,1,0,36617.2,0.194563,0.194266,1.88037,19,0.0133235,10,0.000365291,-2.72576,-0.551586,-0.106964,-7.83598,0.194266,
2,1,0,1,0,36617.4,0.202059,0.201752,1.82937,19,0.0136733,10,0.000369079,-2.7377,-0.641324,-0.0919971,-6.56138,0.201752,
2,1,0,1,0,36617.6,0.209546,0.209244,1.79492,19,0.0140151,10,0.000375576,-2.74596,-0.933171,-0.0632253,-4.4303,0.209244,
2,1,0,1,0,36617.8,0.217035,0.216744,1.76908,19,0.0143512,10,0.000383438,-2.75225,-1.52204,-0.0387638,-2.67377,0.216744,
2,1,0,1,0,36618,0.22453,0.224185,1.74486,19,0.0146832,10,0.000391171,-2.75824,-1.55755,-0.03788,-2.58238,0.224185,
2,1,0,1,0,36618.2,0.232019,0.231682,1.72695,19,0.0150112,10,0.000400103,-2.76272,-2.39134,-0.0246723,-1.66358,0.231682,
2,1,0,1,0,36618.4,0.23951,0.23922,1.71322,19,0.0153362,10,0.000409838,-2.76619,-1.83128,-0.032218,-2.15473,0.23922,
2,1,0,1,0,36618.5,0.247003,0.246701,1.69816,19,0.0156586,10,0.000418938,-2.77002,-1.74756,-0.0337614,-2.24103,0.246701,
2,1,0,1,0,36618.7,0.25449,0.254252,1.68508,19,0.0159782,10,0.000428435,-2.77338,-1.87027,-0.0315463,-2.07496,0.2542516,
2,1,0,1,0,36618.9,0.261983,0.261686,1.67379,19,0.0162956,10,0.000438008,-2.7763,-1.88558,-0.0312901,-2.04199,0.261686,
2,1,0,1,0,36619.1,0.269474,0.269195,1.65651,19,0.0166105,10,0.000445924,-2.78081,-2.81587,-0.0209527,-1.36054,0.269195,
2,1,0,1,0,36619.3,0.276963,0.276691,1.64637,19,0.016923,10,0.000455536,-2.78347,-2.2771,-0.0259101,-1.66462,0.276691,
2,1,0,1,0,36619.5,0.284458,0.284156,1.63268,19,0.0172331,10,0.000463936,-2.7871,-3.87951,-0.0152081,-0.968764,0.284156,
2,1,0,1,0,36619.7,0.291947,0.291665,1.61794,19,0.0175403,10,0.000471896,-2.79104,-1.12935,-0.0522426,-3.29834,0.291665,
2,1,0,1,0,36619.9,0.299434,0.299116,1.60323,19,0.0178447,10,0.000479551,-2.79501,-0.0176721,-3.33859,-181.223,0.299116,
2,0,0,1,0,36620,0.294196,0.293881,-0.285461,19,0.0178939,10,-8.38915e-05,-3.54445,-0.00680873,-8.66534,74.3059,0.293881,
2,0,0,1,0,36620.2,0.286701,0.286373,-0.562046,19,0.017806,10,-0.000160955,-3.25023,-0.0580375,-1.01658,22.2687,0.286373,
2,0,0,1,0,36620.4,0.279212,0.278872,-0.701266,19,0.0176835,10,-0.000195563,-3.15412,-0.110512,-0.533879,14.5441,0.278872,
2,0,0,1,0,36620.6,0.271725,0.271401,-0.789238,19,0.0175402,10,-0.0002142,-3.10279,-0.155715,-0.378896,11.7779,0.271401,
2,0,0,1,0,36620.8,0.264228,0.263925,-0.87011,19,0.0173808,10,-0.000229644,-3.06043,-0.20385,-0.289429,9.82376,0.263925,
2,0,0,1,0,36620.9,0.256741,0.25642,-0.93639,19,0.0172085,10,-0.000240109,-3.02854,-0.26868,-0.219592,8.00634,0.25642,
2,0,0,1,0,36621.1,0.249248,0.248991,-0.989412,19,0.0170248,10,-0.000246354,-3.00462,-0.298901,-0.19739,7.66453,0.248991,
2,0,0,1,0,36621.3,0.241756,0.241431,-1.04424,19,0.0168308,10,-0.000252113,-2.9812,-0.330381,-0.178582,7.28043,0.241431,
2,0,0,1,0,36621.5,0.234268,0.233964,-1.09054,19,0.0166275,10,-0.000255147,-2.96236,-0.380556,-0.155036,6.62583,0.233964,
2,0,0,1,0,36621.7,0.226772,0.226482,-1.13691,19,0.016415,10,-0.00025749,-2.94427,-0.369921,-0.159493,7.09128,0.2264823,
2,0,0,1,0,36621.9,0.219285,0.218956,-1.18695,19,0.0161942,10,-0.000259891,-2.92557,-0.485427,-0.121543,5.60498,0.218956,
2,0,0,1,0,36622.1,0.211796,0.211462,-1.2304,19,0.0159649,10,-0.000260183,-2.90995,-0.510609,-0.115548,5.53655,0.211462,
2,0,0,1,0,36622.3,0.204301,0.203956,-1.27666,19,0.0157268,10,-0.000260382,-2.89393,-0.670219,-0.088031,4.39136,0.203956,
2,0,0,1,0,36622.4,0.196812,0.196485,-1.32051,19,0.0154805,10,-0.000259461,-2.87926,-0.465962,-0.12662,6.52328,0.196485,
2,0,0,1,0,36622.6,0.189321,0.188972,-1.37207,19,0.015225,10,-0.000259283,-2.86262,-0.49731,-0.118638,6.37066,0.1889718,
2,0,0,1,0,36622.8,0.181828,0.18154,-1.43324,19,0.0149595,10,-0.000260192,-2.84368,-0.317869,-0.185611,10.357,0.18154,
2,0,0,1,0,36623,0.174341,0.174023,-1.49864,19,0.0146825,10,-0.000260797,-2.8243,-0.33038,-0.178582,10.4274,0.174023,
2,0,0,1,0,36623.2,0.166848,0.166497,-1.5842,19,0.0143911,10,-0.000263765,-2.80019,-0.291585,-0.202342,12.5093,0.166497,
2,0,0,1,0,36623.4,0.159357,0.159042,-1.70259,19,0.0140808,10,-0.000270783,-2.76889,-0.211234,-0.279312,18.5723,0.159042,
2,0,0,1,0,36623.6,0.151868,0.151578,-1.88346,19,0.0137433,10,-0.000285491,-2.72504,-0.145551,-0.405356,29.8117,0.151578,
2,0,0,1,0,36623.8,0.144373,0.14407,-2.17514,19,0.013362,10,-0.000313373,-2.66251,-0.100113,-0.589335,50.3465,0.1440704,
2,0,0,1,0,36623.9,0.136884,0.136544,-2.63798,19,0.0129101,10,-0.0003602,-2.57873,-0.0863926,-0.682929,70.2996,0.136544,
2,0,0,1,0,36624.1,0.129393,0.129087,-3.1832,19,0.0123616,10,-0.00041091,-2.49714,-0.0995059,-0.59293,73.588,0.129087,
2,0,0,1,0,36624.3,0.1219,0.121575,-3.68123,19,0.0117134,10,-0.000447544,-2.43401,-0.151136,-0.390376,55.9963,0.121575,
2,0,0,1,0,36624.5,0.114413,0.114044,-4.04353,19,0.0109847,10,-0.00046114,-2.39324,-0.250309,-0.235709,37.1371,0.114044,
2,0,0,1,0,36624.7,0.10692,0.106578,-4.23362,19,0.0102038,10,-0.00045121,-2.37329,-0.762324,-0.0773949,12.7612,0.106578,
2,0,0,1,0,36624.9,0.0994284,0.0990772,-4.23715,19,0.00940443,10,-0.000419805,-2.37293,0.957792,0.0616,-10.1805,0.0990772,
2,0,0,1,0,36625.1,0.0919401,0.0916159,-4.11716,19,0.00861805,10,-0.000377197,-2.3854,0.453579,0.130077,-20.876,0.0916159,
2,0,0,1,0,36625.3,0.0844447,0.0841274,-3.95866,19,0.00785854,10,-0.000333032,-2.40245,0.494291,0.119363,-18.4424,0.0841274,
2,0,0,1,0,36625.4,0.0769565,0.076647,-3.8351,19,0.0071264,10,-0.000293949,-2.41622,0.561861,0.105008,-15.721,0.076647,
2,0,0,1,0,36625.6,0.0694682,0.0691511,-3.73728,19,0.00641437,10,-0.000258437,-2.42744,0.686236,0.0859762,-12.5428,0.0691511,
2,0,0,1,0,36625.8,0.0619728,0.0616287,-3.64144,19,0.005719,10,-0.000224417,-2.43873,0.590904,0.099847,-14.2227,0.0616287,
2,0,0,1,0,36626,0.0544836,0.0541536,-3.54405,19,0.00504253,10,-0.000191923,-2.4505,0.678941,0.0869,-12.0305,0.0541536,
2,0,0,1,0,36626.2,0.0469927,0.0466626,-3.44296,19,0.00438472,10,-0.000160657,-2.46307,0.526538,0.112053,-15.0233,0.0466626,
2,0,0,1,0,36626.4,0.0394999,0.0391875,-3.32759,19,0.00374761,10,-0.0001304,-2.47787,0.479403,0.12307,-15.9875,0.0391875,
2,0,0,1,0,36626.6,0.0320125,0.0316933,-3.19897,19,0.00313343,10,-0.000101386,-2.49499,0.403041,0.146387,-18.2607,0.03169331,
2,0,0,1,0,36626.8,0.0245198,0.0242737,-3.06697,19,0.00254351,10,-7.44467e-05,-2.51329,0.388889,0.151714,-18.161,0.0242737,
2,0,0,1,0,36626.9,0.0170289,0.0167432,-2.94516,19,0.00197741,10,-4.93113e-05,-2.53089,0.496211,0.118901,-13.7055,0.0167432,
2,0,0,1,0,36627.1,0.0095397,0.00919533,-2.86067,19,0.00143144,10,-2.63048e-05,-2.54353,0.731586,0.0806467,-8.98787,0.00919533,
2,0,0,1,0,36627.3,0.00204518,0.00168958,-2.82918,19,0.000899205,10,-4.78013e-06,-2.54834,1.85835,0.0317486,-3.46797,0.00168958,
2,0,0,1,0,36627.4,0.000177222,-0.000251647,-2.79195,19,0.000767172,10,7.02585e-07,-2.55409, , , ,-0.0002516465,