Folder: Figs_alphaMnO2_OER_Tafel_sleope/Figure_codes/Fig_3-5/rawdata_trumpetplot_data/after 10th (part 192)

File: 20221101_1-115_003_TrumpetPlot_ParaChange_from10_every3_13_CV_C01_0.csv
mode,ox/red,error,control changes,counter inc.,time/s,control/V,Ewe/V,<I>/mA,cycle number,(Q-Qo)/C,I Range,P/W,log(|I|),Tafel slope mV/dec,alpha_eff,dI/d(E-IR),E-IR/V,
2,1,0,0,0,1197.86,2.44065e-05,-0.000229887,28.723,1,0.0000000E+000,10,-6.60305e-06,-1.54177, , , ,-0.000229887,
2,1,0,1,0,1197.87,0.0122624,0.0118747,33.0391,1,0.000471965,10,0.000392327,-1.48097,0.30106,0.195974,250.962,0.0118747,
2,1,0,1,0,1197.89,0.0250636,0.0247194,35.5298,1,0.00102252,10,0.000878273,-1.44941,0.523615,0.112678,155.789,0.0247194,
2,1,0,1,0,1197.9,0.0378703,0.0375322,37.2095,1,0.00160527,10,0.00139656,-1.42935,0.752679,0.0783867,113.672,0.0375322,
2,1,0,1,0,1197.92,0.0506632,0.0503303,38.6146,1,0.00221185,10,0.00194349,-1.41325,0.777494,0.0758848,114.371,0.0503303,
2,1,0,1,0,1197.94,0.0634672,0.063157,40.1928,1,0.00284201,10,0.00253845,-1.39585,0.663612,0.0889074,139.646,0.06315697,
2,1,0,1,0,1197.95,0.0762628,0.0759041,42.2158,1,0.00350108,10,0.00320435,-1.37453,0.538215,0.109622,180.924,0.0759041,
2,1,0,1,0,1197.97,0.0890668,0.0887234,44.79,1,0.00419674,10,0.00397392,-1.34882,0.469674,0.125619,219.852,0.0887234,
2,1,0,1,0,1197.98,0.10186,0.101487,47.7893,1,0.00493746,10,0.00485002,-1.32067,0.456101,0.129357,241.237,0.101487,
2,1,0,1,0,1198,0.114666,0.1143,51.148,1,0.00572824,10,0.00584623,-1.29117,0.422571,0.139622,278.494,0.1143,
2,1,0,1,0,1198.02,0.127462,0.127125,54.7266,1,0.00657546,10,0.00695711,-1.2618,0.435637,0.135434,289.434,0.127125,
2,1,0,1,0,1198.03,0.140263,0.139923,58.6215,1,0.00748229,10,0.00820249,-1.23194,0.417256,0.1414,323.847,0.139923,
2,1,0,1,0,1198.05,0.153064,0.152715,63.034,1,0.00845552,10,0.00962622,-1.20043,0.401197,0.14706,361.926,0.152715,
2,1,0,1,0,1198.06,0.165866,0.165513,67.7889,1,0.00950249,10,0.0112199,-1.16884,0.423372,0.139357,368.358,0.1655127,
2,1,0,1,0,1198.08,0.178667,0.178277,72.3859,1,0.0106247,10,0.0129047,-1.14035,0.494394,0.119338,336.482,0.178277,
2,1,0,1,0,1198.1,0.191463,0.191118,76.1774,1,0.0118153,10,0.0145589,-1.11817,0.731079,0.0807026,239.185,0.191118,
2,1,0,1,0,1198.11,0.204269,0.203968,78.031,1,0.0130532,10,0.0159159,-1.10773,25.7008,0.00229565,6.94653,0.203968,
2,1,0,1,0,1198.13,0.217062,0.216714,75.7939,1,0.0142907,10,0.0164256,-1.12037,-0.446371,-0.132177,-387.271,0.216714,
2,1,0,1,0,1198.14,0.229866,0.229596,68.2059,1,0.0154486,10,0.0156598,-1.16618,-0.204766,-0.288134,-760.574,0.229596,
2,1,0,1,0,1198.16,0.242662,0.242393,57.2503,1,0.0164528,10,0.0138771,-1.24222,-0.152012,-0.388127,-865.824,0.242393,
2,1,0,1,0,1198.18,0.255466,0.255214,46.9113,1,0.0172822,10,0.0119724,-1.32872,-0.154946,-0.380778,-700.944,0.255214,
2,1,0,1,0,1198.19,0.268259,0.267972,39.4554,1,0.0179686,10,0.010573,-1.40389,-0.194381,-0.303528,-470.899,0.267972,
2,1,0,1,0,1198.21,0.281065,0.280774,34.7709,1,0.018559,10,0.00976274,-1.45878,-0.28034,-0.210459,-287.129,0.280774,
2,1,0,1,0,1198.22,0.293861,0.293565,31.8752,1,0.0190901,10,0.00935745,-1.49655,-0.413759,-0.142595,-178.337,0.293565,
2,1,0,1,0,1198.23,0.298983,0.298904,27.831,1,0.0193686,10,0.00831879,-1.55547,0.0186424,3.16483,2568.41,0.298904,
2,1,0,1,0,1198.25,0.286187,0.285999,3.89754,1,0.0195909,10,0.00111469,-2.40921,0.017323,3.40587,1200.51,0.285999,
2,0,0,1,0,1198.26,0.273386,0.273124,-6.68565,1,0.0195573,10,-0.00182601,-2.17486,-0.0206757,-2.85359,582.729,0.2731238,
2,0,0,1,0,1198.28,0.260585,0.260333,-12.1149,1,0.0194019,10,-0.00315392,-1.91668,-0.0853747,-0.691071,316.258,0.260333,
2,0,0,1,0,1198.3,0.247783,0.247469,-15.2659,1,0.0191805,10,-0.00377784,-1.81628,-0.175726,-0.33575,197.87,0.247469,
2,0,0,1,0,1198.31,0.234982,0.234694,-17.3693,1,0.0189183,10,-0.00407647,-1.76022,-0.282864,-0.208581,140.738,0.234694,
2,0,0,1,0,1198.33,0.222187,0.221923,-18.9651,1,0.0186269,10,-0.00420879,-1.72205,-0.375154,-0.157269,116.257,0.221923,
2,0,0,1,0,1198.34,0.20938,0.209117,-20.3812,1,0.0183117,10,-0.00426206,-1.69077,-0.43679,-0.135076,107.417,0.209117,
2,0,0,1,0,1198.36,0.196587,0.196303,-21.7759,1,0.0179742,10,-0.00427467,-1.66202,-0.439603,-0.134212,114.151,0.196303,
2,0,0,1,0,1198.38,0.183783,0.183494,-23.3422,1,0.0176133,10,-0.00428315,-1.63186,-0.40029,-0.147393,134.495,0.183494,
2,0,0,1,0,1198.39,0.170987,0.17071,-25.2924,1,0.0172247,10,-0.00431765,-1.59701,-0.328613,-0.179543,177.805,0.17071,
2,0,0,1,0,1198.41,0.158183,0.157925,-28.0121,1,0.0167991,10,-0.00442383,-1.55265,-0.254022,-0.232263,254.937,0.157925,
2,0,0,1,0,1198.42,0.145385,0.145096,-31.8819,1,0.0163214,10,-0.00462593,-1.49646,-0.206147,-0.286203,357.659,0.145096,
2,0,0,1,0,1198.44,0.132584,0.132353,-37.2487,1,0.0157698,10,-0.00492997,-1.42889,-0.177304,-0.332761,485.515,0.132353,
2,0,0,1,0,1198.46,0.119782,0.119537,-44.1267,1,0.0151193,10,-0.00527476,-1.3553,-0.178587,-0.33037,568.683,0.119537,
2,0,0,1,0,1198.47,0.106987,0.106852,-51.4588,1,0.0143534,10,-0.00549848,-1.28854,-0.205733,-0.286779,575.524,0.106852,
2,0,0,1,0,1198.49,0.0941801,0.0940031,-58.696,1,0.0134702,10,-0.00551761,-1.23139,-0.256179,-0.230308,525.452,0.0940031,
2,0,0,1,0,1198.5,0.0813844,0.0811775,-64.822,1,0.0124801,10,-0.00526209,-1.18828,-0.34453,-0.171248,431.915,0.0811775,
2,0,0,1,0,1198.52,0.0685832,0.0683614,-69.6051,1,0.0114015,10,-0.00475831,-1.15736,-0.536499,-0.109972,297.631,0.0683614,
2,0,0,1,0,1198.54,0.0557876,0.0555093,-72.3789,1,0.0102624,10,-0.00401771,-1.14039,-1.25171,-0.0471356,132.662,0.0555093,
2,0,0,1,0,1198.55,0.0429808,0.042689,-73.0241,1,0.00909617,10,-0.00311732,-1.13653,6.31057,0.0093494,-26.5637,0.042689,
2,0,0,1,0,1198.57,0.030188,0.0298857,-71.936,1,0.00793494,10,-0.00214986,-1.14305,1.32421,0.0445547,-124.898,0.0298857,
2,0,0,1,0,1198.58,0.017384,0.0170791,-70.0151,1,0.00679883,10,-0.0011958,-1.15481,0.963309,0.0612472,-167.227,0.0170791,
2,0,0,1,0,1198.6,0.00458834,0.0042726,-67.6228,1,0.00569705,10,-0.000288925,-1.16991,0.766159,0.0770075,-203.125,0.0042726,
2,0,0,1,0,1198.62,-0.00821564,-0.0086177,-64.6349,1,0.00463749,10,0.000557005,-1.18953,0.539977,0.109264,-275.098,-0.0086177,
2,0,0,1,0,1198.63,-0.0210196,-0.0213596,-60.7122,1,0.00363411,10,0.00129679,-1.21672,0.424596,0.138956,-328.849,-0.0213596,
2,0,0,1,0,1198.65,-0.0338153,-0.0341778,-56.5475,1,0.00269701,10,0.00193267,-1.24759,0.437681,0.134801,-297.907,-0.0341778,
2,0,0,1,0,1198.66,-0.0466193,-0.0469514,-53.2182,1,0.00182077,10,0.00249867,-1.27394,0.58487,0.100877,-210.153,-0.0469514,
2,0,0,1,0,1198.68,-0.0594121,-0.0597855,-51.1517,1,0.00098738,10,0.00305813,-1.29114,1.03372,0.0570752,-114.291,-0.0597855,
2,0,0,1,0,1198.7,-0.0722189,-0.0725942,-50.2212,1,0.00017758,10,0.00364577,-1.29911,2.82559,0.0208806,-41.0051,-0.0725942,
2,0,0,1,0,1198.71,-0.0850146,-0.0853742,-50.0929,1,-0.00062397,10,0.00427665,-1.30022,-7.02846,-0.00839444,16.434,-0.0853742,
2,0,0,1,0,1198.73,-0.0978158,-0.098185,-50.584,1,-0.0014287,10,0.00496659,-1.29599,-2.01514,-0.0292783,57.8613,-0.09818498,
2,0,0,1,0,1198.74,-0.110611,-0.11092,-51.5097,1,-0.00224514,10,0.00571348,-1.28811,-1.3077,-0.0451173,90.8336,-0.11092,
2,0,0,1,0,1198.76,-0.123418,-0.123773,-52.8796,1,-0.00308022,10,0.00654504,-1.27671,-1.02097,-0.0577881,119.373,-0.123773,
2,0,0,1,0,1198.78,-0.136214,-0.136548,-54.5696,1,-0.00393968,10,0.00745138,-1.26305,-0.895972,-0.0658503,140.287,-0.136548,
2,0,0,1,0,1198.79,-0.149015,-0.149362,-56.4784,1,-0.00482803,10,0.00843574,-1.24812,-0.842005,-0.0700708,154.443,-0.149362,
2,0,0,1,0,1198.81,-0.161816,-0.162149,-58.498,1,-0.00574797,10,0.00948538,-1.23286,-0.831921,-0.0709202,161.92,-0.162149,
2,0,0,1,0,1198.82,-0.174615,-0.174909,-60.5751,1,-0.00670091,10,0.0105951,-1.21771,-0.843757,-0.0699253,165.345,-0.174909,
2,0,0,1,0,1198.84,-0.187419,-0.18774,-62.708,1,-0.00768754,10,0.0117728,-1.20268,-0.86138,-0.0684948,167.663,-0.18774,
2,0,0,1,0,1198.86,-0.199647,-0.199945,-64.8056,1,-0.00866332,10,0.0129576,-1.18839,0.338387,0.174357,-426.409,-0.199945,
2,0,0,1,1,1198.87,-0.192535,-0.193007,-46.4733,1,-0.00922317,10,0.00896965,-1.3328,-0.0521443,-1.13148,2074.49,-0.193007,
2,0,0,1,1,1198.88,-0.179739,-0.180155,-25.2631,1,-0.0097848,10,0.00455129,-1.59751,-0.0411491,-1.43381,1392.23,-0.1801555,
2,0,0,1,1,1198.9,-0.166932,-0.16736,-9.72372,1,-0.0100576,10,0.00162736,-2.01217,-0.0178783,-3.30009,1074.14,-0.16736,
2,1,0,1,1,1198.91,-0.154139,-0.154657,2.40636,1,-0.0101111,10,-0.00037216,-2.61864,0.035193,1.67647,850.934,-0.154657,
2,1,0,1,1,1198.93,-0.141335,-0.141862,12.2222,1,-0.00999021,10,-0.00173386,-1.91285,0.0377997,1.56086,699.563,-0.141862,
2,1,0,1,1,1198.95,-0.12854,-0.128971,20.395,1,-0.00972622,10,-0.00263036,-1.69048,0.0800449,0.737086,575.183,-0.128971,
2,1,0,1,1,1198.96,-0.115736,-0.116159,27.0902,1,-0.00934374,10,-0.00314676,-1.56719,0.130941,0.450586,471.665,-0.116159,
2,1,0,1,1,1198.98,-0.102932,-0.103312,32.5473,1,-0.00886471,10,-0.00336253,-1.48748,0.19404,0.30406,383.896,-0.103312,
2,1,0,1,1,1198.99,-0.0901362,-0.0904917,36.9808,1,-0.00830676,10,-0.00334646,-1.43202,0.270847,0.217835,313.27,-0.0904917,
2,1,0,1,1,1199.01,-0.0773322,-0.0777075,40.5903,1,-0.00768473,10,-0.00315417,-1.39158,0.37109,0.158991,251.15,-0.0777075,
2,1,0,1,1,1199.03,-0.0645393,-0.0649338,43.4486,1,-0.00701121,10,-0.00282128,-1.36202,0.502676,0.117372,198.629,-0.0649338,
2,1,0,1,1,1199.04,-0.0517325,-0.0520965,45.7196,1,-0.00629682,10,-0.00238183,-1.3399,0.675177,0.0873844,155.639,-0.0520965,
2,1,0,1,1,1199.06,-0.0389369,-0.0393038,47.4121,1,-0.00555083,10,-0.00186348,-1.32411,0.966979,0.0610148,112.777,-0.0393038,
2,1,0,1,1,1199.07,-0.0261357,-0.0265481,48.6231,1,-0.00478158,10,-0.00129085,-1.31316,1.47838,0.0399087,75.6481,-0.0265481,
2,1,0,1,1,1199.09,-0.01334,-0.0136992,49.3376,1,-0.00399707,10,-0.000675884,-1.30682,2.99807,0.0196793,37.8596,-0.0136992,
2,1,0,1,1,1199.11,-0.000774628,-0.00113653,49.612,1,-0.00321961,10,-5.63857e-05,-1.30441, , , ,-0.001136535,
2,1,0,1,1,1199.11,-0.000125413,-0.000401673,49.6319,1,-0.00317992,10,-1.99358e-05,-1.30424, , , ,-0.000401673,

File: 20221101_1-115_003_TrumpetPlot_ParaChange_from10_every3_13_CV_C01_1.csv
mode,ox/red,error,control changes,counter inc.,time/s,control/V,Ewe/V,<I>/mA,cycle number,(Q-Qo)/C,I Range,P/W,log(|I|),Tafel slope mV/dec,alpha_eff,dI/d(E-IR),E-IR/V,
2,1,0,1,0,3167.99,2.44065e-05,-0.000229887,27.3937,2,0.0000000E+000,10,-6.29746e-06,-1.56235, , , ,-0.000229887,
2,1,0,1,0,3168,0.0122624,0.0119054,31.6735,2,0.000451379,10,0.000377086,-1.4993,0.287631,0.205124,251.738,0.0119054,
2,1,0,1,0,3168.02,0.0250636,0.0247172,34.2393,2,0.00098041,10,0.000846301,-1.46547,0.471252,0.125198,166.821,0.0247172,
2,1,0,1,0,3168.03,0.0378703,0.0375577,36.085,2,0.00154382,10,0.00135527,-1.44267,0.628173,0.0939231,132.177,0.0375577,
2,1,0,1,0,3168.05,0.0506632,0.0503356,37.7296,2,0.00213461,10,0.00189914,-1.42332,0.655721,0.0899774,132.572,0.0503356,
2,1,0,1,0,3168.07,0.0634672,0.0631389,39.5696,2,0.00275279,10,0.00249838,-1.40264,0.587127,0.100489,155.268,0.0631389,
2,1,0,1,0,3168.08,0.0762628,0.0758988,41.7372,2,0.00340292,10,0.0031678,-1.37948,0.519045,0.11367,185.286,0.0758988,
2,1,0,1,0,3168.1,0.0890668,0.0886672,44.3259,2,0.00409104,10,0.00393025,-1.35334,0.467256,0.126269,218.56,0.0886672,
2,1,0,1,0,3168.11,0.10186,0.101503,47.1984,2,0.00482351,10,0.0047908,-1.32607,0.470427,0.125418,231.142,0.101503,
2,1,0,1,0,3168.13,0.114666,0.114269,50.3605,2,0.0056037,10,0.00575462,-1.29791,0.449862,0.131151,257.69,0.114269,
2,1,0,1,0,3168.15,0.127462,0.127093,53.6888,2,0.00643636,10,0.00682348,-1.27012,0.461558,0.127828,267.956,0.127093,
2,1,0,1,0,3168.16,0.140263,0.139954,57.331,2,0.00732432,10,0.00802369,-1.24161,0.438594,0.134521,301.094,0.139954,
2,1,0,1,0,3168.18,0.153064,0.152707,61.3978,2,0.00827394,10,0.00937589,-1.21185,0.426241,0.138419,331.709,0.152707,
2,1,0,1,0,3168.19,0.165866,0.165476,65.6911,2,0.00929127,10,0.0108703,-1.18249,0.454639,0.129773,332.549,0.165476,
2,1,0,1,0,3168.21,0.178667,0.178357,69.7563,2,0.0103762,10,0.0124415,-1.15642,0.555983,0.106118,288.416,0.178357,
2,1,0,1,0,3168.23,0.191463,0.191114,72.9527,2,0.0115198,10,0.0139423,-1.13696,0.905903,0.0651284,184.723,0.191114,
2,1,0,1,0,3168.24,0.204269,0.20394,74.0992,2,0.0126999,10,0.0151118,-1.13019,-3.99694,-0.0147613,-42.3942,0.20394,
2,1,0,1,0,3168.26,0.217062,0.216718,71.3753,2,0.0138696,10,0.0154683,-1.14645,-0.41258,-0.143003,-394.87,0.216718,
2,1,0,1,0,3168.27,0.229866,0.22962,64.0675,2,0.014958,10,0.0147112,-1.19336,-0.208891,-0.282444,-701.664,0.22962,
2,1,0,1,0,3168.29,0.242662,0.242392,54.2976,2,0.015905,10,0.0131613,-1.26522,-0.164903,-0.357786,-757.909,0.242392,
2,1,0,1,0,3168.31,0.255466,0.255176,45.4006,2,0.0166989,10,0.0115852,-1.34294,-0.174083,-0.338918,-603.179,0.255176,
2,1,0,1,0,3168.32,0.268259,0.267965,38.9395,2,0.0173696,10,0.0104344,-1.40961,-0.220373,-0.267727,-409.26,0.267965,
2,1,0,1,0,3168.34,0.281065,0.280752,34.7267,2,0.0179563,10,0.00974959,-1.45934,-0.304404,-0.193821,-263.951,0.280752,
2,1,0,1,0,3168.35,0.293861,0.293596,32.0061,2,0.0184884,10,0.00939688,-1.49477,-0.426669,-0.13828,-173.609,0.293596,
2,1,0,1,0,3168.36,0.298983,0.298922,28.119,2,0.0187684,10,0.0084054,-1.551,0.0204493,2.88519,2429.92,0.298922,
2,1,0,1,0,3168.38,0.286187,0.285972,5.35811,2,0.019007,10,0.00153227,-2.27099,0.0100127,5.89254,1168.2,0.2859717,
2,0,0,1,0,3168.39,0.273386,0.27312,-5.09634,2,0.0189987,10,-0.00139191,-2.29274,-0.0122975,-4.79771,586.4,0.27312,
2,0,0,1,0,3168.41,0.260585,0.260314,-10.6898,2,0.0188678,10,-0.0027827,-1.97103,-0.070873,-0.832475,333.488,0.260314,
2,0,0,1,0,3168.43,0.247783,0.247502,-14.0261,2,0.0186677,10,-0.00347148,-1.85306,-0.150295,-0.392561,212.342,0.247502,
2,0,0,1,0,3168.44,0.234982,0.234719,-16.2864,2,0.0184238,10,-0.00382272,-1.78818,-0.249357,-0.236608,149.643,0.234719,
2,0,0,1,0,3168.46,0.222187,0.221886,-17.9869,2,0.0181489,10,-0.00399104,-1.74504,-0.338759,-0.174165,122.006,0.221886,
2,0,0,1,0,3168.47,0.20938,0.209103,-19.45,2,0.017849,10,-0.00406705,-1.71108,-0.41245,-0.143048,108.456,0.209103,
2,0,0,1,0,3168.49,0.196587,0.196301,-20.8314,2,0.0175266,10,-0.00408921,-1.68128,-0.438739,-0.134476,109.293,0.196301,
2,0,0,1,0,3168.51,0.183783,0.1835,-22.2836,2,0.0171817,10,-0.00408905,-1.65201,-0.412756,-0.142942,124.517,0.1835,
2,0,0,1,0,3168.52,0.170987,0.170714,-24.0257,2,0.0168114,10,-0.00410153,-1.61932,-0.354262,-0.166543,156.726,0.170714,
2,0,0,1,0,3168.54,0.158183,0.15789,-26.4057,2,0.0164086,10,-0.00416921,-1.5783,-0.278469,-0.211873,219.189,0.1578905,
2,0,0,1,0,3168.55,0.145385,0.145092,-29.7819,2,0.0159604,10,-0.00432113,-1.52605,-0.218984,-0.269426,314.439,0.145092,
2,0,0,1,0,3168.57,0.132584,0.132284,-34.5459,2,0.0154473,10,-0.00456986,-1.4616,-0.183859,-0.320899,434.012,0.132284,
2,0,0,1,0,3168.59,0.119782,0.11952,-40.7859,2,0.0148458,10,-0.00487472,-1.38949,-0.178655,-0.330246,525.503,0.11952,
2,0,0,1,0,3168.6,0.106987,0.106757,-47.7484,2,0.0141371,10,-0.00509746,-1.32104,-0.202587,-0.291233,540.9,0.106757,
2,0,0,1,0,3168.62,0.0941801,0.0939681,-54.4624,2,0.0133185,10,-0.00511773,-1.2639,-0.248133,-0.237775,503.706,0.0939681,
2,0,0,1,0,3168.63,0.0813844,0.0812284,-60.3872,2,0.0123974,10,-0.00490516,-1.21906,-0.332571,-0.177406,416.839,0.0812284,
2,0,0,1,0,3168.65,0.0685832,0.0683116,-65.1453,2,0.0113911,10,-0.00445018,-1.18612,-0.483322,-0.122072,309.068,0.0683116,
2,0,0,1,0,3168.67,0.0557876,0.0555125,-68.181,2,0.0103217,10,-0.0037849,-1.16634,-0.946543,-0.0623321,165.258,0.0555125,
2,0,0,1,0,3168.68,0.0429808,0.0427102,-69.3327,2,0.00921883,10,-0.00296121,-1.15906,-6.87052,-0.00858742,23.1741,0.0427102,
2,0,0,1,0,3168.7,0.030188,0.0298751,-68.8806,2,0.00811114,10,-0.00205781,-1.1619,2.02808,0.0290916,-78.1089,0.0298751,
2,0,0,1,0,3168.71,0.017384,0.0170335,-67.5706,2,0.00701879,10,-0.00115097,-1.17024,1.24728,0.0473028,-124.601,0.0170335,
2,0,0,1,0,3168.73,0.00458834,0.0042726,-65.7482,2,0.00595196,10,-0.000280916,-1.18212,0.970926,0.0607667,-155.79,0.0042726,
2,0,0,1,0,3168.75,-0.00821564,-0.00856787,-63.4236,2,0.00491748,10,0.000543405,-1.19775,0.686602,0.0859304,-212.389,-0.00856787,
2,0,0,1,0,3168.76,-0.0210196,-0.0213744,-60.3036,2,0.00392672,10,0.00128895,-1.21966,0.512231,0.115182,-270.776,-0.0213744,
2,0,0,1,0,3168.78,-0.0338153,-0.034147,-56.7031,2,0.00299081,10,0.00193624,-1.24639,0.475067,0.124193,-275.004,-0.034147,
2,0,0,1,0,3168.79,-0.0466193,-0.0469599,-53.5192,2,0.00211057,10,0.00251326,-1.27149,0.571684,0.103204,-215.891,-0.0469599,
2,0,0,1,0,3168.81,-0.0594121,-0.0597876,-51.2609,2,0.00127412,10,0.00306477,-1.29021,0.895057,0.0659176,-132.186,-0.0597876,
2,0,0,1,0,3168.83,-0.0722189,-0.0725634,-50.0597,2,0.000464807,10,0.0036325,-1.30051,2.01561,0.0292715,-57.317,-0.0725634,
2,0,0,1,0,3168.84,-0.0850146,-0.0853986,-49.6805,2,-0.000332323,10,0.00424265,-1.30381,29.105,0.00202714,-3.93833,-0.0853986,
2,0,0,1,0,3168.86,-0.0978158,-0.098185,-49.9638,2,-0.00112897,10,0.00490569,-1.30134,-2.73638,-0.0215613,42.0944,-0.098185,
2,0,0,1,0,3168.87,-0.110611,-0.110967,-50.7511,2,-0.0019342,10,0.00563171,-1.29455,-1.50414,-0.0392252,77.7511,-0.110967,
2,0,0,1,0,3168.89,-0.123418,-0.123761,-51.9382,2,-0.00275533,10,0.00642792,-1.28451,-1.12018,-0.0526702,106.825,-0.123761,
2,0,0,1,0,3168.91,-0.136214,-0.136561,-53.4365,2,-0.00359818,10,0.00729735,-1.27216,-0.958963,-0.0615248,128.394,-0.136561,
2,0,0,1,0,3168.92,-0.149015,-0.149374,-55.1746,2,-0.00446728,10,0.00824165,-1.25826,-0.901214,-0.0654673,141.024,-0.149374,
2,0,0,1,0,3168.94,-0.161816,-0.162162,-57.0272,2,-0.00536511,10,0.00924767,-1.24392,-0.903195,-0.0653237,145.389,-0.1621625,
2,0,0,1,0,3168.95,-0.174615,-0.174904,-58.9256,2,-0.00629295,10,0.0103063,-1.2297,-0.909979,-0.0648367,149.071,-0.174904,
2,0,0,1,0,3168.97,-0.187419,-0.18775,-60.8489,2,-0.0072512,10,0.0114244,-1.21575,-0.930151,-0.0634306,150.591,-0.18775,
2,0,0,1,0,3168.99,-0.199647,-0.199969,-62.6817,2,-0.00819652,10,0.0125344,-1.20286,0.325147,0.181457,-429.58,-0.199969,
2,0,0,1,1,3169,-0.192535,-0.19298,-45.321,2,-0.00873949,10,0.00874605,-1.3437,-0.0544922,-1.08272,1939.19,-0.19298,
2,0,0,1,1,3169.01,-0.179739,-0.18018,-25.5695,2,-0.00929482,10,0.0046071,-1.59228,-0.0446272,-1.32206,1304.26,-0.18018,
2,0,0,1,1,3169.03,-0.166932,-0.16734,-11.1085,2,-0.00958174,10,0.0018589,-1.95434,-0.0236552,-2.49417,991.684,-0.16734,
2,0,0,1,1,3169.04,-0.154139,-0.154566,0.261059,2,-0.0096641,10,-4.03508e-05,-3.58326,36.4938,0.00161671,803.258,-0.154566,
2,1,0,1,1,3169.06,-0.141335,-0.141808,9.52571,2,-0.00958254,10,-0.00135082,-2.0211,0.0302331,1.9515,660.203,-0.141808,
2,1,0,1,1,3169.08,-0.12854,-0.129029,17.293,2,-0.00936552,10,-0.0022313,-1.76213,0.069958,0.843363,556.018,-0.129029,
2,1,0,1,1,3169.09,-0.115736,-0.116151,23.8168,2,-0.00903435,10,-0.00276635,-1.62312,0.117307,0.502953,462.317,-0.116151,
2,1,0,1,1,3169.11,-0.102932,-0.103315,29.2212,2,-0.00860822,10,-0.00301899,-1.5343,0.17336,0.340332,385.755,-0.103315,
2,1,0,1,1,3169.12,-0.0901362,-0.0905182,33.7433,2,-0.00810294,10,-0.00305438,-1.47181,0.240684,0.245135,321.439,-0.0905182,
2,1,0,1,1,3169.14,-0.0773322,-0.0776756,37.5052,2,-0.00753175,10,-0.00291324,-1.42591,0.323005,0.18266,266.472,-0.0776756,
2,1,0,1,1,3169.16,-0.0645393,-0.0649741,40.5756,2,-0.00690598,10,-0.00263636,-1.39174,0.425861,0.138543,218.925,-0.0649741,
2,1,0,1,1,3169.17,-0.0517325,-0.0521485,43.0833,2,-0.00623562,10,-0.00224673,-1.36569,0.565972,0.104245,175.011,-0.0521485,
2,1,0,1,1,3169.19,-0.0389369,-0.0393144,45.0457,2,-0.00552955,10,-0.00177094,-1.34635,0.777977,0.0758377,133.173,-0.0393144,
2,1,0,1,1,3169.2,-0.0261357,-0.0264909,46.5321,2,-0.00479603,10,-0.00123268,-1.33225,1.11906,0.0527229,95.6037,-0.0264909,
2,1,0,1,1,3169.22,-0.01334,-0.0137299,47.5224,2,-0.00404296,10,-0.00065248,-1.3231,1.84458,0.0319857,59.2423,-0.0137299,
2,1,0,1,1,3169.24,-0.000774628,-0.00116358,48.0555,2,-0.00329206,10,-5.59162e-05,-1.31826, , , ,-0.00116358,
2,1,0,0,1,3169.24,-0.000125413,-0.000439847,48.0915,2,-0.00325361,10,-2.11529e-05,-1.31793, , , ,-0.000439847,