Folder: Figs_alphaMnO2_OER_Tafel_sleope/Figure_codes/Fig_3-5/rawdata_trumpetplot_data/after 10th (part 133)

File: 20221101_1-115_003_TrumpetPlot_ParaChange_from10_every3_09_CV_C01_22.csv
mode,ox/red,error,control changes,counter inc.,time/s,control/V,Ewe/V,<I>/mA,cycle number,(Q-Qo)/C,I Range,P/W,log(|I|),Tafel slope mV/dec,alpha_eff,dI/d(E-IR),E-IR/V,
2,0,0,0,0,44525.4,2.44065e-05,-0.000382585,-5.27415,23,0.0000000E+000,10,2.01781e-06,-2.27785, , , ,-0.000382585,
2,1,0,1,0,44525.5,0.00978761,0.00949597,1.15563,23,-0.000108058,10,1.09738e-05,-2.93718,0.00785704,7.50919,286.773,0.00949597,
2,1,0,1,0,44525.6,0.0197755,0.0194052,2.94626,23,0.000111552,10,5.71727e-05,-2.53073,0.0599698,0.983828,112.364,0.0194052,
2,1,0,1,0,44525.7,0.0297635,0.0294604,3.81399,23,0.000453814,10,0.000112362,-2.41862,0.127831,0.461546,68.528,0.0294604,
2,1,0,1,0,44525.8,0.0397514,0.0394796,4.42453,23,0.000867242,10,0.000174679,-2.35413,0.166686,0.353959,61.1249,0.0394796,
2,1,0,1,0,44525.9,0.0497484,0.0494557,4.97407,23,0.00133765,10,0.000245996,-2.30329,0.223528,0.263949,51.0891,0.0494557,
2,1,0,1,0,44526,0.0597273,0.0593525,5.4623,23,0.00185915,10,0.000324201,-2.26262,0.26027,0.226688,48.2844,0.05935248,
2,1,0,1,0,44526.1,0.0697152,0.069384,5.91451,23,0.00242896,10,0.000410373,-2.22808,0.33326,0.177039,40.889,0.069384,
2,1,0,1,0,44526.2,0.0797031,0.0793582,6.32652,23,0.00304197,10,0.000502061,-2.19884,0.399255,0.147775,36.4672,0.07935816,
2,1,0,1,0,44526.3,0.0896911,0.0893415,6.66504,23,0.00369231,10,0.000595465,-2.1762,0.456907,0.129129,33.6254,0.0893415,
2,1,0,1,0,44526.4,0.099679,0.0993686,7.04196,23,0.00437642,10,0.00069975,-2.15231,0.386769,0.152546,41.9023,0.0993686,
2,1,0,1,0,44526.5,0.109667,0.109348,7.57573,23,0.00510519,10,0.00082839,-2.12058,0.271607,0.217225,64.2627,0.1093478,
2,1,0,1,0,44526.6,0.119655,0.119257,8.28384,23,0.00589778,10,0.000987907,-2.08177,0.28928,0.203955,65.8838,0.119257,
2,1,0,1,0,44526.7,0.129643,0.129304,8.91085,23,0.00675916,10,0.00115221,-2.05008,0.384282,0.153533,53.3645,0.129304,
2,1,0,1,0,44526.8,0.139631,0.139325,9.31641,23,0.0076729,10,0.00129801,-2.03075,0.727383,0.0811127,29.5032,0.139325,
2,1,0,1,0,44526.9,0.149619,0.149275,9.38107,23,0.00861156,10,0.00140036,-2.02775,-0.784179,-0.0752379,-27.4762,0.149275,
2,1,0,1,0,44527,0.159607,0.159295,8.53452,23,0.00951655,10,0.00135951,-2.06882,-0.137916,-0.427797,-142.253,0.159295,
2,1,0,1,0,44527.1,0.169595,0.169248,6.93306,23,0.0102912,10,0.0011734,-2.15908,-0.102638,-0.574833,-155.562,0.169248,
2,1,0,1,0,44527.2,0.179582,0.179304,5.64742,23,0.0109152,10,0.0010126,-2.24815,-0.134038,-0.440175,-97.2092,0.179304,
2,1,0,1,0,44527.3,0.18957,0.189212,4.90714,23,0.0114397,10,0.000928491,-2.30917,-0.207858,-0.283848,-54.4436,0.189212,
2,1,0,1,0,44527.4,0.199558,0.199238,4.48705,23,0.011907,10,0.000893993,-2.34804,-0.324797,-0.181652,-31.7676,0.199238,
2,1,0,1,0,44527.5,0.209546,0.20923,4.22892,23,0.0123416,10,0.000884817,-2.37377,-0.406682,-0.145077,-23.9408,0.20923,
2,1,0,1,0,44527.6,0.219534,0.219217,4.05445,23,0.0127552,10,0.000888804,-2.39207,-0.697691,-0.0845647,-13.382,0.219217,
2,1,0,1,0,44527.7,0.229522,0.229243,3.93467,23,0.0131551,10,0.000901995,-2.40509,-0.907805,-0.0649919,-9.99674,0.229243,
2,1,0,1,0,44527.8,0.23951,0.23922,3.86239,23,0.0135453,10,0.000923959,-2.41314,-1.62019,-0.0364154,-5.48939,0.23922,
2,1,0,1,0,44527.9,0.249498,0.249162,3.79752,23,0.0139281,10,0.000946197,-2.4205,-1.5919,-0.0370626,-5.49514,0.249162,
2,1,0,1,0,44528,0.259486,0.259197,3.74827,23,0.0143056,10,0.00097154,-2.42617,-1.41181,-0.0417904,-6.11226,0.259197,
2,1,0,1,0,44528.1,0.269474,0.269179,3.70312,23,0.0146783,10,0.000996802,-2.43143,-2.24819,-0.0262433,-3.79187,0.269179,
2,1,0,1,0,44528.2,0.279462,0.279195,3.65761,23,0.0150468,10,0.00102119,-2.4368,-2.69924,-0.021858,-3.12304,0.279195,
2,1,0,1,0,44528.3,0.28945,0.289133,3.61663,23,0.0154108,10,0.00104569,-2.4417,-2.62651,-0.0224633,-3.1723,0.289133,
2,1,0,1,0,44528.4,0.299438,0.299142,3.57718,23,0.0157705,10,0.00107008,-2.44646,-0.0332102,-1.77656,-230.668,0.299142,
2,0,0,1,0,44528.5,0.291747,0.291445,-0.638023,23,0.0158477,10,-0.000185948,-3.19516,-0.00697127,-8.4633,170.781,0.291445,
2,0,0,1,0,44528.6,0.281759,0.281424,-1.55896,23,0.0157288,10,-0.000438728,-2.80717,-0.0684958,-0.861367,52.0578,0.281424,
2,0,0,1,0,44528.7,0.271771,0.271415,-1.94251,23,0.0155524,10,-0.000527227,-2.71164,-0.136465,-0.432346,32.6924,0.271415,
2,0,0,1,0,44528.8,0.261783,0.261449,-2.19273,23,0.0153456,10,-0.000573286,-2.65902,-0.251452,-0.234637,20.0235,0.261449,
2,0,0,1,0,44528.9,0.251795,0.251489,-2.37625,23,0.0151175,10,-0.000597601,-2.62411,-0.319027,-0.184937,17.1426,0.251489,
2,0,0,1,0,44529,0.241807,0.241431,-2.52655,23,0.0148724,10,-0.000609989,-2.59747,-0.371126,-0.158975,15.7287,0.241431,
2,0,0,1,0,44529.1,0.231815,0.231474,-2.67222,23,0.0146127,10,-0.000618549,-2.57313,-0.408115,-0.144567,15.065,0.231474,
2,0,0,1,0,44529.2,0.221831,0.221498,-2.80069,23,0.0143401,10,-0.000620346,-2.55274,-0.478373,-0.123335,13.4512,0.221498,
2,0,0,1,0,44529.3,0.211843,0.211501,-2.91883,23,0.0140547,10,-0.000617334,-2.53479,-0.619328,-0.0952646,10.8565,0.211501,
2,0,0,1,0,44529.4,0.201856,0.201514,-3.04464,23,0.0137569,10,-0.000613538,-2.51646,-0.626229,-0.0942148,11.2082,0.201514,
2,0,0,1,0,44529.5,0.191868,0.191516,-3.17674,23,0.0134464,10,-0.000608398,-2.49802,-0.51745,-0.114021,14.1553,0.1915163,
2,0,0,1,0,44529.6,0.18188,0.181539,-3.33154,23,0.0131226,10,-0.000604804,-2.47735,-0.419396,-0.140679,18.2517,0.181539,
2,0,0,1,0,44529.7,0.171892,0.17152,-3.5017,23,0.0127822,10,-0.000600612,-2.45572,-0.392714,-0.150236,20.5511,0.17152,
2,0,0,1,0,44529.8,0.161904,0.161552,-3.74525,23,0.0124213,10,-0.000605051,-2.42652,-0.296157,-0.199219,29.1347,0.1615517,
2,0,0,1,0,44529.9,0.151916,0.151585,-4.11533,23,0.0120302,10,-0.00062382,-2.3856,-0.198563,-0.297135,47.8832,0.151585,
2,0,0,1,0,44530,0.141928,0.141602,-4.80169,23,0.0115883,10,-0.000679929,-2.31861,-0.119155,-0.495152,92.9594,0.141602,
2,0,0,1,0,44530.1,0.13194,0.1316,-5.94234,23,0.011056,10,-0.00078201,-2.22604,-0.102587,-0.575124,133.302,0.1316,
2,0,0,1,0,44530.2,0.121952,0.121583,-7.26903,23,0.0103961,10,-0.000883793,-2.13852,-0.134547,-0.438509,124.276,0.121583,
2,0,0,1,0,44530.3,0.111964,0.111632,-8.40256,23,0.00961106,10,-0.000937992,-2.07559,-0.201458,-0.292865,95.9326,0.111632,
2,0,0,1,0,44530.4,0.101976,0.101611,-9.1668,23,0.00873028,10,-0.000931447,-2.03778,-0.406782,-0.145041,51.7969,0.101611,
2,0,0,1,0,44530.5,0.0919883,0.0917025,-9.42657,23,0.00779762,10,-0.00086444,-2.02565,-6.36819,-0.0092648,3.40597,0.0917025,
2,0,0,1,0,44530.6,0.0820004,0.081675,-9.22806,23,0.00686386,10,-0.000753702,-2.03489,0.625151,0.0943772,-33.9807,0.08167503,
2,0,0,1,0,44530.7,0.0720124,0.0717106,-8.88094,23,0.00595968,10,-0.000636858,-2.05154,0.636096,0.0927534,-32.1686,0.0717106,
2,0,0,1,0,44530.8,0.0620245,0.0617043,-8.60689,23,0.00508676,10,-0.000531082,-2.06515,0.766373,0.076986,-25.8809,0.0617043,
2,0,0,1,0,44530.9,0.0520366,0.0517089,-8.37272,23,0.00423868,10,-0.000432944,-2.07713,0.758038,0.0778325,-25.4205,0.0517089,
2,0,0,1,0,44531,0.0420486,0.041729,-8.10507,23,0.00341537,10,-0.000338216,-2.09124,0.693132,0.0851209,-26.9455,0.041729,
2,0,0,1,0,44531.1,0.0320607,0.0316729,-7.80454,23,0.00262108,10,-0.000247192,-2.10765,0.519928,0.113477,-34.5242,0.0316729,
2,0,0,1,0,44531.2,0.0220728,0.0217526,-7.42794,23,0.00186029,10,-0.000161577,-2.12913,0.434352,0.135835,-39.3671,0.0217526,
2,0,0,1,0,44531.3,0.0120848,0.0117557,-7.05372,23,0.00113771,10,-8.29214e-05,-2.15158,0.449181,0.13135,-36.1657,0.0117557,
2,0,0,1,0,44531.4,0.0020969,0.00173524,-6.79059,23,0.000449563,10,-1.17833e-05,-2.16809,0.800952,0.0736623,-19.4349,0.00173524,
2,0,0,1,0,44531.5,-0.00789103,-0.00825735,-6.56331,23,-0.000215642,10,5.41956e-05,-2.18288,1.16066,0.0508333,-13.045,-0.00825735,
2,0,0,1,0,44531.6,-0.017879,-0.0182541,-6.52161,23,-0.000867704,10,0.000119046,-2.18565,-7.61023,-0.00775272,1.9723,-0.0182541,
2,0,0,1,0,44531.7,-0.0278669,-0.0282926,-6.57228,23,-0.00152068,10,0.000185947,-2.18228,-1.76702,-0.0333896,8.5774,-0.0282926,
2,0,0,1,0,44531.8,-0.0378548,-0.0382411,-6.72299,23,-0.00218399,10,0.000257094,-2.17244,-0.963033,-0.0612648,16.0623,-0.0382411,
2,0,0,1,0,44531.9,-0.0478428,-0.048225,-6.92523,23,-0.00286516,10,0.000333969,-2.15957,-0.576058,-0.10242,27.7124,-0.048225,
2,0,0,1,0,44532,-0.0578217,-0.0582536,-7.203,23,-0.00356982,10,0.000419601,-2.14249,-0.541957,-0.108865,30.5801,-0.0582536,
2,0,0,1,0,44532.1,-0.0678187,-0.0681712,-7.53508,23,-0.00430522,10,0.000513675,-2.12291,-0.438578,-0.134526,39.5378,-0.0681712,
2,0,0,1,0,44532.2,-0.0778066,-0.0781621,-7.93263,23,-0.00507761,10,0.000620032,-2.10058,-0.428036,-0.137839,42.7135,-0.0781621,
2,0,0,1,0,44532.3,-0.0877945,-0.0881424,-8.41342,23,-0.00589413,10,0.000741578,-2.07503,-0.382002,-0.15445,50.707,-0.0881424,
2,0,0,1,0,44532.4,-0.0977825,-0.0981531,-8.919,23,-0.00676031,10,0.000875428,-2.04968,-0.398105,-0.148202,51.5959,-0.0981531,
2,0,0,1,1,44532.5,-0.0927386,-0.0931105,-2.73168,23,-0.00733559,10,0.000254348,-2.56357,-0.0120019,-4.91589,516.86,-0.0931105,
2,1,0,1,1,44532.6,-0.0827529,-0.0831136,0.81827,23,-0.00740969,10,-6.80093e-05,-3.0871,0.00611752,9.64443,251.539,-0.0831136,
2,1,0,1,1,44532.7,-0.0727627,-0.0731265,2.72644,23,-0.00722415,10,-0.000199375,-2.5644,0.0432739,1.36341,143.14,-0.0731265,
2,1,0,1,1,44532.8,-0.0627748,-0.0631777,3.84779,23,-0.00689132,10,-0.000243095,-2.41479,0.0987816,0.597277,89.3561,-0.0631777,
2,1,0,1,1,44532.9,-0.0527868,-0.0531175,4.52285,23,-0.00647011,10,-0.000240243,-2.34459,0.212448,0.277715,48.9193,-0.0531175,
2,1,0,1,1,44533,-0.0427989,-0.0431929,4.91778,23,-0.00599628,10,-0.000212413,-2.30823,0.361848,0.163052,31.2906,-0.0431929,
2,1,0,1,1,44533.1,-0.0328109,-0.0331781,5.14066,23,-0.00549293,10,-0.000170557,-2.28898,0.800364,0.0737165,14.7736,-0.0331781,
2,1,0,1,1,44533.2,-0.022823,-0.0231944,5.23274,23,-0.00497413,10,-0.00012137,-2.28127,2.38398,0.0247485,5.0478,-0.0231944,
2,1,0,1,1,44533.3,-0.0128351,-0.0131793,5.24547,23,-0.00445014,10,-6.91318e-05,-2.28022,-8.29083,-0.00711629,-1.45751,-0.0131793,
2,1,0,1,1,44533.4,-0.00284713,-0.00319299,5.23746,23,-0.00392589,10,-1.67231e-05,-2.28088,-5.1729,-0.0114056,-2.32912,-0.00319299,
2,1,0,1,1,44533.4,-2.55332e-05,-0.000325324,5.24645,23,-0.00377869,10,-1.70679e-06,-2.28013, , , ,-0.000325324,

File: 20221101_1-115_003_TrumpetPlot_ParaChange_from10_every3_09_CV_C01_23.csv
mode,ox/red,error,control changes,counter inc.,time/s,control/V,Ewe/V,<I>/mA,cycle number,(Q-Qo)/C,I Range,P/W,log(|I|),Tafel slope mV/dec,alpha_eff,dI/d(E-IR),E-IR/V,
2,0,0,0,0,46495.5,2.44065e-05,-0.000306236,-5.25316,24,0.0000000E+000,10,1.60871e-06,-2.27958, , , ,-0.000306236,
2,1,0,1,0,46495.6,0.00978761,0.00948469,1.04364,24,-0.000116672,10,9.89862e-06,-2.98145,0.00691956,8.52656,284.218,0.00948469,
2,1,0,1,0,46495.7,0.0197755,0.0194375,2.8375,24,9.09708e-05,10,5.5154e-05,-2.54706,0.0570788,1.03366,113.757,0.0194375,
2,1,0,1,0,46495.8,0.0297635,0.0294448,3.72142,24,0.000422658,10,0.000109577,-2.42929,0.124081,0.475496,68.884,0.0294448,
2,1,0,1,0,46495.9,0.0397514,0.0394402,4.33633,24,0.000826636,10,0.000171026,-2.36288,0.164389,0.358905,60.8265,0.0394402,
2,1,0,1,0,46496,0.0497484,0.0494423,4.89406,24,0.00128813,10,0.000241973,-2.31033,0.210857,0.279811,53.3064,0.04944225,
2,1,0,1,0,46496.1,0.0597273,0.0593794,5.3827,24,0.00180104,10,0.000319621,-2.269,0.254613,0.231724,48.6418,0.0593794,
2,1,0,1,0,46496.2,0.0697152,0.0693832,5.83933,24,0.00236232,10,0.000405151,-2.23364,0.316226,0.186575,42.5248,0.0693832,
2,1,0,1,0,46496.3,0.0797031,0.0794002,6.24353,24,0.00296675,10,0.000495738,-2.20457,0.373872,0.157808,38.4572,0.0794002,
2,1,0,1,0,46496.4,0.0896911,0.0893884,6.58732,24,0.0036087,10,0.00058883,-2.18129,0.439653,0.134197,34.5402,0.0893884,
2,1,0,1,0,46496.5,0.099679,0.0993876,6.95421,24,0.00428413,10,0.000691163,-2.15775,0.400701,0.147242,39.9423,0.0993876,
2,1,0,1,0,46496.6,0.109667,0.109367,7.47168,24,0.00500286,10,0.000817154,-2.12658,0.28035,0.210452,61.411,0.109367,
2,1,0,1,0,46496.7,0.119655,0.119312,8.15709,24,0.00578336,10,0.000973242,-2.08846,0.284801,0.207162,65.9308,0.119312,
2,1,0,1,0,46496.8,0.129643,0.129357,8.78328,24,0.00663126,10,0.00113618,-2.05634,0.395405,0.149214,51.1158,0.129357,
2,1,0,1,0,46496.9,0.139631,0.139305,9.18514,24,0.0075313,10,0.00127953,-2.03691,0.712106,0.0828529,29.706,0.139305,
2,1,0,1,0,46497,0.149619,0.149321,9.27262,24,0.00845718,10,0.0013846,-2.0328,-0.865691,-0.0681537,-24.5984,0.1493213,
2,1,0,1,0,46497.1,0.159607,0.159307,8.4906,24,0.00935371,10,0.00135261,-2.07106,-0.145566,-0.405314,-134.118,0.159307,
2,1,0,1,0,46497.2,0.169595,0.169288,6.95927,24,0.0101276,10,0.00117812,-2.15744,-0.104739,-0.563304,-153.005,0.169288,
2,1,0,1,0,46497.3,0.179582,0.179301,5.68779,24,0.0107548,10,0.00101983,-2.24506,-0.131326,-0.449264,-99.9554,0.179301,
2,1,0,1,0,46497.4,0.18957,0.189269,4.93634,24,0.0112824,10,0.000934298,-2.30659,-0.204013,-0.289197,-55.7462,0.189269,
2,1,0,1,0,46497.5,0.199558,0.199279,4.49693,24,0.0117515,10,0.000896146,-2.34708,-0.333585,-0.176867,-31.0192,0.199279,
2,1,0,1,0,46497.6,0.209546,0.20923,4.23238,24,0.0121866,10,0.000885543,-2.37342,-0.398214,-0.148162,-24.4635,0.20923,
2,1,0,1,0,46497.7,0.219534,0.21921,4.05493,24,0.0126001,10,0.000888879,-2.39202,-0.629349,-0.0937477,-14.8315,0.21921,
2,1,0,1,0,46497.8,0.229522,0.229231,3.93016,24,0.0129993,10,0.000900915,-2.40559,-0.86389,-0.0682958,-10.4884,0.229231,
2,1,0,1,0,46497.9,0.23951,0.239213,3.84655,24,0.0133886,10,0.000920146,-2.41493,-1.53057,-0.0385477,-5.79487,0.239213,
2,1,0,1,0,46498,0.249498,0.249169,3.78778,24,0.0137702,10,0.000943797,-2.42162,-1.53467,-0.0384449,-5.68081,0.249169,
2,1,0,1,0,46498.1,0.259486,0.259197,3.73748,24,0.0141465,10,0.000968743,-2.42742,-1.21411,-0.0485952,-7.08455,0.2591967,
2,1,0,1,0,46498.2,0.269474,0.269176,3.68804,24,0.0145179,10,0.000992732,-2.4332,-2.32773,-0.0253466,-3.6491,0.269176,
2,1,0,1,0,46498.3,0.279462,0.279178,3.64669,24,0.014885,10,0.00101808,-2.4381,-1.83751,-0.0321086,-4.57008,0.279178,
2,1,0,1,0,46498.4,0.28945,0.289167,3.60395,24,0.0152478,10,0.00104214,-2.44322,-2.2496,-0.0262269,-3.6873,0.289167,
2,1,0,1,0,46498.5,0.299438,0.299138,3.56294,24,0.0156062,10,0.00106581,-2.44819,-0.0357939,-1.64832,-213.857,0.299138,
2,0,0,1,0,46498.6,0.291747,0.291445,-0.56125,24,0.0156885,10,-0.000163574,-3.25084,-0.00549836,-10.7305,174.307,0.291445,
2,0,0,1,0,46498.7,0.281759,0.281424,-1.50673,24,0.0155758,10,-0.00042403,-2.82196,-0.0622066,-0.948452,55.1204,0.281424,
2,0,0,1,0,46498.8,0.271771,0.271439,-1.8973,24,0.0154038,10,-0.000515003,-2.72186,-0.1389,-0.424767,31.3742,0.271439,
2,0,0,1,0,46498.9,0.261783,0.261456,-2.14885,24,0.0152007,10,-0.000561832,-2.66779,-0.242856,-0.242942,20.3493,0.2614564,
2,0,0,1,0,46499,0.251795,0.251487,-2.33575,24,0.0149757,10,-0.00058741,-2.63157,-0.317925,-0.185578,16.9304,0.251487,
2,0,0,1,0,46499.1,0.241807,0.241527,-2.49312,24,0.0147336,10,-0.000602156,-2.60326,-0.380495,-0.155061,15.116,0.241527,
2,0,0,1,0,46499.2,0.231815,0.231491,-2.63824,24,0.0144766,10,-0.000610729,-2.57869,-0.400774,-0.147215,15.1417,0.231491,
2,0,0,1,0,46499.3,0.221831,0.221528,-2.76346,24,0.0142066,10,-0.000612186,-2.55855,-0.525848,-0.1122,12.1024,0.221528,
2,0,0,1,0,46499.4,0.211843,0.211559,-2.88698,24,0.0139238,10,-0.000610768,-2.53956,-0.657276,-0.0897645,10.1114,0.211559,
2,0,0,1,0,46499.5,0.201856,0.20157,-3.01047,24,0.0136286,10,-0.000606821,-2.52137,-0.550437,-0.107188,12.601,0.20157,
2,0,0,1,0,46499.6,0.191868,0.191526,-3.14301,24,0.0133209,10,-0.000601967,-2.50265,-0.535647,-0.110147,13.5324,0.191526,
2,0,0,1,0,46499.7,0.18188,0.181588,-3.29345,24,0.0129999,10,-0.000598052,-2.48235,-0.404007,-0.146037,18.7241,0.181588,
2,0,0,1,0,46499.8,0.171892,0.171535,-3.4635,24,0.0126626,10,-0.00059411,-2.46049,-0.424692,-0.138924,18.768,0.171535,
2,0,0,1,0,46499.9,0.161904,0.161575,-3.70112,24,0.0123052,10,-0.000598009,-2.43167,-0.296149,-0.199224,28.7593,0.161575,
2,0,0,1,0,46500,0.151916,0.151575,-4.06429,24,0.0119185,10,-0.000616044,-2.39102,-0.200605,-0.29411,46.7437,0.151575,
2,0,0,1,0,46500.1,0.141928,0.141615,-4.72238,24,0.0114825,10,-0.000668759,-2.32584,-0.122243,-0.482645,89.0798,0.1416146,
2,0,0,1,0,46500.2,0.13194,0.131569,-5.81849,24,0.0109595,10,-0.000765534,-2.23519,-0.103411,-0.57054,129.63,0.131569,
2,0,0,1,0,46500.3,0.121952,0.121648,-7.1159,24,0.0103128,10,-0.000865636,-2.14777,-0.131845,-0.447495,124.088,0.121648,
2,0,0,1,0,46500.4,0.111964,0.111656,-8.22219,24,0.00954385,10,-0.000918055,-2.08501,-0.192501,-0.306492,98.2724,0.111656,
2,0,0,1,0,46500.5,0.101976,0.101689,-8.99213,24,0.00867981,10,-0.000914405,-2.04614,-0.391319,-0.150772,52.8474,0.101689,
2,0,0,1,0,46500.6,0.0919883,0.0916926,-9.28258,24,0.00776226,10,-0.000851144,-2.03233,-3.10674,-0.018991,6.87723,0.0916926,
2,0,0,1,0,46500.7,0.0820004,0.0816763,-9.1278,24,0.0068403,10,-0.000745525,-2.03963,0.716351,0.0823619,-29.3302,0.0816763,
2,0,0,1,0,46500.8,0.0720124,0.0717033,-8.81458,24,0.00594397,10,-0.000632034,-2.0548,0.68495,0.0861377,-29.6432,0.07170327,
2,0,0,1,0,46500.9,0.0620245,0.0617246,-8.55683,24,0.00507639,10,-0.000528167,-2.06769,0.768586,0.0767644,-25.6417,0.06172464,
2,0,0,1,0,46501,0.0520366,0.0516872,-8.33033,24,0.00423252,10,-0.000430571,-2.07934,0.773081,0.076318,-24.7978,0.0516872,
2,0,0,1,0,46501.1,0.0420486,0.041768,-8.06709,24,0.00341272,10,-0.000336946,-2.09328,0.705358,0.0836454,-26.3493,0.041768,
2,0,0,1,0,46501.2,0.0320607,0.0317592,-7.76927,24,0.00262149,10,-0.000246746,-2.10962,0.549047,0.107459,-32.5647,0.0317592,
2,0,0,1,0,46501.3,0.0220728,0.0217409,-7.40357,24,0.00186314,10,-0.00016096,-2.13056,0.438816,0.134453,-38.8327,0.0217409,
2,0,0,1,0,46501.4,0.0120848,0.0117184,-7.02759,24,0.00114252,10,-8.23518e-05,-2.15319,0.432276,0.136487,-37.4376,0.0117184,
2,0,0,1,0,46501.5,0.0020969,0.00173437,-6.76394,24,0.000456562,10,-1.17312e-05,-2.1698,0.82258,0.0717255,-18.8413,0.00173437,
2,0,0,1,0,46501.6,-0.00789103,-0.00824532,-6.53182,24,-0.000206077,10,5.38569e-05,-2.18497,1.26718,0.0465601,-11.8889,-0.00824532,
2,0,0,1,0,46501.7,-0.017879,-0.0182396,-6.48175,24,-0.00085494,10,0.000118225,-2.18831,-38.936,-0.00151531,0.383031,-0.0182396,
2,0,0,1,0,46501.8,-0.0278669,-0.0282501,-6.52729,24,-0.00150414,10,0.000184397,-2.18527,-1.7645,-0.0334373,8.5247,-0.0282501,
2,0,0,1,0,46501.9,-0.0378548,-0.0382274,-6.66896,24,-0.00216295,10,0.000254937,-2.17594,-0.889806,-0.0663066,17.2477,-0.0382274,
2,0,0,1,0,46502,-0.0478428,-0.048228,-6.86875,24,-0.00283909,10,0.000331266,-2.16312,-0.566034,-0.104234,27.9771,-0.048228,
2,0,0,1,0,46502.1,-0.0578217,-0.0582467,-7.14007,24,-0.00353808,10,0.000415885,-2.1463,-0.540978,-0.109062,30.3839,-0.0582467,
2,0,0,1,0,46502.2,-0.0678187,-0.0681833,-7.4666,24,-0.00426721,10,0.000509097,-2.12688,-0.452331,-0.130435,38.0016,-0.0681833,
2,0,0,1,0,46502.3,-0.0778066,-0.0782038,-7.85451,24,-0.00503244,10,0.000614252,-2.10488,-0.422618,-0.139606,42.8433,-0.0782038,
2,0,0,1,0,46502.4,-0.0877945,-0.0881631,-8.32891,24,-0.00584082,10,0.000734302,-2.07941,-0.381663,-0.154586,50.2342,-0.0881631,
2,0,0,1,0,46502.5,-0.0977825,-0.0981782,-8.82299,24,-0.00669789,10,0.000866226,-2.05438,-0.402603,-0.146546,50.4738,-0.0981782,
2,0,0,1,1,46502.6,-0.0927386,-0.093121,-2.8259,24,-0.00727267,10,0.000263151,-2.54884,-0.0128079,-4.60654,502.055,-0.093121,
2,1,0,1,1,46502.7,-0.0827529,-0.0831244,0.672893,24,-0.00735859,10,-5.59338e-05,-3.17205,0.00456385,12.9277,246.224,-0.0831244,
2,1,0,1,1,46502.8,-0.0727627,-0.0731406,2.57125,24,-0.00718728,10,-0.000188063,-2.58986,0.0397218,1.48533,147.153,-0.0731406,
2,1,0,1,1,46502.9,-0.0627748,-0.0631248,3.70077,24,-0.00686832,10,-0.00023361,-2.43171,0.0962958,0.612695,88.4336,-0.0631248,
2,1,0,1,1,46503,-0.0527868,-0.0531449,4.39995,24,-0.00645946,10,-0.000233835,-2.35655,0.191457,0.308164,52.7949,-0.0531449,
2,1,0,1,1,46503.1,-0.0427989,-0.0431317,4.81228,24,-0.00599641,10,-0.000207562,-2.31765,0.322536,0.182925,34.3368,-0.0431317,
2,1,0,1,1,46503.2,-0.0328109,-0.0331776,5.04702,24,-0.00550226,10,-0.000167448,-2.29696,0.652297,0.0904496,17.799,-0.0331776,
2,1,0,1,1,46503.3,-0.022823,-0.0231579,5.15112,24,-0.00499132,10,-0.000119289,-2.2881,1.99874,0.0295186,5.93431,-0.0231579,
2,1,0,1,1,46503.4,-0.0128351,-0.0131806,5.17919,24,-0.00447394,10,-6.8265e-05,-2.28574,-56.5282,-0.00104373,-0.211024,-0.0131806,
2,1,0,1,1,46503.5,-0.00284713,-0.00321539,5.17404,24,-0.00395557,10,-1.66366e-05,-2.28617,-4.76732,-0.0123759,-2.4996,-0.00321539,
2,1,0,1,1,46503.5,-2.55332e-05,-0.000401673,5.20066,24,-0.00380996,10,-2.08896e-06,-2.28394, , , ,-0.000401673,