Folder: Figs_alphaMnO2_OER_Tafel_sleope/Figure_codes/Fig_3-5/rawdata_trumpetplot_data/after 10th (part 187)

File: 20221101_1-115_003_TrumpetPlot_ParaChange_from10_every3_12_CV_C01_26.csv
mode,ox/red,error,control changes,counter inc.,time/s,control/V,Ewe/V,<I>/mA,cycle number,(Q-Qo)/C,I Range,P/W,log(|I|),Tafel slope mV/dec,alpha_eff,dI/d(E-IR),E-IR/V,
2,1,0,1,0,52419.9,2.44065e-05,-0.000344411,14.5421,27,0.0000000E+000,10,-5.00844e-06,-1.83737, , , ,-0.000344411,
2,1,0,1,0,52419.9,0.0104008,0.0100179,17.6144,27,0.000279839,10,0.000176459,-1.75413,0.186765,0.315906,216.095,0.0100179,
2,1,0,1,0,52419.9,0.0212099,0.0208436,19.6371,27,0.000616093,10,0.000409307,-1.70692,0.273869,0.215432,164.703,0.0208436,
2,1,0,1,0,52420,0.0320052,0.0316247,21.2509,27,0.000984745,10,0.000672052,-1.67262,0.351599,0.167805,139.036,0.0316247,
2,1,0,1,0,52420,0.0428033,0.0424547,22.6679,27,0.0013805,10,0.000962358,-1.64459,0.421585,0.139948,123.753,0.0424547,
2,1,0,1,0,52420,0.0535986,0.0532347,23.9587,27,0.00180044,10,0.00127543,-1.62054,0.474648,0.124303,116.191,0.0532347,
2,1,0,1,0,52420,0.0644077,0.0640467,25.2175,27,0.00224321,10,0.00161509,-1.5983,0.505119,0.116804,114.909,0.0640467,
2,1,0,1,0,52420,0.075203,0.0748564,26.4702,27,0.00270843,10,0.00198146,-1.57724,0.513445,0.11491,118.682,0.07485643,
2,1,0,1,0,52420.1,0.0860011,0.0856609,27.7479,27,0.00319637,10,0.00237691,-1.55677,0.538668,0.109529,118.558,0.0856609,
2,1,0,1,0,52420.1,0.0968075,0.0964728,29.0568,27,0.00370759,10,0.00280319,-1.53675,0.550855,0.107106,121.404,0.09647283,
2,1,0,1,0,52420.1,0.107606,0.107243,30.4032,27,0.00424272,10,0.00326054,-1.51708,0.545138,0.108229,128.388,0.107243,
2,1,0,1,0,52420.1,0.118401,0.118009,31.7606,27,0.00480232,10,0.00374802,-1.49811,0.573043,0.102959,127.621,0.118009,
2,1,0,1,0,52420.1,0.129207,0.128837,33.2239,27,0.00538689,10,0.00428048,-1.47855,0.51959,0.113551,147.235,0.128837,
2,1,0,1,0,52420.1,0.140005,0.139598,34.8357,27,0.00599961,10,0.00486301,-1.45798,0.5247,0.112445,152.917,0.139598,
2,1,0,1,0,52420.2,0.150803,0.150436,36.5053,27,0.00664195,10,0.00549171,-1.43764,0.553193,0.106654,151.949,0.150436,
2,1,0,1,0,52420.2,0.161604,0.161219,38.1147,27,0.00731395,10,0.00614481,-1.41891,0.627688,0.0939958,139.747,0.161219,
2,1,0,1,0,52420.2,0.172405,0.172046,39.5407,27,0.00801336,10,0.00680282,-1.40296,0.771965,0.0764284,117.814,0.172046,
2,1,0,1,0,52420.2,0.183203,0.18283,40.6084,27,0.00873544,10,0.00742445,-1.39138,1.27036,0.0464436,73.4675,0.18283,
2,1,0,1,0,52420.2,0.194001,0.193643,41.0473,27,0.00947137,10,0.00794852,-1.38672,14.0478,0.00419996,6.71555,0.193643,
2,1,0,1,0,52420.3,0.204808,0.204437,40.7415,27,0.0102086,10,0.00832907,-1.38996,-1.46854,-0.040176,-63.7586,0.204437,
2,1,0,1,0,52420.3,0.215603,0.215245,39.6695,27,0.0109333,10,0.00853865,-1.40154,-0.705281,-0.0836546,-129.306,0.215245,
2,1,0,1,0,52420.3,0.226401,0.226102,37.9222,27,0.0116325,10,0.0085743,-1.42111,-0.472272,-0.124928,-184.712,0.2261022,
2,1,0,1,0,52420.3,0.237207,0.2369,35.7548,27,0.0122959,10,0.00847034,-1.44667,-0.38934,-0.151538,-211.337,0.2369,
2,1,0,1,0,52420.3,0.248005,0.247695,33.4297,27,0.0129184,10,0.00828037,-1.47587,-0.362705,-0.162667,-212.239,0.247695,
2,1,0,1,0,52420.3,0.258801,0.25847,31.1958,27,0.0134995,10,0.00806317,-1.5059,-0.361629,-0.163151,-198.751,0.25847,
2,1,0,1,0,52420.4,0.26961,0.269263,29.1976,27,0.0140424,10,0.00786183,-1.53465,-0.385377,-0.153097,-174.48,0.269263,
2,1,0,1,0,52420.4,0.280405,0.280108,27.4499,27,0.0145516,10,0.00768894,-1.56146,-0.426669,-0.138281,-148.205,0.280108,
2,1,0,1,0,52420.4,0.291203,0.290838,25.9656,27,0.0150318,10,0.00755178,-1.5856,-0.470218,-0.125474,-127.233,0.290838,
2,1,0,0,0,52420.4,0.300012,0.299651,24.9138,27,0.0154055,10,0.00746546,-1.60356,0.00300214,19.6527,17292.5,0.299651,
2,1,0,1,0,52420.4,0.290843,0.290577,14.1849,27,0.0156915,10,0.00412179,-1.84818,0.0391897,1.5055,839.25,0.290577,
2,1,0,1,0,52420.4,0.280047,0.279752,7.01084,27,0.0158771,10,0.0019613,-2.15423,0.0292891,2.0144,541.566,0.279752,
2,1,0,1,0,52420.5,0.269244,0.268931,2.02757,27,0.0159556,10,0.000545276,-2.69302,0.00823894,7.16111,394.4,0.268931,
2,0,0,1,0,52420.5,0.258443,0.258163,-1.62764,27,0.0159574,10,-0.000420195,-2.78844,-0.00697644,-8.45703,295.966,0.258163,
2,0,0,1,0,52420.5,0.247645,0.247336,-4.42604,27,0.0159015,10,-0.00109472,-2.35399,-0.0426525,-1.38327,231.222,0.247336,
2,0,0,1,0,52420.5,0.236849,0.236521,-6.63823,27,0.0158009,10,-0.00157008,-2.17795,-0.08239,-0.716106,183.639,0.236521,
2,0,0,1,0,52420.5,0.22604,0.225734,-8.44237,27,0.0156644,10,-0.00190573,-2.07354,-0.128481,-0.459213,150.492,0.225734,
2,0,0,1,0,52420.6,0.215245,0.214939,-9.93602,27,0.0154984,10,-0.00213564,-2.00279,-0.177561,-0.332279,128.558,0.2149393,
2,0,0,1,0,52420.6,0.204447,0.204122,-11.2334,27,0.0153074,10,-0.00229298,-1.94949,-0.232307,-0.253975,111.067,0.204122,
2,0,0,1,0,52420.6,0.19364,0.193296,-12.3776,27,0.0150948,10,-0.00239254,-1.90736,-0.285565,-0.206608,99.5329,0.193296,
2,0,0,1,0,52420.6,0.182842,0.182524,-13.3993,27,0.0148627,10,-0.00244569,-1.87292,-0.32667,-0.18061,94.3343,0.182524,
2,0,0,1,0,52420.6,0.172047,0.171672,-14.3952,27,0.0146125,10,-0.00247125,-1.84178,-0.35833,-0.164652,92.4584,0.171672,
2,0,0,1,0,52420.6,0.161241,0.160902,-15.4109,27,0.0143444,10,-0.00247965,-1.81217,-0.364162,-0.162016,97.4397,0.160902,
2,0,0,1,0,52420.7,0.150443,0.150116,-16.536,27,0.0140571,10,-0.00248231,-1.78157,-0.330756,-0.178379,115.228,0.150116,
2,0,0,1,0,52420.7,0.139645,0.139355,-17.941,27,0.0137472,10,-0.00250016,-1.74615,-0.276297,-0.213539,149.905,0.139355,
2,0,0,1,0,52420.7,0.128849,0.128571,-19.8362,27,0.0134079,10,-0.00255037,-1.70254,-0.225108,-0.262096,203.453,0.128571,
2,0,0,1,0,52420.7,0.118043,0.117706,-22.3309,27,0.0130289,10,-0.00262849,-1.65109,-0.202929,-0.290742,253.582,0.1177064,
2,0,0,1,0,52420.7,0.107245,0.106935,-25.2221,27,0.0126008,10,-0.00269712,-1.59822,-0.210823,-0.279856,275.349,0.106935,
2,0,0,1,0,52420.8,0.0964468,0.0961452,-28.1447,27,0.01212,10,-0.00270597,-1.5506,-0.247789,-0.238106,261.09,0.09614516,
2,0,0,1,0,52420.8,0.0856404,0.0853492,-30.8476,27,0.0115887,10,-0.00263282,-1.51078,-0.297071,-0.198605,238.57,0.0853492,
2,0,0,1,0,52420.8,0.0748451,0.0745765,-33.2183,27,0.0110112,10,-0.00247731,-1.47862,-0.383486,-0.153852,199.042,0.0745765,
2,0,0,1,0,52420.8,0.0640471,0.0638165,-35.0948,27,0.0103955,10,-0.00223963,-1.45476,-0.534314,-0.110422,150.993,0.06381654,
2,0,0,1,0,52420.8,0.0532407,0.0529474,-36.5186,27,0.00975037,10,-0.00193357,-1.43749,-0.751589,-0.0785003,111.712,0.0529474,
2,0,0,1,0,52420.8,0.0424426,0.0421535,-37.5085,27,0.00908348,10,-0.00158111,-1.42587,-1.14656,-0.0514584,75.245,0.0421535,
2,0,0,1,0,52420.9,0.0316473,0.0313289,-38.1288,27,0.00840215,10,-0.00119453,-1.41875,-1.91888,-0.0307472,45.7384,0.0313289,
2,0,0,1,0,52420.9,0.0208437,0.0205117,-38.4888,27,0.00771204,10,-0.000789468,-1.41467,-4.41498,-0.0133636,20.0685,0.0205117,
2,0,0,1,0,52420.9,0.0100429,0.00972415,-38.6143,27,0.0070177,10,-0.000375491,-1.41325,-343.515,-0.000171754,0.258691,0.00972415,
2,0,0,1,0,52420.9,-0.000755207,-0.0011079,-38.552,27,0.00632295,10,4.27119e-05,-1.41395,5.26061,0.0112154,-16.8575,-0.001107904,
2,0,0,1,0,52420.9,-0.0115505,-0.0119675,-38.2166,27,0.00563177,10,0.000457358,-1.41775,2.09545,0.0281562,-41.9703,-0.0119675,
2,0,0,1,0,52420.9,-0.0223597,-0.0226904,-37.6936,27,0.0049485,10,0.000855281,-1.42373,1.50246,0.0392688,-57.7228,-0.0226904,
2,0,0,1,0,52421,-0.033155,-0.0335139,-37.0201,27,0.00427612,10,0.00124069,-1.43156,1.38603,0.0425677,-61.4915,-0.0335139,
2,0,0,1,0,52421,-0.043953,-0.0443577,-36.3356,27,0.00361609,10,0.00161176,-1.43967,1.35475,0.0435506,-61.7583,-0.0443577,
2,0,0,1,0,52421,-0.0547594,-0.055107,-35.7209,27,0.00296796,10,0.00196847,-1.44708,1.56851,0.0376154,-52.4336,-0.055107,
2,0,0,1,0,52421,-0.0655575,-0.0659041,-35.2112,27,0.00232986,10,0.00232056,-1.45332,2.23762,0.0263672,-36.2603,-0.0659041,
2,0,0,1,0,52421,-0.0763528,-0.0767054,-34.8818,27,0.0016992,10,0.00267562,-1.4574,3.5272,0.0167271,-22.787,-0.0767054,
2,0,0,1,0,52421.1,-0.0871592,-0.0875353,-34.7297,27,0.00107293,10,0.00304008,-1.4593,9.63907,0.00612092,-8.30072,-0.0875353,
2,0,0,1,0,52421.1,-0.0979573,-0.0983207,-34.7288,27,0.000447988,10,0.00341456,-1.45931,19.4311,0.00303636,-4.11119,-0.0983207,
2,0,0,1,1,52421.1,-0.0955546,-0.0959984,-27.2923,27,9.76111e-05,10,0.00262002,-1.56396,-0.0465434,-1.26763,1373.22,-0.0959984,
2,0,0,1,1,52421.1,-0.0847538,-0.0851558,-16.567,27,-0.000288809,10,0.00141078,-1.78076,-0.0468923,-1.2582,812.114,-0.0851558,
2,0,0,1,1,52421.1,-0.0739557,-0.0743608,-8.96561,27,-0.000514878,10,0.00066669,-2.04742,-0.0325907,-1.81033,621.069,-0.0743608,
2,0,0,1,1,52421.1,-0.0631604,-0.0635903,-2.98528,27,-0.000619893,10,0.000189835,-2.52501,-0.0107367,-5.49519,496.95,-0.0635903,
2,1,0,1,1,52421.2,-0.0523512,-0.0528059,1.92502,27,-0.000627603,10,-0.000101653,-2.71556,0.0068634,8.59633,412.389,-0.0528059,
2,1,0,1,1,52421.2,-0.0415559,-0.0419919,5.99616,27,-0.000555016,10,-0.00025179,-2.22213,0.0379946,1.55285,349.721,-0.0419919,
2,1,0,1,1,52421.2,-0.0307579,-0.0312563,9.44366,27,-0.000414873,10,-0.000295174,-2.02486,0.0730718,0.807425,293.791,-0.0312563,
2,1,0,1,1,52421.2,-0.0199515,-0.0204105,12.3641,27,-0.000217628,10,-0.000252358,-1.90784,0.114474,0.515401,246.861,-0.0204105,
2,1,0,1,1,52421.2,-0.0091534,-0.00953496,14.8128,27,2.78071e-05,10,-0.000141239,-1.82936,0.162503,0.363069,208.973,-0.00953496,
2,1,0,0,1,52421.2,-7.54729e-05,-0.000382585,16.4921,27,0.000265142,10,-6.30965e-06,-1.78272, , , ,-0.000382585,

File: 20221101_1-115_003_TrumpetPlot_ParaChange_from10_every3_12_CV_C01_27.csv
mode,ox/red,error,control changes,counter inc.,time/s,control/V,Ewe/V,<I>/mA,cycle number,(Q-Qo)/C,I Range,P/W,log(|I|),Tafel slope mV/dec,alpha_eff,dI/d(E-IR),E-IR/V,
2,1,0,1,0,54390,2.44065e-05,-0.000344411,14.9122,28,0.0000000E+000,10,-5.13593e-06,-1.82646, , , ,-0.000344411,
2,1,0,1,0,54390.1,0.0104008,0.00997122,18.0844,28,0.000287426,10,0.000180324,-1.7427,0.190603,0.309545,217.391,0.00997122,
2,1,0,1,0,54390.1,0.0212099,0.0208075,20.1069,28,0.000632187,10,0.000418376,-1.69665,0.281923,0.209277,163.843,0.02080752,
2,1,0,1,0,54390.1,0.0320052,0.0316576,21.7199,28,0.00100927,10,0.000687598,-1.66314,0.359993,0.163892,138.749,0.0316576,
2,1,0,1,0,54390.1,0.0428033,0.0424377,23.1358,28,0.00141335,10,0.000981829,-1.63572,0.431407,0.136762,123.393,0.0424377,
2,1,0,1,0,54390.1,0.0535986,0.0531944,24.4274,28,0.00184158,10,0.0012994,-1.61212,0.482291,0.122333,116.576,0.0531944,
2,1,0,1,0,54390.1,0.0644077,0.0640573,25.6931,28,0.00229278,10,0.00164583,-1.59018,0.504263,0.117003,117.275,0.0640573,
2,1,0,1,0,54390.2,0.075203,0.0748225,26.9586,28,0.00276672,10,0.00201711,-1.5693,0.516819,0.11416,120.096,0.0748225,
2,1,0,1,0,54390.2,0.0860011,0.0856217,28.2507,28,0.00326366,10,0.00241888,-1.54897,0.536497,0.109973,121.253,0.0856217,
2,1,0,1,0,54390.2,0.0968075,0.0963943,29.5816,28,0.00378423,10,0.0028515,-1.52898,0.547759,0.107712,124.317,0.0963943,
2,1,0,1,0,54390.2,0.107606,0.107244,30.9418,28,0.00432898,10,0.00331833,-1.50946,0.54746,0.10777,130.145,0.107244,
2,1,0,1,0,54390.2,0.118401,0.117994,32.3384,28,0.00489862,10,0.00381573,-1.49028,0.577146,0.102227,128.995,0.117994,
2,1,0,1,0,54390.3,0.129207,0.12881,33.865,28,0.00549408,10,0.00436214,-1.47025,0.512066,0.115219,152.291,0.12881,
2,1,0,1,0,54390.3,0.140005,0.139633,35.5449,28,0.00611896,10,0.00496326,-1.44922,0.521278,0.113183,157.004,0.139633,
2,1,0,1,0,54390.3,0.150803,0.150435,37.2351,28,0.00677428,10,0.00560146,-1.42905,0.565343,0.104361,151.609,0.150435,
2,1,0,1,0,54390.3,0.161604,0.161223,38.7986,28,0.007459,10,0.00625524,-1.41118,0.66713,0.0884386,133.798,0.161223,
2,1,0,1,0,54390.3,0.172405,0.172019,40.1053,28,0.00816977,10,0.0068989,-1.3968,0.899287,0.0656076,102.546,0.172019,
2,1,0,1,0,54390.3,0.183203,0.182823,40.9302,28,0.0089001,10,0.00748297,-1.38796,2.0511,0.0287651,45.862,0.182823,
2,1,0,1,0,54390.4,0.194001,0.1936,41.0331,28,0.00963892,10,0.007944,-1.38687,-3.45226,-0.0170902,-27.315,0.1935997,
2,1,0,1,0,54390.4,0.204808,0.20442,40.3487,28,0.0103725,10,0.00824808,-1.39417,-0.954185,-0.0618328,-97.1835,0.20442,
2,1,0,1,0,54390.4,0.215603,0.215262,38.9347,28,0.0110869,10,0.00838114,-1.40966,-0.568996,-0.103691,-157.307,0.215262,
2,1,0,1,0,54390.4,0.226401,0.226074,36.938,28,0.0117702,10,0.0083507,-1.43253,-0.416352,-0.141707,-204.097,0.226074,
2,1,0,1,0,54390.4,0.237207,0.236891,34.6366,28,0.0124145,10,0.00820508,-1.46047,-0.366272,-0.161082,-217.647,0.236891,
2,1,0,1,0,54390.5,0.248005,0.247678,32.3067,28,0.0130166,10,0.00800167,-1.49071,-0.358027,-0.164792,-207.82,0.247678,
2,1,0,1,0,54390.5,0.258801,0.258455,30.1422,28,0.0135781,10,0.00779041,-1.52083,-0.367579,-0.16051,-188.979,0.258455,
2,1,0,1,0,54390.5,0.26961,0.269275,28.2493,28,0.014103,10,0.00760681,-1.54899,-0.39761,-0.148387,-163.672,0.269275,
2,1,0,1,0,54390.5,0.280405,0.280041,26.6257,28,0.0145963,10,0.00745628,-1.5747,-0.447261,-0.131914,-137.15,0.280041,
2,1,0,1,0,54390.5,0.291203,0.290836,25.2571,28,0.0150627,10,0.00734567,-1.59762,-0.495574,-0.119054,-117.434,0.2908358,
2,1,0,0,0,54390.5,0.300012,0.299517,24.2912,28,0.0154267,10,0.00727562,-1.61455,0.00268556,21.9693,18671.1,0.299517,
2,1,0,1,0,54390.6,0.290842,0.29054,13.2396,28,0.0156993,10,0.00384662,-1.87813,0.0363633,1.62252,844.648,0.29054,
2,1,0,1,0,54390.6,0.280047,0.279735,6.11163,28,0.0158682,10,0.00170964,-2.21384,0.0256413,2.30097,534.973,0.279735,
2,1,0,1,0,54390.6,0.269244,0.268914,1.23528,28,0.0159315,10,0.000332185,-2.90823,0.0114663,5.14552,383.796,0.268914,
2,0,0,1,0,54390.6,0.258443,0.258146,-2.3101,28,0.01592,10,-0.000596342,-2.63637,-0.0153372,-3.84685,286.304,0.258146,
2,0,0,1,0,54390.6,0.247645,0.247309,-5.0009,28,0.0158527,10,-0.00123677,-2.30095,-0.0507862,-1.16173,221.585,0.2473093,
2,0,0,1,0,54390.6,0.236849,0.236525,-7.13394,28,0.0157424,10,-0.00168736,-2.14667,-0.0916739,-0.643586,177.574,0.236525,
2,0,0,1,0,54390.7,0.22604,0.225716,-8.86967,28,0.0155977,10,-0.00200203,-2.05209,-0.141028,-0.418356,144.032,0.225716,
2,0,0,1,0,54390.7,0.215245,0.214919,-10.305,28,0.0154246,10,-0.00221474,-1.98695,-0.191507,-0.308083,123.633,0.214919,
2,0,0,1,0,54390.7,0.204447,0.204069,-11.5556,28,0.0152275,10,-0.00235815,-1.93721,-0.245229,-0.240591,108.235,0.204069,
2,0,0,1,0,54390.7,0.19364,0.193252,-12.6607,28,0.0150095,10,-0.00244671,-1.89754,-0.303901,-0.194142,95.676,0.193252,
2,0,0,1,0,54390.7,0.182842,0.182559,-13.6533,28,0.0147726,10,-0.00249252,-1.86476,-0.340043,-0.173508,92.37,0.182559,
2,0,0,1,0,54390.8,0.172047,0.17171,-14.6303,28,0.0145179,10,-0.00251216,-1.83475,-0.367834,-0.160399,91.5799,0.17171,
2,0,0,1,0,54390.8,0.161241,0.160898,-15.6494,28,0.0142455,10,-0.00251795,-1.8055,-0.36776,-0.160431,97.9882,0.160898,
2,0,0,1,0,54390.8,0.150443,0.150088,-16.789,28,0.0139538,10,-0.00251983,-1.77497,-0.327667,-0.180061,118.163,0.150088,
2,0,0,1,0,54390.8,0.139645,0.139317,-18.2456,28,0.0136389,10,-0.00254194,-1.73884,-0.268575,-0.219678,156.894,0.139317,
2,0,0,1,0,54390.8,0.128849,0.1285,-20.2391,28,0.0132931,10,-0.00260072,-1.69381,-0.219449,-0.268855,212.976,0.1285,
2,0,0,1,0,54390.8,0.118043,0.11773,-22.8644,28,0.0129058,10,-0.00269182,-1.64084,-0.198819,-0.296753,264.922,0.11773,
2,0,0,1,0,54390.9,0.107245,0.10694,-25.8614,28,0.012467,10,-0.00276562,-1.58735,-0.20982,-0.281194,283.638,0.1069401,
2,0,0,1,0,54390.9,0.0964468,0.0961091,-28.8475,28,0.011974,10,-0.00277251,-1.53989,-0.252156,-0.233982,262.976,0.0961091,
2,0,0,1,0,54390.9,0.0856404,0.0853089,-31.6033,28,0.0114295,10,-0.00269604,-1.50027,-0.304843,-0.193542,238.147,0.0853089,
2,0,0,1,0,54390.9,0.0748451,0.0745479,-33.9205,28,0.0108389,10,-0.0025287,-1.46954,-0.407477,-0.144793,191.28,0.0745479,
2,0,0,1,0,54390.9,0.0640471,0.0637688,-35.7144,28,0.0102113,10,-0.00227746,-1.44716,-0.56713,-0.104033,144.77,0.0637688,
2,0,0,1,0,54391,0.0532407,0.0528785,-37.0446,28,0.00955583,10,-0.00195886,-1.43128,-0.848483,-0.0695358,100.365,0.0528785,
2,0,0,1,0,54391,0.0424426,0.0421079,-37.909,28,0.00888065,10,-0.00159627,-1.42126,-1.33225,-0.044286,65.4617,0.0421079,
2,0,0,1,0,54391,0.0316473,0.0313172,-38.4296,28,0.00819298,10,-0.00120351,-1.41533,-2.4306,-0.0242739,36.399,0.0313172,
2,0,0,1,0,54391,0.0208437,0.0204958,-38.7001,28,0.00749834,10,-0.000793187,-1.41229,-8.30687,-0.00710256,10.7212,0.0204958,
2,0,0,1,0,54391,0.0100429,0.0096934,-38.715,28,0.00680121,10,-0.00037528,-1.41212,9.51242,0.00620242,-9.3665,0.0096934,
2,0,0,1,0,54391,-0.000755208,-0.00113123,-38.5461,28,0.00610558,10,4.36046e-05,-1.41402,3.35842,0.0175678,-26.4029,-0.00113123,
2,0,0,1,0,54391.1,-0.0115505,-0.0119824,-38.1124,28,0.00541541,10,0.000456678,-1.41893,1.74312,0.0338473,-50.32,-0.0119824,
2,0,0,1,0,54391.1,-0.0223597,-0.022754,-37.5011,28,0.00473482,10,0.000853299,-1.42596,1.39508,0.0422914,-61.8602,-0.022754,
2,0,0,1,0,54391.1,-0.033155,-0.0335404,-36.7834,28,0.00406627,10,0.00123373,-1.43435,1.32152,0.0446456,-64.0931,-0.03354045,
2,0,0,1,0,54391.1,-0.043953,-0.0443608,-36.0881,28,0.00341058,10,0.0016009,-1.44264,1.3363,0.0441518,-62.195,-0.0443608,
2,0,0,1,0,54391.1,-0.0547594,-0.05516,-35.4994,28,0.00276666,10,0.00195815,-1.44978,1.65479,0.0356541,-49.3902,-0.05516,
2,0,0,1,0,54391.2,-0.0655575,-0.065974,-35.0373,28,0.00213223,10,0.00231155,-1.45547,2.53719,0.0232541,-31.811,-0.065974,
2,0,0,1,0,54391.2,-0.0763528,-0.0767234,-34.7464,28,0.00150442,10,0.00266586,-1.45909,4.64475,0.0127025,-17.2381,-0.0767234,
2,0,0,1,0,54391.2,-0.0871592,-0.0875618,-34.6468,28,0.000880131,10,0.00303373,-1.46034,23.0403,0.00256073,-3.46431,-0.0875618,
2,0,0,1,0,54391.2,-0.0979573,-0.0983801,-34.693,28,0.000256223,10,0.0034131,-1.45976,-61.8448,-0.000954002,1.29041,-0.0983801,
2,0,0,1,1,54391.2,-0.0955546,-0.0960631,-26.7693,28,-9.16156e-05,10,0.00257155,-1.57236,-0.0432776,-1.36329,1453.12,-0.0960631,
2,0,0,1,1,54391.2,-0.0847538,-0.0851791,-15.6793,28,-0.000464658,10,0.00133555,-1.80467,-0.0435007,-1.3563,827.778,-0.08517909,
2,0,0,1,1,54391.3,-0.0739557,-0.0743884,-7.95223,28,-0.000673384,10,0.000591554,-2.09951,-0.0284248,-2.07565,625.968,-0.0743884,
2,0,0,1,1,54391.3,-0.0631604,-0.0636157,-1.93495,28,-0.00075972,10,0.000123093,-2.71333,-0.00882855,-6.68287,501.4,-0.06361571,
2,1,0,1,1,54391.3,-0.0523512,-0.0527571,2.97395,28,-0.000748443,10,-0.000156897,-2.52667,0.0131359,4.49152,411.852,-0.0527571,
2,1,0,1,1,54391.3,-0.0415559,-0.0420258,7.0195,28,-0.000657217,10,-0.000295,-2.15369,0.0455931,1.29406,344.396,-0.0420258,
2,1,0,1,1,54391.3,-0.0307579,-0.03118,10.4365,28,-0.000498944,10,-0.000325409,-1.98145,0.0823785,0.716207,288.28,-0.03118,
2,1,0,1,1,54391.3,-0.0199515,-0.0204094,13.2965,28,-0.000284409,10,-0.000271374,-1.87626,0.125647,0.46957,241.96,-0.0204094,
2,1,0,1,1,54391.4,-0.0091534,-0.00954768,15.6813,28,-2.27992e-05,10,-0.00014972,-1.80462,0.177666,0.332083,202.4,-0.00954768,
2,1,0,0,1,54391.4,-7.54729e-05,-0.000401673,17.3145,28,0.000227205,10,-6.95477e-06,-1.76159, , , ,-0.000401673,