Folder: Figs_alphaMnO2_OER_Tafel_sleope/Figure_codes/Fig_3-5/rawdata_trumpetplot_data/after 10th (part 164)

File: 20221101_1-115_003_TrumpetPlot_ParaChange_from10_every3_11_CV_C01_14.csv
mode,ox/red,error,control changes,counter inc.,time/s,control/V,Ewe/V,<I>/mA,cycle number,(Q-Qo)/C,I Range,P/W,log(|I|),Tafel slope mV/dec,alpha_eff,dI/d(E-IR),E-IR/V,
2,1,0,1,0,28776.3,2.44065e-05,-0.000363498,9.48433,15,0.0000000E+000,10,-3.44754e-06,-2.02299, , , ,-0.000363498,
2,1,0,1,0,28776.4,0.0101427,0.0098005,12.9157,15,0.000289063,10,0.000126581,-1.88888,0.128023,0.460855,231.002,0.0098005,
2,1,0,1,0,28776.4,0.0205441,0.0202614,14.8759,15,0.000652101,10,0.000301407,-1.82752,0.218785,0.269671,156.214,0.0202614,
2,1,0,1,0,28776.4,0.0309482,0.0306099,16.3149,15,0.00105838,10,0.000499399,-1.78741,0.301499,0.195689,124.458,0.0306099,
2,1,0,1,0,28776.4,0.0413439,0.041039,17.5152,15,0.00149847,10,0.000718808,-1.75658,0.372618,0.158339,108.115,0.041039,
2,1,0,1,0,28776.5,0.0517425,0.0513769,18.6181,15,0.00196829,10,0.000956541,-1.73006,0.404262,0.145945,106.028,0.0513769,
2,1,0,1,0,28776.5,0.0621438,0.061806,19.7143,15,0.00246671,10,0.00121846,-1.70522,0.425507,0.138658,106.709,0.061806,
2,1,0,1,0,28776.5,0.0725479,0.0721991,20.8485,15,0.00299405,10,0.00150524,-1.68092,0.431102,0.136858,111.321,0.0721991,
2,1,0,1,0,28776.6,0.0829437,0.08259,22.0103,15,0.00355121,10,0.00181783,-1.65737,0.459197,0.128485,110.325,0.08259,
2,1,0,1,0,28776.6,0.0933422,0.0929735,23.1455,15,0.00413854,10,0.00215192,-1.63553,0.488263,0.120836,109.201,0.0929735,
2,1,0,1,0,28776.6,0.103749,0.103389,24.3094,15,0.00475556,10,0.00251332,-1.61423,0.50543,0.116732,110.744,0.103389,
2,1,0,1,0,28776.6,0.114148,0.113812,25.4619,15,0.00540259,10,0.00289786,-1.59411,0.511519,0.115343,114.586,0.113812,
2,1,0,1,0,28776.7,0.124543,0.124202,26.7151,15,0.00608062,10,0.00331808,-1.57324,0.483232,0.122094,127.31,0.124202,
2,1,0,1,0,28776.7,0.134942,0.134588,28.1522,15,0.00679377,10,0.00378894,-1.55049,0.444919,0.132609,145.781,0.134588,
2,1,0,1,0,28776.7,0.145349,0.145015,29.7144,15,0.00754602,10,0.00430903,-1.52703,0.462696,0.127514,147.762,0.145015,
2,1,0,1,0,28776.7,0.155747,0.155448,31.1739,15,0.00833778,10,0.00484593,-1.50621,0.541015,0.109054,132.547,0.155448,
2,1,0,1,0,28776.8,0.166143,0.16577,32.3545,15,0.00916459,10,0.00536342,-1.49007,0.806353,0.073169,92.3566,0.16577,
2,1,0,1,0,28776.8,0.176542,0.176219,32.9663,15,0.0100158,10,0.00580927,-1.48193,6.23626,0.0094608,12.153,0.176219,
2,1,0,1,0,28776.8,0.186949,0.186596,32.4813,15,0.0108692,10,0.00606088,-1.48837,-0.66545,-0.0886618,-112.114,0.186596,
2,1,0,1,0,28776.8,0.197347,0.197023,30.6197,15,0.0116921,10,0.00603277,-1.514,-0.30135,-0.195785,-233.539,0.197023,
2,1,0,1,0,28776.9,0.207743,0.207418,27.7661,15,0.0124522,10,0.00575918,-1.55649,-0.215578,-0.273683,-296.363,0.207418,
2,1,0,1,0,28776.9,0.218141,0.217823,24.7137,15,0.0131338,10,0.00538319,-1.60706,-0.205658,-0.286884,-276.885,0.217823,
2,1,0,1,0,28776.9,0.228548,0.228246,22.1048,15,0.0137409,10,0.00504533,-1.65551,-0.226428,-0.260568,-224.891,0.228246,
2,1,0,1,0,28776.9,0.238947,0.238617,20.0764,15,0.0142877,10,0.00479058,-1.69731,-0.276177,-0.213631,-167.534,0.238617,
2,1,0,1,0,28777,0.249343,0.249032,18.5656,15,0.0147889,10,0.00462344,-1.73129,-0.344368,-0.171328,-124.286,0.249032,
2,1,0,1,0,28777,0.259741,0.259452,17.4477,15,0.0152563,10,0.00452684,-1.75826,-0.424796,-0.13889,-94.5846,0.259452,
2,1,0,1,0,28777,0.270148,0.269797,16.5819,15,0.0156981,10,0.00447376,-1.78037,-0.531819,-0.11094,-71.8534,0.269797,
2,1,0,1,0,28777,0.280547,0.280205,15.9067,15,0.0161202,10,0.00445713,-1.79842,-0.652793,-0.0903808,-56.148,0.280205,
2,1,0,1,0,28777.1,0.290942,0.290619,15.3677,15,0.0165265,10,0.00446614,-1.81339,-0.739561,-0.0797771,-47.839,0.290619,
2,1,0,0,0,28777.1,0.300012,0.299785,14.9727,15,0.0168707,10,0.00448857,-1.8247,0.00149429,39.4837,20280,0.299785,
2,1,0,1,0,28777.1,0.290704,0.290399,4.81413,15,0.0170784,10,0.00139802,-2.31748,0.0161125,3.66174,678.26,0.2903989,
2,0,0,1,0,28777.1,0.280305,0.280021,-0.244021,15,0.0171305,10,-6.83308e-05,-3.61257,-0.0553051,-1.06681,354.441,0.280021,
2,0,0,1,0,28777.2,0.269909,0.269577,-3.11574,15,0.0170835,10,-0.000839931,-2.50644,-0.0318625,-1.85171,218.078,0.269577,
2,0,0,1,0,28777.2,0.2595,0.259181,-4.95681,15,0.0169768,10,-0.00128471,-2.3048,-0.0765148,-0.771093,147.95,0.259181,
2,0,0,1,0,28777.2,0.249104,0.248763,-6.25251,15,0.0168301,10,-0.00155539,-2.20395,-0.13584,-0.434334,105.463,0.2487631,
2,0,0,1,0,28777.2,0.238705,0.238364,-7.22048,15,0.0166544,10,-0.0017211,-2.14143,-0.200772,-0.293866,82.7299,0.238364,
2,0,0,1,0,28777.3,0.22831,0.228018,-7.99439,15,0.016456,10,-0.00182287,-2.09721,-0.267497,-0.220563,68.8884,0.228018,
2,0,0,1,0,28777.3,0.2179,0.217593,-8.68674,15,0.0162388,10,-0.00189018,-2.06114,-0.329257,-0.179191,60.5877,0.217593,
2,0,0,1,0,28777.3,0.207504,0.207218,-9.27157,15,0.0160053,10,-0.00192124,-2.03285,-0.400748,-0.147225,53.2802,0.2072185,
2,0,0,1,0,28777.4,0.197106,0.196777,-9.82121,15,0.0157569,10,-0.00193259,-2.00783,-0.436856,-0.135056,51.8402,0.196777,
2,0,0,1,0,28777.4,0.18671,0.18638,-10.3802,15,0.0154942,10,-0.00193467,-1.98379,-0.438873,-0.134435,54.4195,0.18638,
2,0,0,1,0,28777.4,0.1763,0.17595,-10.9592,15,0.015217,10,-0.00192828,-1.96022,-0.437318,-0.134913,57.6702,0.17595,
2,0,0,1,0,28777.4,0.165905,0.165578,-11.6002,15,0.014924,10,-0.00192074,-1.93554,-0.386318,-0.152724,69.201,0.165578,
2,0,0,1,0,28777.5,0.155506,0.1552,-12.427,15,0.014612,10,-0.00192867,-1.90563,-0.306634,-0.192412,93.3973,0.1552,
2,0,0,1,0,28777.5,0.145105,0.144793,-13.5718,15,0.0142749,10,-0.00196511,-1.86736,-0.231143,-0.255253,135.358,0.144793,
2,0,0,1,0,28777.5,0.134701,0.13441,-15.2697,15,0.0139013,10,-0.0020524,-1.81617,-0.177869,-0.331706,198.013,0.13441,
2,0,0,1,0,28777.5,0.124305,0.123963,-17.6757,15,0.0134741,10,-0.00219113,-1.75262,-0.155712,-0.378905,261.657,0.1239628,
2,0,0,1,0,28777.6,0.113906,0.113627,-20.5143,15,0.0129776,10,-0.00233097,-1.68794,-0.169966,-0.347129,277.824,0.113627,
2,0,0,1,0,28777.6,0.103505,0.103229,-23.2987,15,0.0124072,10,-0.0024051,-1.63267,-0.206209,-0.286118,260.041,0.103229,
2,0,0,1,0,28777.6,0.0931008,0.0928367,-25.8188,15,0.0117674,10,-0.00239693,-1.58806,-0.267782,-0.220329,221.808,0.0928367,
2,0,0,1,0,28777.6,0.0827051,0.0824267,-27.8541,15,0.0110683,10,-0.00229592,-1.55511,-0.381632,-0.154599,167.81,0.0824267,
2,0,0,1,0,28777.7,0.0723065,0.0720124,-29.302,15,0.010324,10,-0.0021101,-1.5331,-0.623781,-0.0945845,107.992,0.0720124,
2,0,0,1,0,28777.7,0.0618996,0.0615791,-30.0715,15,0.00955062,10,-0.00185178,-1.52184,-1.57349,-0.0374962,43.9728,0.0615791,
2,0,0,1,0,28777.7,0.0515011,0.0511988,-30.2818,15,0.00876505,10,-0.00155039,-1.51882,-27.9827,-0.00210845,2.4901,0.0511988,
2,0,0,1,0,28777.7,0.0411053,0.0407665,-30.1491,15,0.00797901,10,-0.00122907,-1.52073,3.07767,0.0191703,-22.5495,0.0407665,
2,0,0,1,0,28777.8,0.0307068,0.0303713,-29.848,15,0.00719864,10,-0.000906524,-1.52508,2.06189,0.0286146,-33.3501,0.0303713,
2,0,0,1,0,28777.8,0.0202999,0.0199963,-29.4794,15,0.00642712,10,-0.00058948,-1.53048,1.59977,0.0368803,-42.4105,0.0199963,
2,0,0,1,0,28777.8,0.00990136,0.00957251,-28.965,15,0.00566716,10,-0.000277268,-1.53813,1.17151,0.0503624,-56.9047,0.00957251,
2,0,0,1,0,28777.8,-0.000494411,-0.000873554,-28.2859,15,0.00492269,10,2.47093e-05,-1.54843,0.837336,0.0704616,-77.6742,-0.000873554,
2,0,0,1,0,28777.9,-0.010893,-0.0112698,-27.3389,15,0.00419935,10,0.000308103,-1.56322,0.660984,0.0892608,-95.242,-0.0112698,
2,0,0,1,0,28777.9,-0.0212998,-0.0216745,-26.3187,15,0.00350191,10,0.000570444,-1.57974,0.638184,0.0924499,-94.9559,-0.0216745,
2,0,0,1,0,28777.9,-0.0316984,-0.0320909,-25.4057,15,0.00283017,10,0.00081529,-1.59507,0.741523,0.079566,-78.8654,-0.0320909,
2,0,0,1,0,28778,-0.0420942,-0.04245,-24.6947,15,0.00217954,10,0.00104829,-1.6074,1.02291,0.0576787,-55.6438,-0.04245,
2,0,0,1,0,28778,-0.0524927,-0.0528706,-24.2771,15,0.0015434,10,0.00128354,-1.6148,2.10832,0.0279844,-26.5349,-0.0528706,
2,0,0,1,0,28778,-0.0628996,-0.0632159,-24.1126,15,0.00091498,10,0.0015243,-1.61776,9.15205,0.00644665,-6.06332,-0.0632159,
2,0,0,1,0,28778,-0.0732982,-0.0736684,-24.1162,15,0.000288519,10,0.0017766,-1.61769,-4.60039,-0.012825,12.0782,-0.0736684,
2,0,0,1,0,28778.1,-0.0836939,-0.0840604,-24.3196,15,-0.000340902,10,0.00204432,-1.61404,-2.10033,-0.0280909,26.6746,-0.0840604,
2,0,0,1,0,28778.1,-0.0940925,-0.0944767,-24.6835,15,-0.000977622,10,0.00233202,-1.60759,-1.34775,-0.0437767,42.165,-0.0944767,
2,0,0,1,1,28778.1,-0.0978574,-0.0982719,-20.8544,15,-0.00147186,10,0.0020494,-1.6808,-0.0301366,-1.95775,1565.84,-0.0982719,
2,0,0,1,1,28778.1,-0.0874588,-0.0878375,-9.75185,15,-0.00185391,10,0.000856578,-2.01091,-0.0273279,-2.15896,815.664,-0.08783754,
2,0,0,1,1,28778.2,-0.077052,-0.077418,-2.70691,15,-0.00200979,10,0.000209564,-2.56753,-0.00948935,-6.2175,569.358,-0.077418,
2,1,0,1,1,28778.2,-0.0666562,-0.0670801,2.41618,15,-0.00200991,10,-0.000162078,-2.61687,0.0112284,5.25451,423.725,-0.0670801,
2,1,0,1,1,28778.2,-0.0562576,-0.0567103,6.30022,15,-0.00189406,10,-0.000357287,-2.20064,0.0430269,1.37123,332.513,-0.0567103,
2,1,0,1,1,28778.2,-0.0458563,-0.0462749,9.34264,15,-0.0016887,10,-0.000432329,-2.02953,0.0828267,0.712331,257.945,-0.0462749,
2,1,0,1,1,28778.3,-0.0354522,-0.035814,11.6866,15,-0.00141384,10,-0.000418545,-1.93231,0.135606,0.435083,197.601,-0.035814,
2,1,0,1,1,28778.3,-0.0250564,-0.0254591,13.4637,15,-0.00108558,10,-0.000342773,-1.87084,0.208666,0.282748,148.485,-0.0254591,
2,1,0,1,1,28778.3,-0.0146579,-0.0150523,14.8386,15,-0.000716613,10,-0.000223355,-1.82861,0.297629,0.198234,114.62,-0.0150523,
2,1,0,1,1,28778.3,-0.00425653,-0.00462103,15.8608,15,-0.000316873,10,-7.32933e-05,-1.79967,0.4395,0.134243,82.9923,-0.00462103,
2,1,0,0,1,28778.3,-7.54729e-05,-0.000458935,16.1652,15,-0.000148556,10,-7.41878e-06,-1.79142, , , ,-0.000458935,

File: 20221101_1-115_003_TrumpetPlot_ParaChange_from10_every3_11_CV_C01_15.csv
mode,ox/red,error,control changes,counter inc.,time/s,control/V,Ewe/V,<I>/mA,cycle number,(Q-Qo)/C,I Range,P/W,log(|I|),Tafel slope mV/dec,alpha_eff,dI/d(E-IR),E-IR/V,
2,1,0,1,0,30746.5,2.44065e-05,-0.000478022,9.69422,16,0.0000000E+000,10,-4.63405e-06,-2.01349, , , ,-0.000478022,
2,1,0,1,0,30746.5,0.0101427,0.00983761,13.182,16,0.00029533,10,0.00012968,-1.88002,0.130127,0.453403,231.907,0.00983761,
2,1,0,1,0,30746.5,0.0205441,0.0201914,15.1579,16,0.000665415,10,0.000306059,-1.81936,0.221418,0.266464,157.263,0.02019142,
2,1,0,1,0,30746.6,0.0309482,0.0305696,16.605,16,0.00107914,10,0.000507609,-1.77976,0.306227,0.192668,124.733,0.0305696,
2,1,0,1,0,30746.6,0.0413439,0.0409754,17.8116,16,0.00152697,10,0.000729836,-1.7493,0.374932,0.157362,109.327,0.0409754,
2,1,0,1,0,30746.6,0.0517425,0.0513568,18.932,16,0.00200485,10,0.000972287,-1.7228,0.407893,0.144646,106.881,0.0513568,
2,1,0,1,0,30746.6,0.0621438,0.0618081,20.0362,16,0.00251157,10,0.0012384,-1.69818,0.4272,0.138109,108.01,0.0618081,
2,1,0,1,0,30746.7,0.0725479,0.0721969,21.1722,16,0.00304738,10,0.00152857,-1.67423,0.436308,0.135226,111.722,0.0721969,
2,1,0,1,0,30746.7,0.0829437,0.0825942,22.3404,16,0.0036132,10,0.00184519,-1.65091,0.462263,0.127633,111.266,0.0825942,
2,1,0,1,0,30746.7,0.0933422,0.0929746,23.4804,16,0.0042092,10,0.00218308,-1.62929,0.487003,0.121149,111.111,0.0929746,
2,1,0,1,0,30746.7,0.103749,0.103429,24.6684,16,0.00483541,10,0.00255143,-1.60786,0.512847,0.115044,110.765,0.103429,
2,1,0,1,0,30746.8,0.114148,0.113826,25.8286,16,0.00549186,10,0.00293997,-1.5879,0.514165,0.114749,115.647,0.113826,
2,1,0,1,0,30746.8,0.124543,0.124185,27.1037,16,0.00617967,10,0.00336589,-1.56697,0.484008,0.121899,128.936,0.124185,
2,1,0,1,0,30746.8,0.134942,0.134619,28.5489,16,0.006903,10,0.00384322,-1.54441,0.454039,0.129945,144.858,0.134619,
2,1,0,1,0,30746.8,0.145349,0.14503,30.1102,16,0.00766556,10,0.00436688,-1.52129,0.473387,0.124634,146.322,0.14503,
2,1,0,1,0,30746.9,0.155747,0.155387,31.5421,16,0.00846734,10,0.00490123,-1.50111,0.561856,0.105009,129.156,0.155387,
2,1,0,1,0,30746.9,0.166143,0.165823,32.6914,16,0.00930335,10,0.00542099,-1.48557,0.863254,0.0683461,87.1429,0.1658234,
2,1,0,1,0,30746.9,0.176542,0.176199,33.2401,16,0.0101625,10,0.00585689,-1.47834,12.0157,0.00491024,6.36064,0.176199,
2,1,0,1,0,30746.9,0.186949,0.186609,32.7095,16,0.0110225,10,0.0061039,-1.48533,-0.660956,-0.0892646,-113.699,0.186609,
2,1,0,1,0,30747,0.197347,0.197049,30.8871,16,0.0118517,10,0.00608628,-1.51022,-0.310013,-0.190314,-229.034,0.197049,
2,1,0,1,0,30747,0.207743,0.207412,28.1282,16,0.0126199,10,0.0058341,-1.55086,-0.227472,-0.259372,-284.508,0.207412,
2,1,0,1,0,30747,0.218141,0.217858,25.1709,16,0.0133122,10,0.00548366,-1.5991,-0.214356,-0.275243,-270.482,0.217858,
2,1,0,1,0,30747,0.228548,0.228229,22.6054,16,0.0139318,10,0.00515921,-1.64579,-0.232577,-0.253679,-223.898,0.228229,
2,1,0,1,0,30747.1,0.238947,0.23864,20.5696,16,0.0144916,10,0.00490875,-1.68677,-0.283561,-0.208068,-167.164,0.23864,
2,1,0,1,0,30747.1,0.249343,0.249049,19.025,16,0.0150053,10,0.00473816,-1.72068,-0.338455,-0.174322,-129.578,0.249049,
2,1,0,1,0,30747.1,0.259741,0.25947,17.8602,16,0.015484,10,0.0046342,-1.74811,-0.416743,-0.141574,-98.7002,0.25947,
2,1,0,1,0,30747.2,0.270148,0.269823,16.9472,16,0.0159359,10,0.00457275,-1.7709,-0.507719,-0.116206,-76.9217,0.269823,
2,1,0,1,0,30747.2,0.280547,0.280196,16.2299,16,0.0163669,10,0.00454756,-1.78968,-0.610287,-0.0966758,-61.2843,0.280196,
2,1,0,1,0,30747.2,0.290942,0.290614,15.6561,16,0.0167812,10,0.0045499,-1.80532,-0.71973,-0.0819752,-50.0736,0.290614,
2,1,0,0,0,30747.2,0.300012,0.299804,15.2175,16,0.0171315,10,0.00456227,-1.81766,0.00148632,39.6954,20747.7,0.299804,
2,1,0,1,0,30747.2,0.290704,0.290385,4.97879,16,0.0173437,10,0.00144577,-2.30288,0.0165871,3.55699,681.215,0.290385,
2,0,0,1,0,30747.3,0.280305,0.280056,-0.155824,16,0.0173991,10,-4.36394e-05,-3.80737,-0.150023,-0.393274,362.144,0.280056,
2,0,0,1,0,30747.3,0.269909,0.269602,-3.09634,16,0.0173535,10,-0.00083478,-2.50915,-0.0308218,-1.91423,223.545,0.269602,
2,0,0,1,0,30747.3,0.2595,0.259232,-4.9979,16,0.0172465,10,-0.00129562,-2.30121,-0.0751994,-0.784581,151.887,0.259232,
2,0,0,1,0,30747.4,0.249104,0.248756,-6.34381,16,0.017098,10,-0.00157806,-2.19765,-0.132397,-0.445631,109.849,0.248756,
2,0,0,1,0,30747.4,0.238705,0.238392,-7.35168,16,0.0169194,10,-0.00175258,-2.13361,-0.196423,-0.300372,86.09,0.238392,
2,0,0,1,0,30747.4,0.22831,0.22797,-8.16534,16,0.0167172,10,-0.00186145,-2.08803,-0.261513,-0.22561,71.9478,0.22797,
2,0,0,1,0,30747.4,0.2179,0.217622,-8.87197,16,0.0164954,10,-0.00193074,-2.05198,-0.328146,-0.179798,62.1174,0.217622,
2,0,0,1,0,30747.5,0.207504,0.207164,-9.47475,16,0.0162568,10,-0.00196283,-2.02343,-0.390334,-0.151153,55.936,0.207164,
2,0,0,1,0,30747.5,0.197106,0.196795,-10.0397,16,0.0160028,10,-0.00197576,-1.99828,-0.429848,-0.137258,53.8703,0.1967947,
2,0,0,1,0,30747.5,0.18671,0.186424,-10.6035,16,0.0157343,10,-0.00197674,-1.97455,-0.436566,-0.135146,55.929,0.186424,
2,0,0,1,0,30747.5,0.1763,0.176001,-11.2018,16,0.0154509,10,-0.00197153,-1.95071,-0.4344,-0.13582,59.3379,0.176001,
2,0,0,1,0,30747.6,0.165905,0.165584,-11.858,16,0.0151514,10,-0.0019635,-1.92599,-0.398815,-0.147938,68.4941,0.165584,
2,0,0,1,0,30747.6,0.155506,0.155165,-12.6873,16,0.0148327,10,-0.00196864,-1.89663,-0.308751,-0.191092,94.7383,0.155165,
2,0,0,1,0,30747.6,0.145105,0.144775,-13.8505,16,0.0144885,10,-0.00200521,-1.85854,-0.235526,-0.250503,135.614,0.144775,
2,0,0,1,0,30747.6,0.134701,0.134355,-15.567,16,0.0141073,10,-0.0020915,-1.80779,-0.180998,-0.325971,198.39,0.134355,
2,0,0,1,0,30747.7,0.124305,0.124016,-17.9808,16,0.0136723,10,-0.0022299,-1.74519,-0.159968,-0.368825,259.06,0.124016,
2,0,0,1,0,30747.7,0.113906,0.113612,-20.8232,16,0.0131677,10,-0.00236576,-1.68145,-0.174125,-0.338836,275.303,0.113612,
2,0,0,1,0,30747.7,0.103505,0.10323,-23.6177,16,0.0125892,10,-0.00243805,-1.62676,-0.209708,-0.281344,259.185,0.10323,
2,0,0,1,0,30747.7,0.0931008,0.0928176,-26.1427,16,0.0119412,10,-0.00242651,-1.58265,-0.269888,-0.218609,222.765,0.0928176,
2,0,0,1,0,30747.8,0.0827051,0.0823896,-28.1603,16,0.0112339,10,-0.00232012,-1.55036,-0.387413,-0.152292,167.146,0.0823896,
2,0,0,1,0,30747.8,0.0723065,0.0720008,-29.6028,16,0.0104817,10,-0.00213143,-1.52867,-0.634436,-0.092996,107.276,0.0720008,
2,0,0,1,0,30747.8,0.0618997,0.0615961,-30.3754,16,0.00970051,10,-0.001871,-1.51748,-1.55507,-0.0379404,44.9524,0.0615961,
2,0,0,1,0,30747.8,0.0515011,0.0511807,-30.6134,16,0.00890675,10,-0.00156682,-1.51409,-15.4808,-0.00381117,4.54899,0.0511807,
2,0,0,1,0,30747.9,0.0411053,0.0407824,-30.5097,16,0.00811176,10,-0.00124426,-1.51556,3.56954,0.0165287,-19.6725,0.0407824,
2,0,0,1,0,30747.9,0.0307068,0.030401,-30.2287,16,0.00732177,10,-0.000918984,-1.51958,2.12508,0.0277637,-32.768,0.030401,
2,0,0,1,0,30747.9,0.0202999,0.0200186,-29.8662,16,0.00654026,10,-0.000597878,-1.52482,1.61988,0.0364225,-42.4436,0.0200186,
2,0,0,1,0,30748,0.00990136,0.00958099,-29.3471,16,0.00577024,10,-0.000281175,-1.53243,1.18602,0.0497464,-56.9492,0.00958099,
2,0,0,1,0,30748,-0.000494411,-0.000840681,-28.6716,16,0.00501575,10,2.41037e-05,-1.54255,0.861072,0.0685193,-76.5661,-0.000840681,
2,0,0,1,0,30748,-0.010893,-0.0112687,-27.7347,16,0.00428232,10,0.000312535,-1.55698,0.670367,0.0880114,-95.2604,-0.0112687,
2,0,0,1,0,30748,-0.0212998,-0.0216713,-26.7358,16,0.00357438,10,0.000579399,-1.57291,0.673996,0.0875376,-91.3269,-0.0216713,
2,0,0,1,0,30748.1,-0.0316984,-0.0320612,-25.8303,16,0.00289166,10,0.00082815,-1.58787,0.769761,0.0766472,-77.2366,-0.0320612,
2,0,0,1,0,30748.1,-0.0420942,-0.0424574,-25.1216,16,0.00222991,10,0.0010666,-1.59995,0.99912,0.059052,-57.9489,-0.0424574,
2,0,0,1,0,30748.1,-0.0524927,-0.0528547,-24.6884,16,0.00158279,10,0.0013049,-1.60751,1.99076,0.0296369,-28.5873,-0.0528547,
2,0,0,1,0,30748.1,-0.0628996,-0.063288,-24.5163,16,0.000943666,10,0.00155159,-1.61054,7.79141,0.00757244,-7.24248,-0.06328804,
2,0,0,1,0,30748.2,-0.0732982,-0.0736281,-24.5138,16,0.00030676,10,0.0018049,-1.61059,-5.88046,-0.0100332,9.60274,-0.0736281,
2,0,0,1,0,30748.2,-0.0836939,-0.0840317,-24.7084,16,-0.000332824,10,0.00207629,-1.60716,-2.17581,-0.0271164,26.1603,-0.0840317,
2,0,0,1,0,30748.2,-0.0940925,-0.0944227,-25.0679,16,-0.000979545,10,0.00236697,-1.60088,-1.37799,-0.042816,41.8842,-0.0944227,
2,0,0,1,1,30748.2,-0.0978574,-0.0982497,-21.1481,16,-0.00148128,10,0.00207779,-1.67473,-0.030536,-1.93214,1567.44,-0.0982497,
2,0,0,1,1,30748.3,-0.0874588,-0.0878662,-9.93118,16,-0.00186915,10,0.000872614,-2.003,-0.027469,-2.14787,826.258,-0.0878662,
2,0,0,1,1,30748.3,-0.077052,-0.0774721,-2.83256,16,-0.00202895,10,0.000219445,-2.54782,-0.00997945,-5.91215,573.504,-0.0774721,
2,1,0,1,1,30748.3,-0.0666562,-0.067062,2.3312,16,-0.00203177,10,-0.000156335,-2.63242,0.0105026,5.61767,429.849,-0.067062,
2,1,0,1,1,30748.3,-0.0562576,-0.0567072,6.26177,16,-0.00191752,10,-0.000355087,-2.2033,0.0424671,1.38931,334.806,-0.0567072,
2,1,0,1,1,30748.4,-0.0458563,-0.0463003,9.35271,16,-0.00171252,10,-0.000433034,-2.02906,0.0819635,0.719832,260.981,-0.0463003,
2,1,0,1,1,30748.4,-0.0354522,-0.0358129,11.7467,16,-0.00143677,10,-0.000420683,-1.93008,0.13323,0.442844,202.011,-0.0358129,
2,1,0,1,1,30748.4,-0.0250564,-0.0254517,13.5731,16,-0.00110646,10,-0.000345457,-1.86732,0.20581,0.286672,151.708,-0.0254517,
2,1,0,1,1,30748.4,-0.0146579,-0.0150533,14.9778,16,-0.000734245,10,-0.000225466,-1.82455,0.290125,0.20336,118.756,-0.0150533,
2,1,0,1,1,30748.5,-0.00425653,-0.00468678,16.0424,16,-0.000330186,10,-7.51873e-05,-1.79473,0.417465,0.141329,88.389,-0.00468678,
2,1,0,0,1,30748.5,-7.54729e-05,-0.000535284,16.3668,16,-0.000159857,10,-8.76091e-06,-1.78604, , , ,-0.000535284,