Folder: Figs_alphaMnO2_OER_Tafel_sleope/Figure_codes/Fig_3-5/rawdata_trumpetplot_data/after 10th (part 53)

File: 20221101_1-115_003_TrumpetPlot_ParaChange_from10_every3_05_CV_C01_0.csv
mode,ox/red,error,control changes,counter inc.,time/s,control/V,Ewe/V,<I>/mA,cycle number,(Q-Qo)/C,I Range,P/W,log(|I|),Tafel slope mV/dec,alpha_eff,dI/d(E-IR),E-IR/V,
2,0,0,0,0,1120.02,2.44065e-05,-0.000363498,-0.717617,1,0.0000000E+000,10,2.60852e-07,-3.14411, , , ,-0.000363498,
2,1,0,1,0,1120.38,0.00729063,0.00697566,0.78266,1,0.000213371,10,5.45957e-06,-3.10643,0.0897601,0.657307,19.9481,0.00697566,
2,1,0,1,0,1120.76,0.0147802,0.0144517,0.885274,1,0.000534736,10,1.27937e-05,-3.05292,0.196707,0.299938,10.3532,0.0144517,
2,1,0,1,0,1121.13,0.0222725,0.0219346,0.959842,1,0.000887594,10,2.10537e-05,-3.0178,0.251093,0.234973,8.7559,0.0219346,
2,1,0,1,0,1121.5,0.0297644,0.0294197,1.02773,1,0.00126686,10,3.02356e-05,-2.98812,0.246394,0.239454,9.60096,0.0294197,
2,1,0,1,0,1121.88,0.0372544,0.0369574,1.1112,1,0.00167455,10,4.1067e-05,-2.95421,0.219449,0.268855,11.7005,0.0369574,
2,1,0,1,0,1122.25,0.0447449,0.0444312,1.21288,1,0.00211661,10,5.38895e-05,-2.91618,0.192252,0.306888,14.5074,0.0444312,
2,1,0,1,0,1122.63,0.0522363,0.0519711,1.32125,1,0.00259839,10,6.86666e-05,-2.87902,0.175357,0.336456,17.3576,0.0519711,
2,1,0,1,0,1123,0.0597291,0.0594497,1.44312,1,0.00312383,10,8.57931e-05,-2.8407,0.201294,0.293104,16.4516,0.0594497,
2,1,0,1,0,1123.38,0.0672182,0.0668942,1.55777,1,0.00369188,10,0.000104206,-2.8075,0.249655,0.236326,14.3142,0.0668942,
2,1,0,1,0,1123.75,0.0747092,0.0744215,1.6555,1,0.00430023,10,0.000123205,-2.78107,0.292538,0.201683,13.0192,0.0744215,
2,1,0,1,0,1124.13,0.0822001,0.0819103,1.74305,1,0.00494516,10,0.000142774,-2.75869,0.343384,0.171819,11.7244,0.0819103,
2,1,0,1,0,1124.5,0.0896911,0.0894189,1.83435,1,0.00562338,10,0.000164026,-2.73652,0.342032,0.172498,12.393,0.0894189,
2,1,0,1,0,1124.88,0.097182,0.0968417,1.94545,1,0.00633895,10,0.000188401,-2.71098,0.22576,0.261339,19.881,0.0968417,
2,1,0,1,0,1125.25,0.104673,0.104355,2.11434,1,0.00710441,10,0.000220642,-2.67482,0.187218,0.315141,25.9952,0.104355,
2,1,0,1,0,1125.62,0.112164,0.111847,2.3275,1,0.00794232,10,0.000260325,-2.63311,0.182324,0.3236,29.3716,0.111847,
2,1,0,1,0,1126,0.119655,0.11936,2.54851,1,0.00886273,10,0.000304189,-2.59371,0.239674,0.246168,24.442,0.11936,
2,1,0,1,0,1126.37,0.127146,0.126834,2.72516,1,0.00985919,10,0.000345644,-2.56461,0.282526,0.208831,22.2466,0.1268343,
2,1,0,1,0,1126.75,0.134637,0.1343,2.87866,1,0.0109187,10,0.000386603,-2.54081,0.430955,0.136905,15.3793,0.1343,
2,1,0,1,0,1127.12,0.142128,0.141831,2.91728,1,0.0120176,10,0.00041376,-2.53502,-0.964201,-0.0611905,-6.94166,0.1418307,
2,1,0,1,0,1127.5,0.149619,0.149315,2.68647,1,0.0130858,10,0.000401131,-2.57082,-0.115775,-0.509609,-53.1681,0.149315,
2,1,0,1,0,1127.87,0.157108,0.15685,2.1814,1,0.0140085,10,0.000342154,-2.66126,-0.0708199,-0.8331,-70.8477,0.15685,
2,1,0,1,0,1128.25,0.164601,0.164327,1.71829,1,0.0147405,10,0.000282362,-2.7649,-0.0773919,-0.762353,-51.264,0.164327,
2,1,0,1,0,1128.62,0.172092,0.171792,1.42561,1,0.0153326,10,0.000244908,-2.846,-0.115028,-0.512918,-28.7004,0.171792,
2,1,0,1,0,1129,0.179582,0.179269,1.25707,1,0.01584,10,0.000225354,-2.90064,-0.164265,-0.359176,-17.6662,0.179269,
2,1,0,1,0,1129.37,0.187073,0.186784,1.15615,1,0.0162972,10,0.00021595,-2.93699,-0.272735,-0.216327,-9.75479,0.186784,
2,1,0,1,0,1129.74,0.194564,0.194271,1.09305,1,0.0167245,10,0.000212348,-2.96136,-0.407991,-0.144611,-6.16033,0.194271,
2,1,0,1,0,1130.12,0.202057,0.201774,1.05119,1,0.0171324,10,0.000212103,-2.97832,-0.438837,-0.134446,-5.50354,0.2017744,
2,1,0,1,0,1130.49,0.209546,0.209236,1.02066,1,0.0175273,10,0.000213557,-2.99112,-0.469076,-0.125779,-5.00655,0.209236,
2,1,0,1,0,1130.87,0.217037,0.216708,0.995109,1,0.0179118,10,0.000215648,-3.00213,-1.07929,-0.0546658,-2.1278,0.216708,
2,1,0,1,0,1131.24,0.224528,0.224225,0.978642,1,0.018289,10,0.000219436,-3.00938,-0.807477,-0.0730671,-2.78209,0.224225,
2,1,0,1,0,1131.62,0.232019,0.231693,0.963059,1,0.0186598,10,0.000223134,-3.01635,-1.31356,-0.0449162,-1.68395,0.231693,
2,1,0,1,0,1131.99,0.23951,0.239234,0.949165,1,0.0190255,10,0.000227073,-3.02266,-2.17667,-0.0271056,-1.00596,0.239234,
2,1,0,1,0,1132.37,0.247001,0.246708,0.940656,1,0.0193863,10,0.000232068,-3.02657,-1.03883,-0.0567944,-2.07942,0.2467085,
2,1,0,1,0,1132.74,0.254492,0.254172,0.925661,1,0.0197429,10,0.000235277,-3.03355,-2.0922,-0.0282,-1.02006,0.254172,
2,1,0,1,0,1133.12,0.261983,0.261677,0.918053,1,0.0200955,10,0.000240233,-3.03713,-0.992155,-0.0594665,-2.12913,0.261677,
2,1,0,1,0,1133.49,0.269474,0.269189,0.905593,1,0.0204446,10,0.000243775,-3.04307,-17.8188,-0.00331111,-0.117257,0.269189,
2,1,0,1,0,1133.86,0.276965,0.276673,0.899674,1,0.0207901,10,0.000248916,-3.04591,-1.13379,-0.0520379,-1.82806,0.276673,
2,1,0,1,0,1134.24,0.284456,0.284149,0.887569,1,0.0211321,10,0.000252201,-3.0518,-1.42542,-0.0413913,-1.43609,0.284149,
2,1,0,1,0,1134.61,0.291947,0.291625,0.878643,1,0.0214707,10,0.000256234,-3.05619,-0.968937,-0.0608915,-2.09218,0.291625,
2,1,0,1,0,1134.99,0.299436,0.299167,0.867964,1,0.0218057,10,0.000259666,-3.0615,-0.00130539,-45.1972,-463.242,0.299167,
2,0,0,1,0,1135.33,0.293745,0.293412,-0.244599,1,0.0217898,10,-7.17684e-05,-3.61154,-0.0316366,-1.86493,17.2789,0.293412,
2,0,0,1,0,1135.7,0.286254,0.285959,-0.330447,1,0.0216729,10,-9.44942e-05,-3.4809,-0.0796534,-0.740709,9.59034,0.285959,
2,0,0,1,0,1136.08,0.278763,0.278446,-0.392031,1,0.0215289,10,-0.00010916,-3.40668,-0.137517,-0.429038,6.58056,0.278446,
2,0,0,1,0,1136.45,0.271272,0.270973,-0.440275,1,0.0213662,10,-0.000119303,-3.35628,-0.193858,-0.304346,5.17993,0.270973,
2,0,0,1,0,1136.83,0.263781,0.263483,-0.473514,1,0.0211875,10,-0.000124763,-3.32467,-0.239769,-0.24607,4.56549,0.263483,
2,0,0,1,0,1137.2,0.25629,0.255936,-0.512885,1,0.0209955,10,-0.000131266,-3.28998,-0.415218,-0.142094,2.81304,0.255936,
2,0,0,1,0,1137.58,0.248799,0.248495,-0.539915,1,0.0207916,10,-0.000134166,-3.26767,-0.313833,-0.187998,3.96927,0.248495,
2,0,0,1,0,1137.95,0.241308,0.241031,-0.568302,1,0.0205763,10,-0.000136978,-3.24542,-0.366529,-0.16097,3.58193,0.241031,
2,0,0,1,0,1138.33,0.233817,0.233473,-0.598576,1,0.0203503,10,-0.000139751,-3.22288,-0.346872,-0.170092,3.97411,0.233473,
2,0,0,1,0,1138.7,0.226326,0.226031,-0.626745,1,0.0201134,10,-0.000141664,-3.20291,-0.354283,-0.166533,4.07443,0.226031,
2,0,0,1,0,1139.08,0.218835,0.218511,-0.653876,1,0.0198658,10,-0.00014288,-3.1845,-0.327635,-0.180078,4.6065,0.218511,
2,0,0,1,0,1139.45,0.211344,0.21104,-0.689029,1,0.0196068,10,-0.000145413,-3.16176,-0.408914,-0.144285,3.87185,0.21104,
2,0,0,1,0,1139.82,0.203855,0.203518,-0.720578,1,0.019335,10,-0.000146651,-3.14232,-0.342624,-0.1722,4.87116,0.203518,
2,0,0,1,0,1140.2,0.196362,0.196074,-0.765475,1,0.0190495,10,-0.000150089,-3.11607,-0.310972,-0.189728,5.63996,0.196074,
2,0,0,1,0,1140.57,0.188871,0.188546,-0.811817,1,0.0187469,10,-0.000153065,-3.09054,-0.198282,-0.297556,9.45639,0.188546,
2,0,0,1,0,1140.95,0.18138,0.181061,-0.881733,1,0.0184228,10,-0.000159647,-3.05466,-0.200234,-0.294656,10.1315,0.181061,
2,0,0,1,0,1141.32,0.173891,0.173593,-0.973506,1,0.0180698,10,-0.000168993,-3.01166,-0.134829,-0.437593,16.6032,0.173593,
2,0,0,1,0,1141.7,0.166398,0.166034,-1.11194,1,0.0176739,10,-0.00018462,-2.95392,-0.118318,-0.498656,21.6602,0.166034,
2,0,0,1,0,1142.07,0.158906,0.158557,-1.3311,1,0.0172119,10,-0.000211055,-2.87579,-0.0833271,-0.708053,36.9494,0.158557,
2,0,0,1,0,1142.45,0.151417,0.151104,-1.6817,1,0.016644,10,-0.000254112,-2.77425,-0.0688064,-0.857478,56.404,0.151104,
2,0,0,1,0,1142.82,0.143926,0.143595,-2.15848,1,0.0159193,10,-0.000309947,-2.66585,-0.0723053,-0.815984,68.6452,0.143595,
2,0,0,1,0,1143.2,0.136435,0.13611,-2.61556,1,0.0150135,10,-0.000356003,-2.58244,-0.112882,-0.522669,53.1557,0.13611,
2,0,0,1,0,1143.57,0.128942,0.128628,-2.90508,1,0.0139659,10,-0.000373675,-2.53684,-0.303647,-0.194305,21.9129,0.128628,
2,0,0,1,0,1143.95,0.121453,0.121107,-2.96819,1,0.0128538,10,-0.00035947,-2.52751,1.47612,0.0399698,-4.61749,0.121107,
2,0,0,1,0,1144.32,0.113962,0.113665,-2.87043,1,0.0117488,10,-0.000326268,-2.54205,0.332469,0.17746,-19.897,0.113665,
2,0,0,1,0,1144.69,0.106471,0.106138,-2.68753,1,0.0106981,10,-0.000285248,-2.57065,0.225115,0.262088,-27.5032,0.106138,
2,0,0,1,0,1145.07,0.0989799,0.0986412,-2.47867,1,0.00972346,10,-0.000244499,-2.60578,0.217795,0.270897,-26.1838,0.0986412,
2,0,0,1,0,1145.44,0.0914889,0.0911296,-2.30538,1,0.00882325,10,-0.000210088,-2.63726,0.269311,0.219078,-19.6617,0.0911296,
2,0,0,1,0,1145.82,0.083998,0.0837225,-2.17515,1,0.00797921,10,-0.000182109,-2.66251,0.335702,0.175751,-14.9311,0.0837225,
2,0,0,1,0,1146.19,0.076507,0.076176,-2.08819,1,0.00717443,10,-0.00015907,-2.68023,0.413795,0.142583,-11.6056,0.076176,
2,0,0,1,0,1146.57,0.0690161,0.0687101,-1.99688,1,0.00640157,10,-0.000137206,-2.69965,0.407261,0.14487,-11.336,0.0687101,
2,0,0,1,0,1146.94,0.0615251,0.0612165,-1.91415,1,0.00565938,10,-0.000117177,-2.71802,0.37158,0.158781,-11.879,0.0612165,
2,0,0,1,0,1147.32,0.0540342,0.0537302,-1.8192,1,0.00495255,10,-9.77459e-05,-2.74012,0.312805,0.188616,-13.3614,0.0537302,
2,0,0,1,0,1147.69,0.0465432,0.0462498,-1.70535,1,0.00428528,10,-7.88721e-05,-2.76819,0.280427,0.210393,-14.0195,0.0462498,
2,0,0,1,0,1148.07,0.0390523,0.0387158,-1.60156,1,0.00365933,10,-6.20058e-05,-2.79546,0.257663,0.228982,-14.2664,0.0387158,
2,0,0,1,0,1148.44,0.0315626,0.0312241,-1.51796,1,0.00306929,10,-4.7397e-05,-2.81874,0.380957,0.154873,-9.1699,0.0312241,
2,0,0,1,0,1148.81,0.0240704,0.0238063,-1.46056,1,0.00250519,10,-3.47707e-05,-2.83548,0.55116,0.107047,-6.11897,0.0238063,
2,0,0,1,0,1149.19,0.0165785,0.0162838,-1.43292,1,0.00195713,10,-2.33333e-05,-2.84378,3.05907,0.0192869,-1.07803,0.0162838,
2,0,0,1,0,1149.56,0.00908846,0.00876531,-1.42404,1,0.00141556,10,-1.24821e-05,-2.84648,-8.50501,-0.00693708,0.38538,0.00876531,
2,0,0,1,0,1149.94,0.0015984,0.00122194,-1.46046,1,0.000871607,10,-1.7846e-06,-2.83551, , , ,0.00122194,
2,0,0,1,0,1150.01,0.000199195,-0.000222498,-1.44219,1,0.000768773,10,3.20885e-07,-2.84098, , , ,-0.000222498,

File: 20221101_1-115_003_TrumpetPlot_ParaChange_from10_every3_05_CV_C01_1.csv
mode,ox/red,error,control changes,counter inc.,time/s,control/V,Ewe/V,<I>/mA,cycle number,(Q-Qo)/C,I Range,P/W,log(|I|),Tafel slope mV/dec,alpha_eff,dI/d(E-IR),E-IR/V,
2,0,0,1,0,3090.15,2.44065e-05,-0.000268062,-0.704896,2,0.0000000E+000,10,1.88956e-07,-3.15187, , , ,-0.000268062,
2,1,0,1,0,3090.51,0.00729063,0.0069896,0.765568,2,0.00020225,10,5.35101e-06,-3.11602,0.0846454,0.697026,20.6266,0.006989595,
2,1,0,1,0,3090.89,0.0147802,0.0144281,0.878581,2,0.000519178,10,1.26762e-05,-3.05622,0.150909,0.390964,13.4293,0.0144281,
2,1,0,1,0,3091.26,0.0222725,0.0219845,0.961844,2,0.000871873,10,2.11457e-05,-3.0169,0.20195,0.292152,10.9882,0.0219845,
2,1,0,1,0,3091.63,0.0297644,0.0294782,1.04669,2,0.00125545,10,3.08544e-05,-2.98018,0.214491,0.27507,11.2338,0.0294782,
2,1,0,1,0,3092.01,0.0372544,0.0369536,1.13894,2,0.00167199,10,4.20879e-05,-2.9435,0.198977,0.296517,13.2064,0.0369536,
2,1,0,1,0,3092.38,0.0447449,0.0444226,1.24679,2,0.00212561,10,5.53856e-05,-2.90421,0.195143,0.302343,14.7031,0.0444226,
2,1,0,1,0,3092.76,0.0522363,0.0519411,1.35375,2,0.00261974,10,7.03154e-05,-2.86846,0.201783,0.292394,15.4551,0.0519411,
2,1,0,1,0,3093.13,0.0597291,0.0594355,1.46254,2,0.00315478,10,8.69265e-05,-2.83489,0.226151,0.260888,14.8682,0.05943545,
2,1,0,1,0,3093.51,0.0672182,0.0669022,1.56444,2,0.0037287,10,0.000104665,-2.80564,0.26788,0.220248,13.4176,0.0669022,
2,1,0,1,0,3093.88,0.0747092,0.0744123,1.65607,2,0.00433852,10,0.000123232,-2.78092,0.382091,0.154414,9.96737,0.0744123,
2,1,0,1,0,3094.26,0.0822001,0.0819295,1.73329,2,0.00498094,10,0.000142008,-2.76113,0.39504,0.149352,10.1197,0.0819295,
2,1,0,1,0,3094.63,0.0896911,0.0893936,1.82099,2,0.00565394,10,0.000162785,-2.73969,0.31175,0.189254,13.4833,0.0893936,
2,1,0,1,0,3095.01,0.097182,0.0968685,1.9373,2,0.00636415,10,0.000187663,-2.7128,0.224902,0.262336,19.8399,0.09686847,
2,1,0,1,0,3095.38,0.104673,0.104342,2.11013,2,0.00712694,10,0.000220175,-2.67569,0.17889,0.329812,27.1074,0.104342,
2,1,0,1,0,3095.75,0.112164,0.11181,2.30783,2,0.00796124,10,0.000258037,-2.6368,0.202306,0.291638,26.235,0.11181,
2,1,0,1,0,3096.13,0.119655,0.119335,2.49477,2,0.00886906,10,0.000297714,-2.60297,0.28003,0.210692,20.5027,0.119335,
2,1,0,1,0,3096.5,0.127146,0.126823,2.63741,2,0.00983876,10,0.000334485,-2.57882,0.341182,0.172928,17.8166,0.126823,
2,1,0,1,0,3096.88,0.134637,0.134312,2.76144,2,0.0108599,10,0.000370896,-2.55886,0.596779,0.098864,10.66,0.134312,
2,1,0,1,0,3097.25,0.142128,0.141815,2.76744,2,0.0119096,10,0.000392464,-2.55792,-0.465865,-0.126646,-13.6104,0.141815,
2,1,0,1,0,3097.63,0.149619,0.149291,2.47256,2,0.0129082,10,0.00036913,-2.60685,-0.0936922,-0.629722,-60.4658,0.149291,
2,1,0,1,0,3098,0.157108,0.156817,1.96359,2,0.0137457,10,0.000307926,-2.70695,-0.0689691,-0.855456,-65.4956,0.156817,
2,1,0,1,0,3098.38,0.164601,0.164283,1.57629,2,0.0144091,10,0.000258958,-2.80236,-0.0905434,-0.651621,-40.1215,0.164283,
2,1,0,1,0,3098.75,0.172092,0.171786,1.33918,2,0.014959,10,0.000230052,-2.87316,-0.133423,-0.442202,-23.2629,0.171786,
2,1,0,1,0,3099.13,0.179582,0.179257,1.20606,2,0.0154416,10,0.000216194,-2.91863,-0.208042,-0.283596,-13.413,0.179257,
2,1,0,1,0,3099.5,0.187073,0.186827,1.1253,2,0.0158843,10,0.000210237,-2.94873,-0.36259,-0.162718,-7.13623,0.186827,
2,1,0,1,0,3099.87,0.194564,0.194286,1.07485,2,0.0163023,10,0.000208828,-2.96865,-0.431285,-0.136801,-5.73405,0.194286,
2,1,0,1,0,3100.25,0.202057,0.201745,1.03913,2,0.0167039,10,0.000209639,-2.98333,-0.469073,-0.12578,-5.0804,0.201745,
2,1,0,1,0,3100.62,0.209546,0.209268,1.01047,2,0.017094,10,0.000211459,-2.99548,-0.482541,-0.122269,-4.82689,0.209268,
2,1,0,1,0,3101,0.217037,0.216747,0.985301,2,0.0174751,10,0.000213561,-3.00643,-0.845008,-0.0698218,-2.69725,0.216747,
2,1,0,1,0,3101.37,0.224528,0.224203,0.972186,2,0.0178496,10,0.000217967,-3.01225,-1.23095,-0.0479303,-1.81977,0.224203,
2,1,0,1,0,3101.75,0.232019,0.231713,0.961284,2,0.0182182,10,0.000222742,-3.01715,-1.91723,-0.0307736,-1.15079,0.231713,
2,1,0,1,0,3102.12,0.23951,0.239245,0.945007,2,0.0185818,10,0.000226088,-3.02456,-1.44021,-0.0409662,-1.51047,0.239245,
2,1,0,1,0,3102.5,0.247001,0.24671,0.934396,2,0.0189412,10,0.000230525,-3.02947,-1.88934,-0.0312279,-1.13826,0.24671,
2,1,0,1,0,3102.87,0.254492,0.254186,0.925419,2,0.0192966,10,0.000235229,-3.03366,-1.1206,-0.0526502,-1.90232,0.254186,
2,1,0,1,0,3103.25,0.261983,0.261676,0.914762,2,0.0196481,10,0.000239371,-3.03869,-1.56012,-0.0378176,-1.34989,0.261676,
2,1,0,1,0,3103.62,0.269474,0.269194,0.905213,2,0.0199965,10,0.000243678,-3.04325,-17.8543,-0.00330453,-0.116764,0.269194,
2,1,0,1,0,3103.99,0.276965,0.276717,0.895868,2,0.0203414,10,0.000247902,-3.04776,-1.27793,-0.0461683,-1.61925,0.276717,
2,1,0,1,0,3104.37,0.284456,0.284152,0.888309,2,0.0206828,10,0.000252415,-3.05144,-1.91318,-0.0308386,-1.06897,0.284152,
2,1,0,1,0,3104.74,0.291947,0.29164,0.877746,2,0.0210206,10,0.000255985,-3.05663,-1.121,-0.0526317,-1.80313,0.29164,
2,1,0,1,0,3105.12,0.299436,0.299171,0.865703,2,0.0213548,10,0.000258993,-3.06263,-0.0015577,-37.8763,-459.702,0.299171,
2,0,0,1,0,3105.46,0.293745,0.293438,-0.231728,2,0.0213447,10,-6.79977e-05,-3.63502,-0.0284915,-2.0708,17.9823,0.2934382,
2,0,0,1,0,3105.84,0.286254,0.285982,-0.322098,2,0.0212322,10,-9.21145e-05,-3.49201,-0.075385,-0.782649,9.85618,0.285982,
2,0,0,1,0,3106.21,0.278763,0.278487,-0.384564,2,0.021092,10,-0.000107096,-3.41503,-0.127863,-0.461431,6.90229,0.278487,
2,0,0,1,0,3106.58,0.271272,0.270989,-0.430329,2,0.0209325,10,-0.000116615,-3.3662,-0.176003,-0.335222,5.58557,0.270989,
2,0,0,1,0,3106.96,0.263781,0.263481,-0.467788,2,0.0207569,10,-0.000123253,-3.32995,-0.207449,-0.284407,5.19577,0.2634815,
2,0,0,1,0,3107.33,0.25629,0.255981,-0.501764,2,0.0205678,10,-0.000128442,-3.2995,-0.353233,-0.167029,3.26827,0.255981,
2,0,0,1,0,3107.71,0.248799,0.24847,-0.531809,2,0.0203667,10,-0.000132139,-3.27424,-0.254419,-0.231901,4.81938,0.24847,
2,0,0,1,0,3108.08,0.241308,0.240989,-0.560826,2,0.0201543,10,-0.000135153,-3.25117,-0.35519,-0.166108,3.65579,0.240989,
2,0,0,1,0,3108.46,0.233817,0.233509,-0.588641,2,0.019931,10,-0.000137453,-3.23015,-0.308805,-0.191059,4.38888,0.233509,
2,0,0,1,0,3108.83,0.226326,0.226025,-0.618725,2,0.0196971,10,-0.000139847,-3.2085,-0.386702,-0.152572,3.67638,0.226025,
2,0,0,1,0,3109.21,0.218835,0.218534,-0.649867,2,0.0194527,10,-0.000142018,-3.18718,-0.367399,-0.160588,4.05852,0.218534,
2,0,0,1,0,3109.58,0.211344,0.211024,-0.678711,2,0.0191977,10,-0.000143225,-3.16832,-0.382733,-0.154154,4.06584,0.211024,
2,0,0,1,0,3109.96,0.203855,0.203519,-0.707749,2,0.0189306,10,-0.000144041,-3.15012,-0.294593,-0.200277,5.56225,0.203519,
2,0,0,1,0,3110.33,0.196362,0.196078,-0.748649,2,0.0186507,10,-0.000146794,-3.12572,-0.331549,-0.177953,5.18398,0.196078,
2,0,0,1,0,3110.7,0.188871,0.188577,-0.791527,2,0.0183558,10,-0.000149264,-3.10153,-0.208049,-0.283587,8.72279,0.188577,
2,0,0,1,0,3111.08,0.18138,0.181051,-0.849084,2,0.0180421,10,-0.000153727,-3.07105,-0.210191,-0.280698,9.28304,0.181051,
2,0,0,1,0,3111.45,0.173891,0.173602,-0.922945,2,0.017704,10,-0.000160225,-3.03482,-0.174199,-0.338693,12.228,0.173602,
2,0,0,1,0,3111.83,0.166398,0.16606,-1.03533,2,0.0173308,10,-0.000171927,-2.98492,-0.139017,-0.42441,17.2366,0.16606,
2,0,0,1,0,3112.2,0.158906,0.158591,-1.21445,2,0.0169044,10,-0.000192601,-2.91562,-0.0923407,-0.638939,30.3769,0.158591,
2,0,0,1,0,3112.58,0.151417,0.151113,-1.50036,2,0.0163921,10,-0.000226722,-2.82381,-0.0735146,-0.802562,47.1958,0.151113,
2,0,0,1,0,3112.95,0.143926,0.143656,-1.92824,2,0.0157458,10,-0.000277003,-2.71484,-0.0691872,-0.852758,64.1409,0.143656,
2,0,0,1,0,3113.33,0.136435,0.136081,-2.39026,2,0.0149275,10,-0.000325269,-2.62155,-0.0971843,-0.607094,56.4442,0.136081,
2,0,0,1,0,3113.7,0.128942,0.128647,-2.71543,2,0.0139573,10,-0.000349332,-2.56616,-0.210986,-0.27964,29.54,0.128647,
2,0,0,1,0,3114.08,0.121453,0.121138,-2.83722,2,0.0129038,10,-0.000343694,-2.54711,-2.3625,-0.0249736,2.75859,0.121138,
2,0,0,1,0,3114.45,0.113962,0.113611,-2.79174,2,0.0118381,10,-0.000317172,-2.55413,0.47262,0.124836,-13.5956,0.113611,
2,0,0,1,0,3114.82,0.106471,0.106163,-2.65598,2,0.0108083,10,-0.000281965,-2.57578,0.276261,0.213566,-22.1563,0.106163,
2,0,0,1,0,3115.2,0.0989799,0.0987216,-2.47408,2,0.00983953,10,-0.000244246,-2.60659,0.248045,0.23786,-22.9614,0.0987216,
2,0,0,1,0,3115.57,0.0914889,0.0911484,-2.31404,2,0.00893774,10,-0.000210922,-2.63563,0.28352,0.208099,-18.7527,0.0911484,
2,0,0,1,0,3115.95,0.083998,0.0836982,-2.18276,2,0.00809139,10,-0.000182693,-2.66099,0.307431,0.191913,-16.3264,0.0836982,
2,0,0,1,0,3116.32,0.076507,0.0761562,-2.08948,2,0.00728483,10,-0.000159127,-2.67996,0.431708,0.136666,-11.1467,0.0761562,
2,0,0,1,0,3116.7,0.0690161,0.0687029,-2.00862,2,0.00650972,10,-0.000137998,-2.6971,0.468517,0.125929,-9.89408,0.0687029,
2,0,0,1,0,3117.07,0.0615251,0.0612133,-1.93514,2,0.00576253,10,-0.000118456,-2.71329,0.435567,0.135456,-10.2488,0.0612133,
2,0,0,1,0,3117.45,0.0540342,0.0536851,-1.85217,2,0.00504579,10,-9.94342e-05,-2.73232,0.369057,0.159867,-11.5363,0.0536851,
2,0,0,1,0,3117.82,0.0465432,0.0461903,-1.75397,2,0.0043624,10,-8.10165e-05,-2.75598,0.326075,0.18094,-12.391,0.0461903,
2,0,0,1,0,3118.2,0.0390523,0.0386898,-1.65886,2,0.00371638,10,-6.41812e-05,-2.78019,0.262283,0.224948,-14.524,0.0386898,
2,0,0,1,0,3118.57,0.0315626,0.0312352,-1.5661,2,0.00310631,10,-4.89176e-05,-2.80518,0.337938,0.174588,-10.6831,0.0312352,
2,0,0,1,0,3118.94,0.0240704,0.0237524,-1.49745,2,0.0025255,10,-3.5568e-05,-2.82465,0.452781,0.130306,-7.63541,0.0237524,
2,0,0,1,0,3119.32,0.0165785,0.0162554,-1.45421,2,0.00196547,10,-2.36387e-05,-2.83737,1.08327,0.0544646,-3.10783,0.01625542,
2,0,0,1,0,3119.69,0.00908846,0.00874766,-1.43817,2,0.00141666,10,-1.25806e-05,-2.84219,-33.4023,-0.00176635,0.0991454,0.00874766,
2,0,0,1,0,3120.07,0.0015984,0.00123788,-1.46183,2,0.00086943,10,-1.80957e-06,-2.8351, , , ,0.00123788,
2,0,0,1,0,3120.14,0.000199195,-0.000217111,-1.44153,2,0.000766328,10,3.12972e-07,-2.84118, , , ,-0.000217111,