Folder: Figs_alphaMnO2_OER_Tafel_sleope/Figure_codes/Fig_3-5/rawdata_trumpetplot_data/after 10th (part 193)

File: 20221101_1-115_003_TrumpetPlot_ParaChange_from10_every3_13_CV_C01_2.csv
mode,ox/red,error,control changes,counter inc.,time/s,control/V,Ewe/V,<I>/mA,cycle number,(Q-Qo)/C,I Range,P/W,log(|I|),Tafel slope mV/dec,alpha_eff,dI/d(E-IR),E-IR/V,
2,1,0,1,0,5138.12,2.44065e-05,-0.000248974,26.1255,3,0.0000000E+000,10,-6.50457e-06,-1.58294, , , ,-0.000248974,
2,1,0,1,0,5138.13,0.0122624,0.0119022,30.4113,3,0.000432354,10,0.000361962,-1.51697,0.27388,0.215423,253.941,0.0119022,
2,1,0,1,0,5138.15,0.0250636,0.0247512,33.0582,3,0.000941813,10,0.000818229,-1.48072,0.430842,0.136941,176.208,0.0247512,
2,1,0,1,0,5138.16,0.0378704,0.037527,35.06,3,0.00148747,10,0.00131569,-1.45519,0.560264,0.105308,143.946,0.03752695,
2,1,0,1,0,5138.18,0.0506632,0.0503335,36.8659,3,0.00206302,10,0.00185559,-1.43338,0.584933,0.100866,145.166,0.0503335,
2,1,0,1,0,5138.2,0.0634672,0.0630796,38.8238,3,0.00266845,10,0.00244899,-1.4109,0.550512,0.107173,162.47,0.0630796,
2,1,0,1,0,5138.21,0.0762629,0.0758946,41.057,3,0.00330737,10,0.003116,-1.38661,0.505701,0.11667,187.033,0.0758946,
2,1,0,1,0,5138.23,0.0890668,0.0886417,43.5791,3,0.00398432,10,0.00386293,-1.36072,0.479012,0.12317,209.652,0.0886417,
2,1,0,1,0,5138.24,0.10186,0.1015,46.3494,3,0.00470409,10,0.00470448,-1.33396,0.490861,0.120197,217.394,0.1015,
2,1,0,1,0,5138.26,0.114666,0.114253,49.3,3,0.00546897,10,0.00563265,-1.30715,0.46678,0.126398,243.114,0.114253,
2,1,0,1,0,5138.28,0.127462,0.127105,52.4308,3,0.00628302,10,0.00666421,-1.28041,0.478812,0.123222,252.269,0.127105,
2,1,0,1,0,5138.29,0.140263,0.139875,55.8576,3,0.00714915,10,0.0078131,-1.25292,0.450499,0.130966,285.729,0.139875,
2,1,0,1,0,5138.31,0.153064,0.152722,59.7202,3,0.00807381,10,0.00912059,-1.22388,0.441281,0.133702,311.641,0.152722,
2,1,0,1,0,5138.32,0.165866,0.165551,63.7306,3,0.00906204,10,0.0105507,-1.19565,0.480871,0.122694,304.909,0.165551,
2,1,0,1,0,5138.34,0.178667,0.17831,67.4319,3,0.0101125,10,0.0120238,-1.17113,0.591201,0.0997968,262.169,0.17831,
2,1,0,1,0,5138.36,0.191463,0.191099,70.2539,3,0.011216,10,0.0134255,-1.15333,1.03169,0.057188,156.214,0.191099,
2,1,0,1,0,5138.37,0.204269,0.203907,70.9928,3,0.01235,10,0.0144759,-1.14879,-2.09978,-0.0280981,-77.3091,0.203907,
2,1,0,1,0,5138.39,0.217062,0.216758,67.9169,3,0.0134668,10,0.0147215,-1.16802,-0.381142,-0.154798,-406.942,0.216758,
2,1,0,1,0,5138.4,0.229866,0.229562,60.8329,3,0.0145004,10,0.013965,-1.21586,-0.215026,-0.274386,-648.195,0.229562,
2,1,0,1,0,5138.42,0.242662,0.242385,52.0809,3,0.0154031,10,0.0126236,-1.28332,-0.182113,-0.323975,-658.977,0.242385,
2,1,0,1,0,5138.44,0.255466,0.255185,44.4224,3,0.0161717,10,0.0113359,-1.3524,-0.197299,-0.299039,-520.511,0.255185,
2,1,0,1,0,5138.45,0.268259,0.267958,38.8371,3,0.0168345,10,0.0104067,-1.41075,-0.24992,-0.236075,-359.562,0.267958,
2,1,0,1,0,5138.47,0.281065,0.280765,35.0719,3,0.0174236,10,0.00984695,-1.45504,-0.338356,-0.174373,-239.649,0.280765,
2,1,0,1,0,5138.48,0.293861,0.293556,32.5295,3,0.0179631,10,0.00954923,-1.48772,-0.452021,-0.130525,-166.453,0.293556,
2,1,0,1,0,5138.49,0.298983,0.298884,28.7555,3,0.0182481,10,0.00859455,-1.54128,0.0221988,2.6578,2338.97,0.298884,
2,1,0,1,0,5138.51,0.286187,0.285942,6.78636,3,0.0185044,10,0.0019405,-2.16836,0.0100508,5.87018,1132.39,0.285942,
2,0,0,1,0,5138.53,0.273386,0.273145,-3.52994,3,0.0185207,10,-0.000964185,-2.45223,-0.013848,-4.26053,591.955,0.273145,
2,0,0,1,0,5138.54,0.260585,0.26032,-9.22419,3,0.018414,10,-0.00240125,-2.03507,-0.0588676,-1.00225,343.462,0.26032,
2,0,0,1,0,5138.56,0.247783,0.24749,-12.7303,3,0.0182359,10,-0.00315062,-1.89516,-0.129107,-0.456985,223.836,0.24749,
2,0,0,1,0,5138.57,0.234982,0.234684,-15.1441,3,0.0180116,10,-0.00355407,-1.81976,-0.215378,-0.273937,160.824,0.234684,
2,0,0,1,0,5138.59,0.222187,0.221917,-16.9633,3,0.017754,10,-0.00376444,-1.77049,-0.300616,-0.196263,129.535,0.221917,
2,0,0,1,0,5138.61,0.20938,0.209094,-18.4993,3,0.0174698,10,-0.00386809,-1.73285,-0.373928,-0.157784,113.755,0.209094,
2,0,0,1,0,5138.62,0.196587,0.19631,-19.9116,3,0.0171622,10,-0.00390884,-1.70089,-0.413686,-0.14262,110.84,0.19631,
2,0,0,1,0,5138.64,0.183783,0.183501,-21.3648,3,0.0168319,10,-0.00392047,-1.6703,-0.410003,-0.143901,120.141,0.183501,
2,0,0,1,0,5138.65,0.170987,0.170664,-23.0268,3,0.0164769,10,-0.00392984,-1.63777,-0.364712,-0.161771,145.753,0.170664,
2,0,0,1,0,5138.67,0.158183,0.157896,-25.194,3,0.0160918,10,-0.00397803,-1.5987,-0.294207,-0.200539,197.804,0.157896,
2,0,0,1,0,5138.69,0.145385,0.145081,-28.2108,3,0.0156657,10,-0.00409284,-1.54959,-0.230568,-0.25589,282.937,0.145081,
2,0,0,1,0,5138.7,0.132584,0.132291,-32.5167,3,0.0151812,10,-0.00430167,-1.48789,-0.190357,-0.309944,394.772,0.132291,
2,0,0,1,0,5138.72,0.119783,0.119521,-38.2787,3,0.014616,10,-0.00457509,-1.41704,-0.178146,-0.33119,495.074,0.119521,
2,0,0,1,0,5138.73,0.106987,0.106703,-44.8834,3,0.0139503,10,-0.00478917,-1.34791,-0.200812,-0.293808,513.204,0.106703,
2,0,0,1,0,5138.75,0.0941801,0.0939703,-51.3586,3,0.0131795,10,-0.00482618,-1.28939,-0.242298,-0.243502,486.217,0.0939703,
2,0,0,1,0,5138.77,0.0813844,0.0811987,-57.0697,3,0.0123102,10,-0.00463399,-1.24359,-0.324281,-0.181941,403.852,0.0811987,
2,0,0,1,0,5138.78,0.0685832,0.0683307,-61.6634,3,0.0113585,10,-0.0042135,-1.20997,-0.462045,-0.127693,306.248,0.0683307,
2,0,0,1,0,5138.8,0.0557876,0.0555401,-64.7496,3,0.0103443,10,-0.0035962,-1.18876,-0.877827,-0.0672114,169.261,0.0555401,
2,0,0,1,0,5138.81,0.0429808,0.0426805,-66.0532,3,0.00929535,10,-0.00281919,-1.18011,-4.02878,-0.0146446,37.6409,0.0426805,
2,0,0,1,0,5138.83,0.030188,0.0298422,-65.8731,3,0.00823846,10,-0.0019658,-1.18129,2.96061,0.0199283,-51.1538,0.0298422,
2,0,0,1,0,5138.85,0.017384,0.0170812,-64.9012,3,0.0071916,10,-0.00110859,-1.18775,1.63038,0.0361878,-91.5978,0.0170812,
2,0,0,1,0,5138.86,0.00458834,0.00424079,-63.5513,3,0.00616356,10,-0.000269507,-1.19688,1.27984,0.0460994,-114.31,0.00424079,
2,0,0,1,0,5138.88,-0.00821564,-0.00853393,-61.8393,3,0.00515943,10,0.000527732,-1.20874,0.884314,0.0667184,-160.831,-0.00853393,
2,0,0,1,0,5138.89,-0.0210196,-0.0213829,-59.4479,3,0.0041884,10,0.00127117,-1.22586,0.633388,0.0931498,-215.766,-0.0213829,
2,0,0,1,0,5138.91,-0.0338153,-0.0341597,-56.4557,3,0.00326099,10,0.00192851,-1.24829,0.54684,0.107893,-237.708,-0.0341597,
2,0,0,1,0,5138.93,-0.0466193,-0.0469864,-53.5579,3,0.0023818,10,0.00251649,-1.27118,0.605791,0.0973933,-203.84,-0.0469864,
2,0,0,1,0,5138.94,-0.0594121,-0.0597866,-51.3453,3,0.00154395,10,0.00306976,-1.2895,0.880613,0.0669988,-134.567,-0.0597866,
2,0,0,1,0,5138.96,-0.0722189,-0.0725549,-50.0657,3,0.00073378,10,0.00363252,-1.30046,1.70427,0.034619,-67.7891,-0.0725549,
2,0,0,1,0,5138.97,-0.0850146,-0.0853944,-49.573,3,-6.24847e-05,10,0.00423325,-1.30476,9.28228,0.00635619,-12.3199,-0.0853944,
2,0,0,1,0,5138.99,-0.0978158,-0.0981638,-49.7312,3,-0.000856253,10,0.0048818,-1.30337,-3.52815,-0.0167227,32.4966,-0.0981638,
2,0,0,1,0,5139.01,-0.110611,-0.110922,-50.3748,3,-0.00165655,10,0.00558765,-1.29779,-1.72675,-0.0341682,67.247,-0.110922,
2,0,0,1,0,5139.02,-0.123418,-0.123754,-51.4526,3,-0.00247086,10,0.00636744,-1.28859,-1.18839,-0.0496471,99.7756,-0.123754,
2,0,0,1,0,5139.04,-0.136214,-0.136542,-52.85,3,-0.00330521,10,0.00721625,-1.27695,-1.0261,-0.0574994,118.694,-0.136542,
2,0,0,1,0,5139.05,-0.149015,-0.149343,-54.498,3,-0.00416419,10,0.0081389,-1.26362,-0.938709,-0.0628523,133.716,-0.149343,
2,0,0,1,0,5139.07,-0.161816,-0.162164,-56.2648,3,-0.00505042,10,0.00912409,-1.24976,-0.931847,-0.0633151,139.003,-0.162164,
2,0,0,1,0,5139.09,-0.174615,-0.174911,-58.0471,3,-0.00596506,10,0.0101531,-1.23622,-0.951223,-0.0620254,140.496,-0.174911,
2,0,0,1,0,5139.1,-0.187419,-0.187735,-59.8547,3,-0.00690847,10,0.0112368,-1.2229,-0.969689,-0.0608443,142.12,-0.187735,
2,0,0,1,0,5139.12,-0.199647,-0.200031,-61.5903,3,-0.00783778,10,0.01232,-1.21049,0.318008,0.18553,-431.607,-0.200031,
2,0,0,1,1,5139.13,-0.192535,-0.192981,-44.7363,3,-0.00837197,10,0.00863327,-1.34934,-0.0558121,-1.05712,1871.3,-0.192981,
2,0,0,1,1,5139.14,-0.179739,-0.180126,-25.7946,3,-0.00892482,10,0.00464626,-1.58847,-0.0472943,-1.24751,1244.75,-0.180126,
2,0,0,1,1,5139.16,-0.166932,-0.167318,-11.9293,3,-0.00922044,10,0.001996,-1.92338,-0.0269086,-2.19261,958.177,-0.167318,
2,0,0,1,1,5139.17,-0.154139,-0.154591,-1.01104,3,-0.00931981,10,0.000156298,-2.99523,-0.0564556,-1.04507,767.905,-0.1545912,
2,1,0,1,1,5139.19,-0.141335,-0.141802,7.91143,3,-0.00926135,10,-0.00112185,-2.10175,0.0250957,2.351,638.725,-0.141802,
2,1,0,1,1,5139.21,-0.12854,-0.129023,15.4098,3,-0.00907236,10,-0.00198822,-1.8122,0.0641223,0.920117,539.138,-0.129023,
2,1,0,1,1,5139.22,-0.115736,-0.116148,21.7714,3,-0.00877271,10,-0.00252871,-1.66211,0.109206,0.540263,453.436,-0.116148,
2,1,0,1,1,5139.24,-0.102932,-0.103353,27.0901,3,-0.00838016,10,-0.00279986,-1.56719,0.163093,0.361756,379.712,-0.1033534,
2,1,0,1,1,5139.25,-0.0901362,-0.0905755,31.5567,3,-0.00790963,10,-0.00285826,-1.50091,0.225274,0.261904,321.082,-0.0905755,
2,1,0,1,1,5139.27,-0.0773322,-0.0777637,35.3127,3,-0.00737346,10,-0.00274604,-1.45207,0.302409,0.1951,268.097,-0.0777637,
2,1,0,1,1,5139.29,-0.0645393,-0.0649115,38.4407,3,-0.00678222,10,-0.00249524,-1.41521,0.39722,0.148532,222.401,-0.0649115,
2,1,0,1,1,5139.3,-0.0517325,-0.052105,41.0291,3,-0.00614544,10,-0.00213782,-1.38691,0.520395,0.113375,181.189,-0.052105,
2,1,0,1,1,5139.32,-0.0389369,-0.0393207,43.0976,3,-0.00547161,10,-0.00169463,-1.36555,0.694126,0.084999,142.719,-0.0393207,
2,1,0,1,1,5139.33,-0.0261357,-0.0265333,44.6822,3,-0.00476858,10,-0.00118557,-1.34987,0.969314,0.0608678,106,-0.0265333,
2,1,0,1,1,5139.35,-0.01334,-0.0137331,45.8021,3,-0.00404387,10,-0.000629005,-1.33911,1.4789,0.0398944,71.2456,-0.01373311,
2,1,0,1,1,5139.37,-0.000774628,-0.00113494,46.4979,3,-0.00331859,10,-5.27726e-05,-1.33257, , , ,-0.00113494,
2,1,0,0,1,5139.37,-0.000125413,-0.000363498,46.5408,3,-0.00328138,10,-1.69175e-05,-1.33217, , , ,-0.000363498,

File: 20221101_1-115_003_TrumpetPlot_ParaChange_from10_every3_13_CV_C01_3.csv
mode,ox/red,error,control changes,counter inc.,time/s,control/V,Ewe/V,<I>/mA,cycle number,(Q-Qo)/C,I Range,P/W,log(|I|),Tafel slope mV/dec,alpha_eff,dI/d(E-IR),E-IR/V,
2,1,0,1,0,7108.25,2.44065e-05,-0.000287149,26.2635,4,0.0000000E+000,10,-7.54153e-06,-1.58065, , , ,-0.0002871489,
2,1,0,1,0,7108.26,0.0122624,0.0118842,30.6073,4,0.00043495,10,0.000363744,-1.51417,0.271503,0.217309,257.914,0.0118842,
2,1,0,1,0,7108.28,0.0250636,0.0247363,33.3386,4,0.0009482,10,0.000824673,-1.47705,0.419373,0.140686,182.588,0.0247363,
2,1,0,1,0,7108.29,0.0378704,0.0375057,35.4574,4,0.00149918,10,0.00132985,-1.45029,0.528045,0.111733,154.417,0.0375057,
2,1,0,1,0,7108.31,0.0506632,0.0503176,37.3793,4,0.00208192,10,0.00188083,-1.42737,0.557521,0.105826,154.387,0.0503176,
2,1,0,1,0,7108.33,0.0634672,0.0631326,39.4308,4,0.00269636,10,0.00248937,-1.40416,0.537113,0.109846,169.125,0.0631326,
2,1,0,1,0,7108.34,0.0762629,0.0759137,41.7084,4,0.00334552,10,0.00316624,-1.37978,0.509742,0.115745,188.538,0.07591366,
2,1,0,1,0,7108.36,0.0890668,0.0887117,44.2415,4,0.00403317,10,0.00392474,-1.35417,0.489833,0.120449,208.124,0.0887117,
2,1,0,1,0,7108.37,0.10186,0.101512,46.9843,4,0.00476333,10,0.00476947,-1.32805,0.508981,0.115918,212.453,0.101512,
2,1,0,1,0,7108.39,0.114666,0.11426,49.8524,4,0.00553769,10,0.00569614,-1.30231,0.484851,0.121687,236.679,0.11426,
2,1,0,1,0,7108.41,0.127462,0.127084,52.883,4,0.00635994,10,0.00672057,-1.27668,0.496005,0.11895,245.721,0.127084,
2,1,0,1,0,7108.42,0.140263,0.139911,56.2396,4,0.00723288,10,0.00786855,-1.24996,0.464059,0.127139,279.27,0.139911,
2,1,0,1,0,7108.44,0.153064,0.152682,59.9834,4,0.00816271,10,0.00915838,-1.22197,0.464999,0.126882,296.984,0.152682,
2,1,0,1,0,7108.45,0.165866,0.165565,63.8172,4,0.00915367,10,0.0105659,-1.19506,0.50283,0.117336,291.917,0.165565,
2,1,0,1,0,7108.47,0.178667,0.178286,67.2912,4,0.0102036,10,0.0119971,-1.17204,0.641252,0.0920076,241.171,0.178286,
2,1,0,1,0,7108.49,0.191463,0.191084,69.8043,4,0.0113026,10,0.0133385,-1.15612,1.24769,0.0472875,128.341,0.1910844,
2,1,0,1,0,7108.5,0.204269,0.203934,70.1432,4,0.0124263,10,0.0143046,-1.15401,-1.46384,-0.040305,-109.575,0.203934,
2,1,0,1,0,7108.52,0.217062,0.216765,66.7466,4,0.0135266,10,0.0144683,-1.17557,-0.363639,-0.162249,-419.405,0.216765,
2,1,0,1,0,7108.53,0.229866,0.229612,59.7383,4,0.0145415,10,0.0137166,-1.22375,-0.217558,-0.271192,-629.441,0.229612,
2,1,0,1,0,7108.55,0.242662,0.242387,51.3775,4,0.0154295,10,0.0124532,-1.28923,-0.189481,-0.311377,-624.989,0.242387,
2,1,0,1,0,7108.57,0.255466,0.255151,44.1263,4,0.0161905,10,0.0112589,-1.3553,-0.208046,-0.283591,-490.397,0.255151,
2,1,0,1,0,7108.58,0.268259,0.267981,38.7994,4,0.016851,10,0.0103975,-1.41118,-0.258468,-0.228268,-347.238,0.267981,
2,1,0,1,0,7108.6,0.281065,0.280782,35.1477,4,0.0174406,10,0.00986884,-1.4541,-0.344413,-0.171306,-235.81,0.280782,
2,1,0,1,0,7108.61,0.293861,0.293513,32.6499,4,0.0179816,10,0.00958318,-1.48612,-0.462207,-0.127649,-163.314,0.2935133,
2,1,0,1,0,7108.62,0.298983,0.298886,28.8697,4,0.0182676,10,0.00862875,-1.53956,0.0224767,2.62494,2330.96,0.298886,
2,1,0,1,0,7108.64,0.286187,0.28596,7.0554,4,0.0185275,10,0.00201756,-2.15148,0.0108854,5.4201,1136.24,0.28596,
2,0,0,1,0,7108.66,0.273386,0.273134,-3.35291,4,0.0185473,10,-0.000915795,-2.47458,-0.0158754,-3.71645,599.441,0.273134,
2,0,0,1,0,7108.67,0.260585,0.260334,-9.18098,4,0.0184422,10,-0.00239012,-2.03711,-0.0566117,-1.04219,355.032,0.260334,
2,0,0,1,0,7108.69,0.247783,0.2475,-12.7962,4,0.0182638,10,-0.00316706,-1.89292,-0.126726,-0.46557,229.013,0.2475,
2,0,0,1,0,7108.7,0.234982,0.234657,-15.2811,4,0.0180379,10,-0.00358581,-1.81585,-0.211498,-0.278962,165.121,0.234657,
2,0,0,1,0,7108.72,0.222187,0.221915,-17.1306,4,0.0177779,10,-0.00380152,-1.76623,-0.299096,-0.197261,131.442,0.221915,
2,0,0,1,0,7108.74,0.20938,0.209052,-18.6712,4,0.017491,10,-0.00390324,-1.72883,-0.379145,-0.155613,113.234,0.209052,
2,0,0,1,0,7108.75,0.196587,0.196298,-20.0769,4,0.0171806,10,-0.00394107,-1.6973,-0.422655,-0.139594,109.358,0.196298,
2,0,0,1,0,7108.77,0.183783,0.183504,-21.4893,4,0.0168479,10,-0.00394337,-1.66778,-0.432304,-0.136478,114.55,0.183504,
2,0,0,1,0,7108.78,0.170987,0.170681,-23.0799,4,0.0164916,10,-0.0039393,-1.63677,-0.387301,-0.152336,137.449,0.170681,
2,0,0,1,0,7108.8,0.158183,0.157863,-25.1035,4,0.0161067,10,-0.00396291,-1.60027,-0.311962,-0.189126,185.845,0.157863,
2,0,0,1,0,7108.82,0.145385,0.145127,-27.904,4,0.0156835,10,-0.00404963,-1.55433,-0.243928,-0.241875,264.667,0.145127,
2,0,0,1,0,7108.83,0.132584,0.132298,-31.9484,4,0.0152059,10,-0.00422669,-1.49555,-0.198136,-0.297776,372.876,0.132298,
2,0,0,1,0,7108.85,0.119783,0.119538,-37.4735,4,0.0146518,10,-0.0044795,-1.42628,-0.180807,-0.326315,477.593,0.119538,
2,0,0,1,0,7108.86,0.106987,0.106693,-43.9368,4,0.0140005,10,-0.00468775,-1.35717,-0.198856,-0.296697,507.135,0.106693,
2,0,0,1,0,7108.88,0.0941801,0.0940137,-50.3328,4,0.0132457,10,-0.00473198,-1.29815,-0.23799,-0.247909,485.189,0.0940137,
2,0,0,1,0,7108.9,0.0813844,0.0811595,-56.0404,4,0.0123927,10,-0.00454821,-1.2515,-0.316083,-0.18666,407.025,0.08115948,
2,0,0,1,0,7108.91,0.0685832,0.0683583,-60.711,4,0.0114568,10,-0.0041501,-1.21673,-0.444503,-0.132733,313.456,0.0683583,
2,0,0,1,0,7108.93,0.0557876,0.0555008,-63.9403,4,0.0104568,10,-0.00354874,-1.19423,-0.802477,-0.0735223,182.82,0.0555008,
2,0,0,1,0,7108.94,0.0429808,0.0426689,-65.4522,4,0.00941925,10,-0.00279277,-1.18408,-2.64831,-0.0222784,56.7387,0.0426689,
2,0,0,1,0,7108.96,0.030188,0.0298729,-65.5053,4,0.00837007,10,-0.00195684,-1.18372,4.43334,0.0133083,-33.9705,0.0298729,
2,0,0,1,0,7108.98,0.017384,0.0170961,-64.7374,4,0.00732737,10,-0.00110676,-1.18884,1.97667,0.0298482,-75.3711,0.0170961,
2,0,0,1,0,7108.99,0.00458834,0.0042726,-63.5773,4,0.00630028,10,-0.00027164,-1.1967,1.45624,0.0405152,-100.518,0.0042726,
2,0,0,1,0,7109.01,-0.00821564,-0.00856469,-62.0943,4,0.00529389,10,0.000531819,-1.20695,1.00214,0.0588742,-142.49,-0.00856469,
2,0,0,1,0,7109.02,-0.0210196,-0.0214126,-59.9656,4,0.0043167,10,0.00128402,-1.2221,0.714673,0.0825553,-192.883,-0.0214126,
2,0,0,1,0,7109.04,-0.0338153,-0.0341852,-57.2286,4,0.00337882,10,0.00195637,-1.24239,0.587565,0.100414,-224.146,-0.0341852,
2,0,0,1,0,7109.06,-0.0466193,-0.0470034,-54.4022,4,0.00248644,10,0.00255709,-1.26438,0.619215,0.0952819,-202.531,-0.0470034,
2,0,0,1,0,7109.07,-0.0594121,-0.0597813,-52.14,4,0.00163526,10,0.003117,-1.28283,0.838246,0.070385,-143.528,-0.0597813,
2,0,0,1,0,7109.09,-0.0722189,-0.0725507,-50.7416,4,0.000813327,10,0.00368134,-1.29464,1.5055,0.0391896,-77.7565,-0.0725507,
2,0,0,1,0,7109.1,-0.0850146,-0.0853731,-50.1346,4,7.32922e-06,10,0.00428015,-1.29986,5.61339,0.0105106,-20.5968,-0.0853731,
2,0,0,1,0,7109.12,-0.0978158,-0.0981744,-50.1739,4,-0.000794371,10,0.00492579,-1.29952,-4.58509,-0.0128678,25.2315,-0.0981744,
2,0,0,1,0,7109.14,-0.110611,-0.110932,-50.7121,4,-0.0016011,10,0.0056256,-1.29489,-1.91397,-0.0308259,61.1067,-0.110932,
2,0,0,1,0,7109.15,-0.123418,-0.123783,-51.7201,4,-0.00242049,10,0.00640208,-1.28634,-1.29085,-0.0457061,92.3533,-0.123783,
2,0,0,1,0,7109.17,-0.136214,-0.136559,-53.0643,4,-0.00325865,10,0.00724641,-1.2752,-1.07527,-0.0548701,113.693,-0.136559,
2,0,0,1,0,7109.18,-0.149015,-0.149364,-54.6402,4,-0.00412028,10,0.00816131,-1.26249,-0.97574,-0.0604669,128.946,-0.149364,
2,0,0,1,0,7109.2,-0.161816,-0.162116,-56.3316,4,-0.00500812,10,0.00913225,-1.24925,-0.961673,-0.0613514,134.865,-0.162116,
2,0,0,1,0,7109.22,-0.174615,-0.174952,-58.0394,4,-0.00592345,10,0.0101541,-1.23628,-0.99155,-0.0595028,134.81,-0.174952,
2,0,0,1,0,7109.23,-0.187419,-0.187716,-59.7837,4,-0.00686639,10,0.0112224,-1.22342,-1.00933,-0.0584544,136.393,-0.187716,
2,0,0,1,0,7109.25,-0.199647,-0.199974,-61.4469,4,-0.00779416,10,0.0122878,-1.2115,0.314605,0.187537,-435.407,-0.199974,
2,0,0,1,1,7109.26,-0.192535,-0.192959,-44.6528,4,-0.00832707,10,0.00861614,-1.35015,-0.0563294,-1.04741,1852.74,-0.192959,
2,0,0,1,1,7109.27,-0.179739,-0.180156,-25.9272,4,-0.00888049,10,0.00467093,-1.58624,-0.0482985,-1.22157,1226.63,-0.180156,
2,0,0,1,1,7109.29,-0.166932,-0.167349,-12.2598,4,-0.00917991,10,0.00205166,-1.91152,-0.028197,-2.09242,945.147,-0.167349,
2,0,0,1,1,7109.3,-0.154139,-0.154575,-1.49054,4,-0.00928565,10,0.0002304,-2.82666,-0.0398404,-1.48091,761.995,-0.1545753,
2,1,0,1,1,7109.32,-0.141335,-0.141812,7.3567,4,-0.00923544,10,-0.00104327,-2.13332,0.0230979,2.55434,632.453,-0.141812,
2,1,0,1,1,7109.34,-0.12854,-0.129052,14.7977,4,-0.00905595,10,-0.00190968,-1.82981,0.0618252,0.954304,535.376,-0.129052,
2,1,0,1,1,7109.35,-0.115736,-0.116194,21.1399,4,-0.00876646,10,-0.00245633,-1.6749,0.105835,0.557471,453.957,-0.116194,
2,1,0,1,1,7109.37,-0.102932,-0.103362,26.4777,4,-0.00838389,10,-0.00273678,-1.57712,0.158282,0.372752,382.495,-0.103362,
2,1,0,1,1,7109.38,-0.0901362,-0.0905225,31.001,4,-0.00792259,10,-0.00280629,-1.50862,0.216459,0.272569,328.453,-0.0905225,
2,1,0,1,1,7109.4,-0.0773322,-0.0777075,34.8577,4,-0.00739438,10,-0.0027087,-1.4577,0.290492,0.203104,275.499,-0.0777075,
2,1,0,1,1,7109.42,-0.0645393,-0.064919,38.099,4,-0.00680962,10,-0.00247335,-1.41909,0.378154,0.156021,231.439,-0.06491895,
2,1,0,1,1,7109.43,-0.0517325,-0.0521145,40.8093,4,-0.00617744,10,-0.00212676,-1.38924,0.489685,0.120486,191.487,-0.0521145,
2,1,0,1,1,7109.45,-0.0389369,-0.0393398,42.9961,4,-0.00550617,10,-0.00169146,-1.36657,0.645785,0.0913616,153.08,-0.0393398,
2,1,0,1,1,7109.46,-0.0261357,-0.0265237,44.7127,4,-0.00480358,10,-0.00118595,-1.34957,0.879902,0.067053,116.881,-0.0265237,
2,1,0,1,1,7109.48,-0.01334,-0.0137225,45.9664,4,-0.00407728,10,-0.000630774,-1.33756,1.31543,0.0448523,80.399,-0.0137225,
2,1,0,1,1,7109.5,-0.000774628,-0.00115562,46.7938,4,-0.00334841,10,-5.40759e-05,-1.32981, , , ,-0.00115562,
2,1,0,0,1,7109.5,-0.000125413,-0.000535284,46.8302,4,-0.00331096,10,-2.50675e-05,-1.32947, , , ,-0.000535284,