Folder: Figs_alphaMnO2_OER_Tafel_sleope/Figure_codes/Fig_3-5/rawdata_trumpetplot_data/after 10th (part 149)

File: 20221101_1-115_003_TrumpetPlot_ParaChange_from10_every3_10_CV_C01_19.csv
mode,ox/red,error,control changes,counter inc.,time/s,control/V,Ewe/V,<I>/mA,cycle number,(Q-Qo)/C,I Range,P/W,log(|I|),Tafel slope mV/dec,alpha_eff,dI/d(E-IR),E-IR/V,
2,1,0,0,0,38623,-2.44065e-05,-0.000363498,5.19366,20,0.0000000E+000,10,-1.88789e-06,-2.28453, , , ,-0.000363498,
2,1,0,1,0,38623,0.00977853,0.00943263,7.73364,20,0.000328649,10,7.29486e-05,-2.11162,0.117463,0.502284,151.031,0.00943263,
2,1,0,1,0,38623.1,0.0197755,0.0194318,8.86552,20,0.000746386,10,0.000172273,-2.0523,0.235959,0.250043,86.4964,0.0194318,
2,1,0,1,0,38623.1,0.0297726,0.029463,9.62039,20,0.0012094,10,0.000283446,-2.01681,0.347886,0.169596,63.5824,0.029463,
2,1,0,1,0,38623.2,0.0397514,0.0393994,10.2435,20,0.00170512,10,0.000403589,-1.98955,0.368967,0.159906,63.9529,0.0393994,
2,1,0,1,0,38623.2,0.0497393,0.049444,10.8737,20,0.00223185,10,0.000537638,-1.96362,0.382042,0.154433,65.4883,0.049444,
2,1,0,1,0,38623.3,0.0597364,0.0594275,11.5268,20,0.00279153,10,0.000685007,-1.93829,0.386716,0.152567,68.5481,0.0594275,
2,1,0,1,0,38623.3,0.0697152,0.0693672,12.1932,20,0.00338328,10,0.000845807,-1.91388,0.4306,0.137018,65.2507,0.0693672,
2,1,0,1,0,38623.4,0.0796941,0.079366,12.8585,20,0.00400862,10,0.00102053,-1.89081,0.444691,0.132676,66.5587,0.079366,
2,1,0,1,0,38623.4,0.0896911,0.0893694,13.5015,20,0.00466818,10,0.00120663,-1.86962,0.501163,0.117726,62.0789,0.0893694,
2,1,0,1,0,38623.5,0.099679,0.0993288,14.1171,20,0.00535727,10,0.00140224,-1.85025,0.561374,0.105099,57.8309,0.0993288,
2,1,0,1,0,38623.5,0.109658,0.109337,14.7414,20,0.00607666,10,0.00161177,-1.83146,0.464988,0.126885,73.0873,0.109337,
2,1,0,1,0,38623.6,0.119655,0.119313,15.6009,20,0.00683441,10,0.0018614,-1.80685,0.392355,0.150374,91.4702,0.119313,
2,1,0,1,0,38623.6,0.129652,0.129293,16.5918,20,0.00763904,10,0.00214521,-1.78011,0.369406,0.159716,103.498,0.129293,
2,1,0,1,0,38623.7,0.139631,0.139302,17.5716,20,0.00849232,10,0.00244776,-1.75519,0.467157,0.126296,86.5329,0.139302,
2,1,0,1,0,38623.7,0.149619,0.149279,18.3021,20,0.00938857,10,0.00273212,-1.7375,0.725133,0.0813643,58.1129,0.149279,
2,1,0,1,0,38623.8,0.159616,0.1593,18.5902,20,0.0103138,10,0.00296143,-1.73071,-2.91343,-0.0202511,-14.6718,0.1593,
2,1,0,1,0,38623.8,0.169595,0.169262,17.8824,20,0.0112288,10,0.00302681,-1.74757,-0.300841,-0.196117,-136.686,0.169262,
2,1,0,1,0,38623.9,0.179573,0.179248,15.9621,20,0.0120773,10,0.00286117,-1.79691,-0.155854,-0.37856,-235.628,0.179248,
2,1,0,1,0,38623.9,0.18957,0.189279,13.5848,20,0.0128153,10,0.00257132,-1.86695,-0.139669,-0.422428,-224.196,0.189279,
2,1,0,1,0,38624,0.199558,0.199238,11.6862,20,0.0134427,10,0.00232834,-1.93233,-0.175552,-0.336083,-153.2,0.199238,
2,1,0,1,0,38624,0.209537,0.209202,10.3862,20,0.0139907,10,0.00217282,-1.98354,-0.226705,-0.260251,-105.632,0.209202,
2,1,0,1,0,38624.1,0.219534,0.21926,9.52666,20,0.0144869,10,0.00208881,-2.02106,-0.313504,-0.188196,-69.9943,0.21926,
2,1,0,1,0,38624.1,0.229531,0.229224,8.93411,20,0.0149479,10,0.00204791,-2.04895,-0.410147,-0.143851,-50.2478,0.229224,
2,1,0,1,0,38624.2,0.23951,0.23919,8.53522,20,0.0153834,10,0.00204153,-2.06879,-0.574242,-0.102744,-34.2225,0.23919,
2,1,0,1,0,38624.2,0.249498,0.249222,8.22675,20,0.0158012,10,0.00205029,-2.08477,-0.680185,-0.0867411,-27.8593,0.249222,
2,1,0,1,0,38624.3,0.259495,0.259193,8.00041,20,0.0162065,10,0.00207365,-2.09689,-0.806977,-0.0731124,-22.8001,0.259193,
2,1,0,1,0,38624.3,0.269474,0.269131,7.80367,20,0.0166005,10,0.00210021,-2.1077,-1.03639,-0.0569284,-17.3543,0.269131,
2,1,0,1,0,38624.4,0.279453,0.279155,7.64931,20,0.0169858,10,0.00213534,-2.11638,-1.15646,-0.0510178,-15.2101,0.279155,
2,1,0,1,0,38624.4,0.28945,0.289156,7.49419,20,0.0173644,10,0.00216699,-2.12528,-1.48485,-0.0397347,-11.6365,0.289156,
2,1,0,1,0,38624.5,0.299438,0.299124,7.37974,20,0.0177355,10,0.00220746,-2.13196,-0.0671513,-0.878613,-243.431,0.299124,
2,1,0,1,0,38624.5,0.291747,0.29144,0.693651,20,0.0178876,10,0.000202158,-3.15886,0.00210865,27.98,402.858,0.29144,
2,0,0,1,0,38624.6,0.28175,0.281435,-1.79835,20,0.0178499,10,-0.000506118,-2.74513,-0.0256872,-2.29686,157.554,0.281435,
2,0,0,1,0,38624.6,0.27178,0.27144,-2.94234,20,0.0177289,10,-0.000798669,-2.53131,-0.0780479,-0.755946,86.1675,0.27144,
2,0,0,1,0,38624.7,0.261783,0.261455,-3.61599,20,0.0175637,10,-0.000945416,-2.44177,-0.154757,-0.381242,53.7097,0.261455,
2,0,0,1,0,38624.7,0.251786,0.251469,-4.08814,20,0.0173704,10,-0.00102804,-2.38847,-0.225366,-0.261796,41.7639,0.251469,
2,0,0,1,0,38624.8,0.241807,0.24146,-4.46037,20,0.0171565,10,-0.001077,-2.35063,-0.299865,-0.196755,34.3308,0.24146,
2,0,0,1,0,38624.8,0.231824,0.231507,-4.78758,20,0.0169256,10,-0.00110836,-2.31988,-0.363304,-0.162399,30.2882,0.2315066,
2,0,0,1,0,38624.9,0.221822,0.221483,-5.06254,20,0.0166794,10,-0.00112127,-2.29563,-0.433436,-0.136122,26.8583,0.221483,
2,0,0,1,0,38624.9,0.211844,0.211502,-5.32221,20,0.0164203,10,-0.00112566,-2.27391,-0.510696,-0.115529,23.997,0.211502,
2,0,0,1,0,38625,0.201865,0.201506,-5.57414,20,0.0161483,10,-0.00112322,-2.25382,-0.534976,-0.110285,23.9818,0.201506,
2,0,0,1,0,38625,0.191868,0.191522,-5.83201,20,0.0158632,10,-0.00111696,-2.23418,-0.489367,-0.120564,27.482,0.191522,
2,0,0,1,0,38625.1,0.18188,0.181538,-6.11983,20,0.0155652,10,-0.00111098,-2.21326,-0.436768,-0.135083,32.2221,0.181538,
2,0,0,1,0,38625.1,0.171901,0.17159,-6.43893,20,0.0152523,10,-0.00110485,-2.19119,-0.390738,-0.150996,37.9573,0.17159,
2,0,0,1,0,38625.2,0.161904,0.161585,-6.85998,20,0.0149203,10,-0.00110847,-2.16368,-0.329236,-0.179203,47.9356,0.161585,
2,0,0,1,0,38625.2,0.151907,0.151603,-7.44871,20,0.0145635,10,-0.00112925,-2.12792,-0.233335,-0.252856,73.6642,0.151603,
2,0,0,1,0,38625.3,0.141928,0.141603,-8.43858,20,0.0141691,10,-0.00119493,-2.07373,-0.152785,-0.386163,127.21,0.1416032,
2,0,0,1,0,38625.3,0.13194,0.131646,-9.98038,20,0.0137121,10,-0.00131388,-2.00085,-0.124956,-0.472165,184.1,0.1316461,
2,0,0,1,0,38625.4,0.121943,0.12163,-11.9613,20,0.013164,10,-0.00145485,-1.92222,-0.140132,-0.42103,196.3,0.12163,
2,0,0,1,0,38625.4,0.111964,0.111663,-13.9001,20,0.0125177,10,-0.00155213,-1.85698,-0.175324,-0.336519,182.606,0.111663,
2,0,0,1,0,38625.5,0.101985,0.101687,-15.5331,20,0.0117813,10,-0.00157951,-1.80874,-0.256173,-0.230313,139.404,0.101687,
2,0,0,1,0,38625.5,0.0919883,0.091686,-16.6767,20,0.0109738,10,-0.00152902,-1.77789,-0.409654,-0.144024,93.7896,0.091686,
2,0,0,1,0,38625.6,0.0820004,0.0817255,-17.2636,20,0.010124,10,-0.00141088,-1.76287,-1.54123,-0.0382812,25.7477,0.0817255,
2,0,0,1,0,38625.6,0.0720215,0.071672,-17.2203,20,0.00926168,10,-0.00123421,-1.76396,1.52952,0.0385741,-25.936,0.07167203,
2,0,0,1,0,38625.7,0.0620245,0.0617163,-16.8797,20,0.0084085,10,-0.00104175,-1.77264,0.927037,0.0636437,-41.9065,0.0617163,
2,0,0,1,0,38625.7,0.0520275,0.0516937,-16.4885,20,0.00757446,10,-0.000852349,-1.78282,1.00027,0.0589841,-37.9726,0.0516937,
2,0,0,1,0,38625.8,0.0420486,0.0417336,-16.1271,20,0.00676072,10,-0.000673042,-1.79244,1.07189,0.0550432,-34.6264,0.0417336,
2,0,0,1,0,38625.8,0.0320607,0.031737,-15.7187,20,0.00596606,10,-0.000498865,-1.80358,0.848817,0.0695085,-42.6558,0.031737,
2,0,0,1,0,38625.9,0.0220637,0.0217249,-15.2477,20,0.00519162,10,-0.000331254,-1.8168,0.658083,0.0896544,-53.306,0.0217249,
2,0,0,1,0,38625.9,0.0120848,0.0117617,-14.6337,20,0.00444573,10,-0.000172117,-1.83465,0.489671,0.120489,-68.8664,0.0117617,
2,0,0,1,0,38626,0.00210598,0.0017283,-14.0042,20,0.00373243,10,-2.42034e-05,-1.85374,0.540893,0.109079,-59.424,0.0017283,
2,0,0,1,0,38626,-0.00789103,-0.00825958,-13.329,20,0.00304985,10,0.000110092,-1.8752,0.572022,0.103143,-53.7422,-0.00825958,
2,0,0,1,0,38626.1,-0.017879,-0.0182396,-12.8903,20,0.00239632,10,0.000235114,-1.88974,0.865695,0.0681533,-34.2621,-0.0182396,
2,0,0,1,0,38626.1,-0.0278578,-0.0282397,-12.6184,20,0.00176078,10,0.000356339,-1.899,1.63671,0.036048,-17.781,-0.0282397,
2,0,0,1,0,38626.2,-0.0378548,-0.0382128,-12.552,20,0.0011321,10,0.000479647,-1.90129,25.4953,0.00231416,-1.13245,-0.0382128,
2,0,0,1,0,38626.2,-0.0478519,-0.0482059,-12.6061,20,0.000503502,10,0.000607688,-1.89942,-1.83885,-0.0320853,15.8098,-0.0482059,
2,0,0,1,0,38626.3,-0.0578126,-0.0581851,-12.8043,20,-0.00012891,10,0.000745018,-1.89264,-1.29625,-0.0455158,22.7279,-0.0581851,
2,0,0,1,0,38626.3,-0.0678187,-0.068166,-13.0781,20,-0.000775554,10,0.00089148,-1.88346,-0.928484,-0.0635444,32.4463,-0.068166,
2,0,0,1,0,38626.4,-0.0778157,-0.0781409,-13.4515,20,-0.0014386,10,0.00105111,-1.87123,-0.77771,-0.0758638,39.8287,-0.0781409,
2,0,0,1,0,38626.4,-0.0877945,-0.0881747,-13.9279,20,-0.0021213,10,0.00122809,-1.85611,-0.617499,-0.0955467,51.9433,-0.0881747,
2,0,0,1,0,38626.5,-0.0977734,-0.0981305,-14.4805,20,-0.00282995,10,0.00142098,-1.83922,-0.554026,-0.106493,60.2005,-0.0981305,
2,0,0,1,1,38626.5,-0.0936874,-0.0941125,-7.02744,20,-0.00331227,10,0.00066137,-2.1532,-0.0198592,-2.97091,814.01,-0.0941125,
2,0,0,1,1,38626.6,-0.0837086,-0.0841065,-1.05688,20,-0.0034992,10,8.88907e-05,-2.97597,-0.00387501,-15.2258,451.392,-0.0841065,
2,1,0,1,1,38626.6,-0.0737025,-0.0741004,2.64568,20,-0.00345251,10,-0.000196046,-2.57746,0.0194452,3.03417,305.084,-0.0741004,
2,1,0,1,1,38626.7,-0.0637236,-0.0640905,5.15459,20,-0.00325393,10,-0.00033036,-2.28781,0.0568131,1.03849,207.476,-0.0640905,
2,1,0,1,1,38626.7,-0.0537447,-0.0541377,6.88911,20,-0.0029506,10,-0.00037296,-2.16184,0.113188,0.521255,139.964,-0.0541377,
2,1,0,1,1,38626.8,-0.0437477,-0.0441559,8.09437,20,-0.00257376,10,-0.000357414,-2.09182,0.190769,0.309274,97.5178,-0.0441559,
2,1,0,1,1,38626.8,-0.0337507,-0.0340969,8.90943,20,-0.00214707,10,-0.000303784,-2.05015,0.310328,0.190122,66.1077,-0.0340969,
2,1,0,1,1,38626.9,-0.0237809,-0.0241689,9.44014,20,-0.00168919,10,-0.000228158,-2.02502,0.521109,0.11322,41.6472,-0.0241689,
2,1,0,1,1,38626.9,-0.0137839,-0.0141272,9.74256,20,-0.00120883,10,-0.000137635,-2.01133,1.12676,0.0523623,19.9305,-0.0141272,
2,1,0,1,1,38627,-0.0037869,-0.00418617,9.92304,20,-0.000716538,10,-4.15395e-05,-2.00336,1.74718,0.0337688,13.0698,-0.00418617,
2,1,0,1,1,38627,-2.55332e-05,-0.000287149,9.96072,20,-0.000530605,10,-2.86021e-06,-2.00171, , , ,-0.0002871489,

File: 20221101_1-115_003_TrumpetPlot_ParaChange_from10_every3_10_CV_C01_20.csv
mode,ox/red,error,control changes,counter inc.,time/s,control/V,Ewe/V,<I>/mA,cycle number,(Q-Qo)/C,I Range,P/W,log(|I|),Tafel slope mV/dec,alpha_eff,dI/d(E-IR),E-IR/V,
2,1,0,0,0,40593.1,-2.44065e-05,-0.00042076,5.14405,21,0.0000000E+000,10,-2.16441e-06,-2.28869, , , ,-0.00042076,
2,1,0,1,0,40593.2,0.00977853,0.00943958,7.49692,21,0.000319609,10,7.07678e-05,-2.12512,0.117837,0.50069,145.793,0.00943958,
2,1,0,1,0,40593.2,0.0197755,0.0194786,8.5934,21,0.000724383,10,0.000167388,-2.06584,0.22822,0.258522,86.7385,0.0194786,
2,1,0,1,0,40593.3,0.0297726,0.0294344,9.34658,21,0.00117403,10,0.000275111,-2.02935,0.33229,0.177556,64.7063,0.0294344,
2,1,0,1,0,40593.3,0.0397514,0.0393866,9.95887,21,0.00165614,10,0.000392246,-2.00179,0.361666,0.163134,63.504,0.0393866,
2,1,0,1,0,40593.4,0.0497394,0.0494318,10.5868,21,0.00216862,10,0.000523323,-1.97524,0.386791,0.152537,62.9119,0.0494318,
2,1,0,1,0,40593.4,0.0597364,0.0593919,11.2012,21,0.00271285,10,0.000665264,-1.95073,0.395079,0.149337,65.2537,0.0593919,
2,1,0,1,0,40593.5,0.0697152,0.0693482,11.844,21,0.00328767,10,0.00082136,-1.9265,0.411682,0.143315,66.2561,0.0693482,
2,1,0,1,0,40593.5,0.0796941,0.0793208,12.4859,21,0.00389508,10,0.000990394,-1.90358,0.45302,0.130237,63.4937,0.0793208,
2,1,0,1,0,40593.6,0.0896911,0.0893703,13.1129,21,0.00453532,10,0.00117191,-1.8823,0.489964,0.120417,61.6221,0.0893703,
2,1,0,1,0,40593.6,0.099679,0.0993558,13.7017,21,0.00520462,10,0.00136134,-1.86323,0.571029,0.103322,55.2377,0.0993558,
2,1,0,1,0,40593.7,0.109658,0.109276,14.3058,21,0.00590292,10,0.00156328,-1.84449,0.495508,0.11907,66.4913,0.109276,
2,1,0,1,0,40593.7,0.119655,0.119305,15.0704,21,0.00663663,10,0.00179798,-1.82187,0.417454,0.141333,83.1619,0.119305,
2,1,0,1,0,40593.8,0.129652,0.129283,15.9959,21,0.00741296,10,0.00206799,-1.79599,0.382588,0.154213,96.2243,0.129283,
2,1,0,1,0,40593.8,0.139631,0.139339,16.9121,21,0.00823468,10,0.00235651,-1.7718,0.444133,0.132843,87.7163,0.139339,
2,1,0,1,0,40593.9,0.149619,0.149269,17.6861,21,0.00909885,10,0.00263998,-1.75237,0.623501,0.0946269,65.2329,0.149269,
2,1,0,1,0,40593.9,0.159616,0.159275,18.0732,21,0.00999508,10,0.00287861,-1.74296,5.58706,0.0105601,7.44769,0.159275,
2,1,0,1,0,40594,0.169595,0.169253,17.7005,21,0.0108917,10,0.00299585,-1.75202,-0.437025,-0.135004,-93.0524,0.169253,
2,1,0,1,0,40594,0.179573,0.179234,16.2008,21,0.0117414,10,0.00290374,-1.79046,-0.191552,-0.30801,-194.649,0.179234,
2,1,0,1,0,40594.1,0.18957,0.189203,14.1233,21,0.0124997,10,0.00267218,-1.85006,-0.157204,-0.37531,-206.786,0.189203,
2,1,0,1,0,40594.1,0.199558,0.199244,12.2688,21,0.0131559,10,0.00244448,-1.9112,-0.179772,-0.328193,-157.209,0.199244,
2,1,0,1,0,40594.2,0.209537,0.209203,10.9241,21,0.0137321,10,0.00228536,-1.96161,-0.214738,-0.274754,-117.155,0.209203,
2,1,0,1,0,40594.2,0.219534,0.219176,9.96818,21,0.0142528,10,0.00218479,-2.00138,-0.298613,-0.19758,-76.9412,0.219176,
2,1,0,1,0,40594.3,0.229531,0.229189,9.30064,21,0.0147337,10,0.00213161,-2.03149,-0.376498,-0.156707,-56.8888,0.229189,
2,1,0,1,0,40594.3,0.23951,0.23919,8.81728,21,0.0151852,10,0.00210901,-2.05467,-0.525655,-0.112241,-38.6729,0.23919,
2,1,0,1,0,40594.4,0.249498,0.24922,8.45953,21,0.0156158,10,0.00210828,-2.07265,-0.617434,-0.0955568,-31.5264,0.2492197,
2,1,0,1,0,40594.4,0.259495,0.259154,8.17771,21,0.0160312,10,0.00211928,-2.08737,-0.722862,-0.08162,-26.0468,0.259154,
2,1,0,1,0,40594.5,0.269474,0.269184,7.94714,21,0.0164332,10,0.00213924,-2.09979,-0.894888,-0.06593,-20.4478,0.269184,
2,1,0,1,0,40594.5,0.279453,0.279136,7.75629,21,0.016825,10,0.00216506,-2.11035,-1.06188,-0.0555618,-16.8392,0.279136,
2,1,0,1,0,40594.6,0.28945,0.289142,7.59396,21,0.0172088,10,0.00219574,-2.11953,-1.21316,-0.0486334,-14.4111,0.289142,
2,1,0,1,0,40594.6,0.299438,0.299151,7.44712,21,0.0175841,10,0.00222781,-2.12801,-0.0724053,-0.814858,-229.318,0.299151,
2,1,0,1,0,40594.7,0.291747,0.291436,1.17124,21,0.0177525,10,0.000341341,-2.93135,0.00604539,9.7595,404.699,0.2914356,
2,0,0,1,0,40594.7,0.28175,0.281424,-1.39632,21,0.0177373,10,-0.000392959,-2.85501,-0.0181211,-3.25587,171.032,0.281424,
2,0,0,1,0,40594.8,0.27178,0.271468,-2.63517,21,0.0176339,10,-0.000715363,-2.57919,-0.0635229,-0.928799,94.6451,0.271468,
2,0,0,1,0,40594.8,0.261783,0.261419,-3.37117,21,0.0174823,10,-0.000881288,-2.47222,-0.13118,-0.449762,59.1737,0.261419,
2,0,0,1,0,40594.9,0.251786,0.251449,-3.90363,21,0.0172997,10,-0.000981565,-2.40853,-0.195005,-0.302556,45.955,0.251449,
2,0,0,1,0,40594.9,0.241807,0.241493,-4.29353,21,0.0170946,10,-0.00103686,-2.36719,-0.26778,-0.22033,37.0815,0.241493,
2,0,0,1,0,40595,0.231824,0.231506,-4.64633,21,0.0168712,10,-0.00107565,-2.33289,-0.328388,-0.179666,32.515,0.231506,
2,0,0,1,0,40595,0.221822,0.221511,-4.92935,21,0.0166316,10,-0.0010919,-2.30721,-0.397876,-0.148287,28.5516,0.221511,
2,0,0,1,0,40595.1,0.211843,0.211544,-5.20803,21,0.0163785,10,-0.00110173,-2.28333,-0.509327,-0.115839,23.5175,0.2115439,
2,0,0,1,0,40595.1,0.201865,0.201544,-5.46016,21,0.0161122,10,-0.00110046,-2.26279,-0.544895,-0.108278,23.1046,0.2015439,
2,0,0,1,0,40595.2,0.191868,0.191543,-5.72414,21,0.0158324,10,-0.00109642,-2.24229,-0.492525,-0.119791,26.7613,0.191543,
2,0,0,1,0,40595.2,0.18188,0.181586,-6.0032,21,0.0155401,10,-0.00109009,-2.22162,-0.43691,-0.135039,31.6311,0.181586,
2,0,0,1,0,40595.3,0.171901,0.171566,-6.31818,21,0.015233,10,-0.00108399,-2.19941,-0.42059,-0.140279,34.5534,0.171566,
2,0,0,1,0,40595.3,0.161904,0.161545,-6.69964,21,0.0149081,10,-0.00108229,-2.17395,-0.34916,-0.168977,44.2338,0.161545,
2,0,0,1,0,40595.4,0.151907,0.151624,-7.2491,21,0.01456,10,-0.00109913,-2.13972,-0.259375,-0.22747,64.4144,0.151624,
2,0,0,1,0,40595.4,0.141928,0.141625,-8.11634,21,0.0141783,10,-0.00114948,-2.09064,-0.167721,-0.351775,111.633,0.141625,
2,0,0,1,0,40595.5,0.13194,0.131633,-9.491,21,0.0137411,10,-0.00124933,-2.02269,-0.133507,-0.441924,163.729,0.131633,
2,0,0,1,0,40595.5,0.121943,0.121582,-11.288,21,0.0132223,10,-0.00137242,-1.94738,-0.143182,-0.412063,181.424,0.121582,
2,0,0,1,0,40595.6,0.111964,0.111634,-13.1215,21,0.0126127,10,-0.0014648,-1.88202,-0.172194,-0.342637,175.312,0.111634,
2,0,0,1,0,40595.6,0.101985,0.101672,-14.7005,21,0.0119169,10,-0.00149463,-1.83267,-0.24326,-0.242539,139.09,0.101672,
2,0,0,1,0,40595.7,0.0919883,0.0916903,-15.9018,21,0.0111499,10,-0.00145804,-1.79855,-0.363222,-0.162435,100.74,0.0916903,
2,0,0,1,0,40595.7,0.0820004,0.0816682,-16.6034,21,0.0103361,10,-0.00135597,-1.7798,-0.938284,-0.0628808,40.734,0.0816682,
2,0,0,1,0,40595.8,0.0720215,0.0716538,-16.7714,21,0.00950139,10,-0.00120173,-1.77543,5.42899,0.0108676,-7.10811,0.0716538,
2,0,0,1,0,40595.8,0.0620245,0.0617093,-16.5769,21,0.00866679,10,-0.00102295,-1.7805,1.42742,0.0413332,-26.7555,0.0617093,
2,0,0,1,0,40595.9,0.0520275,0.0517076,-16.3062,21,0.00784455,10,-0.000843155,-1.78765,1.31248,0.044953,-28.5853,0.0517076,
2,0,0,1,0,40595.9,0.0420486,0.041732,-16.0008,21,0.00703842,10,-0.000667746,-1.79586,1.17032,0.0504134,-31.5006,0.041732,
2,0,0,1,0,40596,0.0320607,0.0317041,-15.675,21,0.00624794,10,-0.00049696,-1.80479,0.985833,0.0598478,-36.5805,0.0317041,
2,0,0,1,0,40596,0.0220637,0.0217813,-15.2504,21,0.00547454,10,-0.000332172,-1.81672,0.737933,0.0799531,-47.5952,0.0217813,
2,0,0,1,0,40596.1,0.0120848,0.0117617,-14.7237,21,0.00472628,10,-0.000173176,-1.83198,0.55004,0.107265,-61.607,0.01176172,
2,0,0,1,0,40596.1,0.00210598,0.00170054,-14.1334,21,0.00400729,10,-2.40343e-05,-1.84975,0.57346,0.102884,-56.6366,0.00170054,
2,0,0,1,0,40596.2,-0.00789103,-0.00822574,-13.4947,21,0.00331716,10,0.000111004,-1.86984,0.561015,0.105167,-55.4091,-0.00822574,
2,0,0,1,0,40596.2,-0.017879,-0.0182253,-13.0261,21,0.00265609,10,0.000237404,-1.88519,0.796979,0.0740296,-37.6315,-0.0182253,
2,0,0,1,0,40596.3,-0.0278578,-0.028257,-12.7222,21,0.0020145,10,0.000359492,-1.89544,1.28334,0.0459738,-22.8346,-0.028257,
2,0,0,1,0,40596.3,-0.0378549,-0.0382189,-12.5955,21,0.00138225,10,0.000481386,-1.89978,4.69778,0.0125591,-6.17401,-0.0382189,
2,0,0,1,0,40596.4,-0.0478519,-0.0482527,-12.6107,21,0.000752688,10,0.0006085,-1.89926,-2.67395,-0.0220647,10.8581,-0.0482527,
2,0,0,1,0,40596.4,-0.0578126,-0.0581894,-12.7386,21,0.000121792,10,0.000741252,-1.89488,-1.49408,-0.0394891,19.6427,-0.0581894,
2,0,0,1,0,40596.5,-0.0678187,-0.0681903,-12.984,21,-0.00052075,10,0.000885381,-1.88659,-1.02663,-0.0574699,29.0914,-0.0681903,
2,0,0,1,0,40596.5,-0.0778157,-0.0782077,-13.294,21,-0.0011773,10,0.00103969,-1.87634,-0.831628,-0.0709451,36.8402,-0.0782077,
2,0,0,1,0,40596.6,-0.0877945,-0.0881469,-13.723,21,-0.00185111,10,0.00120964,-1.86255,-0.666243,-0.0885563,47.4243,-0.0881469,
2,0,0,1,0,40596.6,-0.0977734,-0.0981288,-14.2296,21,-0.00254836,10,0.00139633,-1.84681,-0.567132,-0.104032,57.8102,-0.0981288,
2,0,0,1,1,40596.7,-0.0936874,-0.0940608,-7.4328,21,-0.00303326,10,0.000699135,-2.12885,-0.022742,-2.59431,753.573,-0.0940608,
2,0,0,1,1,40596.7,-0.0837086,-0.0840744,-1.75303,21,-0.00324918,10,0.000147385,-2.75621,-0.00849547,-6.94488,439.603,-0.0840744,
2,1,0,1,1,40596.8,-0.0737025,-0.0741221,1.88721,21,-0.0032394,10,-0.000139884,-2.72418,0.0138376,4.26375,297.586,-0.0741221,
2,1,0,1,1,40596.8,-0.0637236,-0.0640969,4.39206,21,-0.00307905,10,-0.000281518,-2.35733,0.0477809,1.2348,210.691,-0.0640969,
2,1,0,1,1,40596.9,-0.0537448,-0.0541143,6.19403,21,-0.00281221,10,-0.000335185,-2.20803,0.095055,0.620693,149.486,-0.0541143,
2,1,0,1,1,40596.9,-0.0437477,-0.0440917,7.46356,21,-0.00246859,10,-0.000329081,-2.12705,0.159261,0.370461,107.895,-0.0440917,
2,1,0,1,1,40597,-0.0337507,-0.0341099,8.37387,21,-0.00207105,10,-0.000285632,-2.07707,0.258331,0.228389,74.5319,-0.03410989,
2,1,0,1,1,40597,-0.0237809,-0.0241862,8.974,21,-0.00163807,10,-0.000217047,-2.04701,0.406721,0.145063,50.7929,-0.0241862,
2,1,0,1,1,40597.1,-0.0137839,-0.014174,9.36417,21,-0.00117861,10,-0.000132728,-2.02853,0.785021,0.0751572,27.475,-0.014174,
2,1,0,1,1,40597.1,-0.0037869,-0.00416188,9.60921,21,-0.00070358,10,-3.99924e-05,-2.01731,1.20218,0.0490776,18.4091,-0.00416188,
2,1,0,1,1,40597.1,-2.55332e-05,-0.000325324,9.64779,21,-0.000523263,10,-3.13865e-06,-2.01557, , , ,-0.000325324,