Folder: Figs_alphaMnO2_OER_Tafel_sleope/Figure_codes/Fig_3-5/rawdata_trumpetplot_data/after 10th (part 79)

File: 20221101_1-115_003_TrumpetPlot_ParaChange_from10_every3_06_CV_C01_19.csv
mode,ox/red,error,control changes,counter inc.,time/s,control/V,Ewe/V,<I>/mA,cycle number,(Q-Qo)/C,I Range,P/W,log(|I|),Tafel slope mV/dec,alpha_eff,dI/d(E-IR),E-IR/V,
2,0,0,0,0,38582.5,2.44065e-05,-0.000401673,-1.42552,20,0.0000000E+000,10,5.72593e-07,-2.84603, , , ,-0.000401673,
2,1,0,1,0,38582.7,0.00729063,0.00695973,1.13728,20,7.48895e-05,10,7.91514e-06,-2.94413,0.0260481,2.26504,96.3111,0.00695973,
2,1,0,1,0,38582.9,0.014778,0.0144689,1.54458,20,0.000335442,10,2.23484e-05,-2.81119,0.101245,0.582746,34.8712,0.01446888,
2,1,0,1,0,38583.1,0.0222743,0.0219376,1.74564,20,0.000648366,10,3.82952e-05,-2.75805,0.163993,0.359772,24.6018,0.0219376,
2,1,0,1,0,38583.2,0.0297626,0.0294436,1.92994,20,0.000996035,10,5.68242e-05,-2.71446,0.189151,0.311919,23.4258,0.0294436,
2,1,0,1,0,38583.4,0.0372544,0.0369358,2.09897,20,0.00137626,10,7.75273e-05,-2.67799,0.222689,0.264943,21.6753,0.0369358,
2,1,0,1,0,38583.6,0.0447472,0.0444469,2.26792,20,0.00178876,10,0.000100802,-2.64437,0.238558,0.247319,21.9454,0.0444469,
2,1,0,1,0,38583.8,0.0522345,0.0519594,2.43766,20,0.00223261,10,0.000126659,-2.61303,0.243382,0.242418,23.0398,0.0519594,
2,1,0,1,0,38584,0.0597308,0.0594423,2.59435,20,0.00270725,10,0.000154214,-2.58597,0.290264,0.203263,20.5456,0.0594423,
2,1,0,1,0,38584.2,0.0672182,0.0669304,2.7342,20,0.00320905,10,0.000183001,-2.56317,0.323126,0.182591,19.4816,0.0669304,
2,1,0,1,0,38584.4,0.0747074,0.0743933,2.86124,20,0.00373587,10,0.000212857,-2.54345,0.463332,0.127339,14.1794,0.0743933,
2,1,0,1,0,38584.5,0.0822019,0.0818577,2.95595,20,0.0042843,10,0.000241967,-2.5293,0.537334,0.109801,12.6967,0.0818577,
2,1,0,1,0,38584.7,0.0896911,0.0893665,3.06042,20,0.00485063,10,0.000273499,-2.51422,0.473598,0.124578,14.8897,0.0893665,
2,1,0,1,0,38584.9,0.097182,0.0968474,3.20291,20,0.00543915,10,0.000310193,-2.49446,0.289453,0.203833,25.4847,0.0968474,
2,1,0,1,0,38585.1,0.104675,0.104379,3.42646,20,0.00606172,10,0.000357649,-2.46515,0.227207,0.259675,34.7709,0.104379,
2,1,0,1,0,38585.3,0.112162,0.111863,3.71433,20,0.00673274,10,0.000415498,-2.43012,0.2323,0.253982,36.7319,0.111863,
2,1,0,1,0,38585.5,0.119655,0.119346,3.97088,20,0.00745626,10,0.000473908,-2.40111,0.356312,0.165585,25.6085,0.1193458,
2,1,0,1,0,38585.7,0.127146,0.126811,4.12395,20,0.00821906,10,0.000522962,-2.38469,0.56192,0.104997,16.9264,0.126811,
2,1,0,1,0,38585.9,0.134635,0.134293,4.22968,20,0.0090054,10,0.000568017,-2.37369,1.36319,0.0432808,7.13847,0.134293,
2,1,0,1,0,38586,0.142129,0.141803,4.21386,20,0.00980268,10,0.000597537,-2.37532,-0.52159,-0.113116,-18.5408,0.141803,
2,1,0,1,0,38586.2,0.149619,0.149304,3.85979,20,0.0105682,10,0.000576282,-2.41344,-0.117902,-0.500414,-75.1841,0.149304,
2,1,0,1,0,38586.4,0.157106,0.156779,3.18888,20,0.0112327,10,0.000499949,-2.49636,-0.0786562,-0.7501,-93.1047,0.156779,
2,1,0,1,0,38586.6,0.164602,0.164282,2.59287,20,0.0117731,10,0.000425963,-2.58622,-0.0964156,-0.611934,-62.1851,0.164282,
2,1,0,1,0,38586.8,0.172091,0.171807,2.24298,20,0.0122256,10,0.000385359,-2.64917,-0.148154,-0.398233,-34.9649,0.171807,
2,1,0,1,0,38587,0.179582,0.179235,2.05047,20,0.0126284,10,0.000367515,-2.68815,-0.242689,-0.24311,-19.4329,0.179235,
2,1,0,1,0,38587.2,0.187074,0.186783,1.9331,20,0.0130034,10,0.00036107,-2.71375,-0.424854,-0.138871,-10.503,0.186783,
2,1,0,1,0,38587.4,0.194563,0.194208,1.86568,20,0.0133616,10,0.00036233,-2.72916,-0.518687,-0.113749,-8.27611,0.194208,
2,1,0,1,0,38587.5,0.202059,0.201764,1.82091,20,0.0137096,10,0.000367395,-2.73971,-0.767488,-0.0768742,-5.45097,0.201764,
2,1,0,1,0,38587.7,0.209546,0.209247,1.78507,20,0.0140501,10,0.000373521,-2.74835,-0.686911,-0.0858917,-5.99773,0.209247,
2,1,0,1,0,38587.9,0.217035,0.216687,1.76137,20,0.0143848,10,0.000381667,-2.75415,-1.3246,-0.0445419,-3.05638,0.216687,
2,1,0,1,0,38588.1,0.22453,0.224214,1.74018,20,0.0147156,10,0.000390173,-2.7594,-1.71097,-0.0344834,-2.34222,0.224214,
2,1,0,1,0,38588.3,0.232019,0.231742,1.72141,20,0.0150425,10,0.000398921,-2.76412,-3.21359,-0.0183596,-1.23454,0.231742,
2,1,0,1,0,38588.5,0.23951,0.23924,1.71209,20,0.0153665,10,0.000409601,-2.76647,-1.90735,-0.030933,-2.05838,0.23924,
2,1,0,1,0,38588.7,0.247003,0.246682,1.69028,20,0.0156879,10,0.000416963,-2.77204,-1.50932,-0.0390905,-2.583,0.246682,
2,1,0,1,0,38588.9,0.25449,0.2542,1.67745,20,0.0160066,10,0.000426408,-2.77535,-1.59985,-0.0368784,-2.41752,0.2542,
2,1,0,1,0,38589,0.261983,0.261641,1.66614,20,0.0163231,10,0.000435932,-2.77829,-2.29624,-0.0256942,-1.67057,0.261641,
2,1,0,1,0,38589.2,0.269474,0.269147,1.65382,20,0.0166373,10,0.00044512,-2.78151,-2.99422,-0.0197046,-1.27454,0.269147,
2,1,0,1,0,38589.4,0.276963,0.276656,1.64528,20,0.0169491,10,0.000455178,-2.78376,-3.35945,-0.0175624,-1.12607,0.276656,
2,1,0,1,0,38589.6,0.284458,0.284151,1.63319,20,0.0172588,10,0.000464074,-2.78696,-2.49303,-0.023666,-1.50419,0.284151,
2,1,0,1,0,38589.8,0.291947,0.291615,1.6151,20,0.0175655,10,0.000470987,-2.7918,-1.09364,-0.0539483,-3.40527,0.291615,
2,1,0,1,0,38590,0.299434,0.299132,1.60208,20,0.0178695,10,0.000479234,-2.79532,-0.0160937,-3.66603,-196.851,0.299132,
2,0,0,1,0,38590.1,0.294196,0.293875,-0.315802,20,0.0179136,10,-9.28062e-05,-3.50059,-0.00838562,-7.03585,70.5842,0.293875,
2,0,0,1,0,38590.3,0.286701,0.286375,-0.582476,20,0.0178213,10,-0.000166807,-3.23472,-0.0602845,-0.978692,22.185,0.286375,
2,0,0,1,0,38590.5,0.279212,0.278898,-0.711678,20,0.0176956,10,-0.000198486,-3.14772,-0.113379,-0.520378,14.4952,0.2788983,
2,0,0,1,0,38590.7,0.271725,0.271425,-0.803165,20,0.0175496,10,-0.000217999,-3.0952,-0.141423,-0.417188,13.1383,0.271425,
2,0,0,1,0,38590.9,0.264228,0.263916,-0.881319,20,0.0173878,10,-0.000232594,-3.05487,-0.208528,-0.282935,9.71627,0.263916,
2,0,0,1,0,38591.1,0.256741,0.256421,-0.944996,20,0.0172135,10,-0.000242317,-3.02457,-0.280775,-0.210133,7.73518,0.256421,
2,0,0,1,0,38591.3,0.249248,0.248914,-1.0004,20,0.0170278,10,-0.000249014,-2.99982,-0.346916,-0.17007,6.65013,0.248914,
2,0,0,1,0,38591.5,0.241756,0.241453,-1.05245,20,0.016832,10,-0.000254118,-2.9778,-0.374504,-0.157542,6.45792,0.241453,
2,0,0,1,0,38591.6,0.234268,0.233929,-1.10369,20,0.0166269,10,-0.000258186,-2.95715,-0.366875,-0.160818,6.91344,0.233929,
2,0,0,1,0,38591.8,0.226772,0.226491,-1.14543,20,0.0164128,10,-0.00025943,-2.94103,-0.401064,-0.147109,6.59404,0.226491,
2,0,0,1,0,38592,0.219284,0.218948,-1.19548,20,0.0161906,10,-0.000261749,-2.92246,-0.523765,-0.112646,5.22664,0.218948,
2,0,0,1,0,38592.2,0.211796,0.211485,-1.237,20,0.0159599,10,-0.000261607,-2.90763,-0.742273,-0.0794856,3.83612,0.211485,
2,0,0,1,0,38592.4,0.204301,0.203955,-1.28265,20,0.0157204,10,-0.000261603,-2.89189,-0.559208,-0.105506,5.28828,0.203955,
2,0,0,1,0,38592.6,0.196812,0.196469,-1.32608,20,0.0154726,10,-0.000260532,-2.87743,-0.512098,-0.115212,5.96986,0.1964688,
2,0,0,1,0,38592.8,0.189321,0.188962,-1.37935,20,0.0152157,10,-0.000260645,-2.86033,-0.402789,-0.146479,7.91016,0.1889621,
2,0,0,1,0,38592.9,0.181828,0.181483,-1.43642,20,0.0149487,10,-0.000260685,-2.84272,-0.430586,-0.137023,7.67599,0.181483,
2,0,0,1,0,38593.1,0.174341,0.174006,-1.50681,20,0.0146703,10,-0.000262194,-2.82194,-0.326131,-0.180909,10.6204,0.174006,
2,0,0,1,0,38593.3,0.166848,0.166525,-1.58781,20,0.0143773,10,-0.00026441,-2.7992,-0.296049,-0.199291,12.3995,0.166525,
2,0,0,1,0,38593.5,0.159357,0.159007,-1.7137,20,0.0140654,10,-0.00027249,-2.76606,-0.215572,-0.27369,18.2704,0.159007,
2,0,0,1,0,38593.7,0.151868,0.151532,-1.88994,20,0.013726,10,-0.000286386,-2.72355,-0.1455,-0.405498,30.0317,0.151532,
2,0,0,1,0,38593.9,0.144373,0.144087,-2.19136,20,0.0133421,10,-0.000315747,-2.65929,-0.0968177,-0.609393,52.3725,0.144087,
2,0,0,1,0,38594.1,0.136884,0.136559,-2.6626,20,0.0128865,10,-0.000363601,-2.57469,-0.0862198,-0.684298,70.9597,0.136559,
2,0,0,1,0,38594.3,0.129393,0.129081,-3.21648,20,0.0123331,10,-0.000415185,-2.49262,-0.100498,-0.587078,73.5095,0.129081,
2,0,0,1,0,38594.4,0.1219,0.121608,-3.71101,20,0.0116795,10,-0.000451289,-2.43051,-0.149972,-0.393408,56.861,0.121608,
2,0,0,1,0,38594.6,0.114413,0.114089,-4.07215,20,0.0109457,10,-0.000464586,-2.39018,-0.251072,-0.234992,37.2096,0.114089,
2,0,0,1,0,38594.8,0.10692,0.106636,-4.24351,20,0.0101606,10,-0.000452513,-2.37228,-0.871036,-0.0677354,11.2177,0.106636,
2,0,0,1,0,38595,0.0994284,0.0991138,-4.24124,20,0.00935922,10,-0.000420365,-2.37251,0.820373,0.0719185,-11.9009,0.0991138,
2,0,0,1,0,38595.2,0.0919401,0.0916198,-4.10607,20,0.00857344,10,-0.000376197,-2.38657,0.439944,0.134108,-21.4735,0.0916198,
2,0,0,1,0,38595.4,0.0844447,0.0840875,-3.94481,20,0.00781593,10,-0.00033171,-2.40397,0.52385,0.112628,-17.3573,0.0840875,
2,0,0,1,0,38595.6,0.0769565,0.0766189,-3.82576,20,0.00708575,10,-0.000293125,-2.41728,0.574523,0.102694,-15.3392,0.0766189,
2,0,0,1,0,38595.8,0.0694682,0.0691474,-3.7302,20,0.00637535,10,-0.000257934,-2.42827,0.695708,0.0848057,-12.341,0.0691474,
2,0,0,1,0,38595.9,0.0619728,0.0616626,-3.63046,20,0.00568182,10,-0.000223864,-2.44004,0.645053,0.0914653,-12.981,0.0616626,
2,0,0,1,0,38596.1,0.0544836,0.0541327,-3.53492,20,0.00500724,10,-0.000191355,-2.45162,0.706965,0.0834554,-11.5076,0.0541327,
2,0,0,1,0,38596.3,0.0469927,0.0467028,-3.42895,20,0.00435165,10,-0.000160142,-2.46484,0.55582,0.106149,-14.1961,0.0467028,
2,0,0,1,0,38596.5,0.0394999,0.0391965,-3.31306,20,0.00371693,10,-0.00012986,-2.47977,0.433441,0.13612,-17.5945,0.0391965,
2,0,0,1,0,38596.7,0.0320125,0.0316798,-3.18726,20,0.00310555,10,-0.000100972,-2.49658,0.407562,0.144763,-17.9632,0.0316798,
2,0,0,1,0,38596.9,0.0245198,0.0242282,-3.04755,20,0.0025185,10,-7.38366e-05,-2.51605,0.402345,0.14664,-17.4681,0.0242282,
2,0,0,1,0,38597.1,0.0170289,0.0167283,-2.93365,20,0.00195489,10,-4.90751e-05,-2.53259,0.450065,0.131092,-15.0393,0.0167283,
2,0,0,1,0,38597.3,0.0095397,0.00918868,-2.84875,20,0.00141091,10,-2.61762e-05,-2.54535,0.734758,0.0802985,-8.90269,0.00918868,
2,0,0,1,0,38597.4,0.00204518,0.00167902,-2.82196,20,0.000879866,10,-4.73811e-06,-2.54945,1.75554,0.033608,-3.66554,0.00167902,
2,0,0,1,0,38597.5,0.000177222,-0.000220343,-2.78757,20,0.000748025,10,6.14223e-07,-2.55477, , , ,-0.000220343,

File: 20221101_1-115_003_TrumpetPlot_ParaChange_from10_every3_06_CV_C01_20.csv
mode,ox/red,error,control changes,counter inc.,time/s,control/V,Ewe/V,<I>/mA,cycle number,(Q-Qo)/C,I Range,P/W,log(|I|),Tafel slope mV/dec,alpha_eff,dI/d(E-IR),E-IR/V,
2,0,0,0,0,40552.6,2.44065e-05,-0.000248974,-1.42488,21,0.0000000E+000,10,3.5476e-07,-2.84622, , , ,-0.000248974,
2,1,0,1,0,40552.8,0.00729063,0.0069783,1.04164,21,5.55358e-05,10,7.26886e-06,-2.98228,0.0216626,2.72359,104.975,0.0069783,
2,1,0,1,0,40553,0.014778,0.0144208,1.48262,21,0.00030199,10,2.13805e-05,-2.82897,0.0895602,0.658775,38.0881,0.0144208,
2,1,0,1,0,40553.2,0.0222743,0.0219731,1.71235,21,0.000605494,10,3.76256e-05,-2.76641,0.152501,0.386884,25.7008,0.0219731,
2,1,0,1,0,40553.4,0.0297626,0.0294177,1.88878,21,0.000945253,10,5.55635e-05,-2.72382,0.178622,0.330306,24.3326,0.0294177,
2,1,0,1,0,40553.6,0.0372544,0.0369241,2.06084,21,0.00131789,10,7.60945e-05,-2.68596,0.210976,0.279652,22.5021,0.0369241,
2,1,0,1,0,40553.7,0.0447472,0.044431,2.23227,21,0.00172244,10,9.91821e-05,-2.65125,0.22247,0.265204,23.0589,0.044431,
2,1,0,1,0,40553.9,0.0522345,0.0518891,2.39224,21,0.00215819,10,0.000124131,-2.6212,0.24649,0.239361,22.3964,0.0518891,
2,1,0,1,0,40554.1,0.0597309,0.0594103,2.54786,21,0.00262442,10,0.000151369,-2.59382,0.265839,0.221939,22.0854,0.0594103,
2,1,0,1,0,40554.3,0.0672182,0.0668602,2.69412,21,0.00311791,10,0.000180129,-2.56958,0.353749,0.166785,17.4947,0.0668602,
2,1,0,1,0,40554.5,0.0747074,0.0744271,2.81466,21,0.00363651,10,0.000209487,-2.55057,0.452187,0.130477,14.3488,0.0744271,
2,1,0,1,0,40554.7,0.0822019,0.0818633,2.92012,21,0.00417701,10,0.00023905,-2.5346,0.552909,0.106708,12.1444,0.0818633,
2,1,0,1,0,40554.9,0.0896911,0.0893639,3.01842,21,0.00473522,10,0.000269738,-2.52022,0.463432,0.127311,15.0014,0.0893639,
2,1,0,1,0,40555.1,0.097182,0.0968912,3.14468,21,0.00531477,10,0.000304692,-2.50242,0.304551,0.193728,23.8488,0.0968912,
2,1,0,1,0,40555.2,0.104675,0.104326,3.36352,21,0.005926,10,0.000350904,-2.47321,0.225339,0.261827,34.3471,0.104326,
2,1,0,1,0,40555.4,0.112162,0.111857,3.63226,21,0.00658282,10,0.000406295,-2.43982,0.230959,0.255456,36.1756,0.111857,
2,1,0,1,0,40555.6,0.119655,0.119332,3.88407,21,0.00729051,10,0.000463496,-2.41071,0.328449,0.179632,27.215,0.1193324,
2,1,0,1,0,40555.8,0.127146,0.126772,4.05423,21,0.00803788,10,0.000513962,-2.39209,0.539382,0.109384,17.2852,0.126772,
2,1,0,1,0,40556,0.134635,0.134312,4.15608,21,0.00881024,10,0.00055821,-2.38132,1.00453,0.0587337,9.54199,0.134312,
2,1,0,1,0,40556.2,0.14213,0.141814,4.17036,21,0.00959596,10,0.000591414,-2.37983,-0.78025,-0.0756168,-12.2655,0.1418135,
2,1,0,1,0,40556.4,0.149619,0.14932,3.87451,21,0.0103573,10,0.000578543,-2.41178,-0.135189,-0.436427,-65.6637,0.14932,
2,1,0,1,0,40556.6,0.157106,0.156765,3.24747,21,0.0110293,10,0.00050909,-2.48845,-0.0833751,-0.707645,-89.7401,0.156765,
2,1,0,1,0,40556.7,0.164602,0.164255,2.6688,21,0.0115832,10,0.000438363,-2.57368,-0.0964772,-0.611544,-63.7441,0.164255,
2,1,0,1,0,40556.9,0.172091,0.171767,2.29481,21,0.0120472,10,0.000394172,-2.63925,-0.14432,-0.408813,-36.7244,0.171767,
2,1,0,1,0,40557.1,0.179582,0.17929,2.07732,21,0.0124579,10,0.000372443,-2.6825,-0.216727,-0.272232,-22.1644,0.17929,
2,1,0,1,0,40557.3,0.187074,0.186766,1.95983,21,0.0128374,10,0.00036603,-2.70778,-0.374437,-0.15757,-11.9989,0.186766,
2,1,0,1,0,40557.5,0.194563,0.194231,1.87545,21,0.0131981,10,0.00036427,-2.7269,-0.564392,-0.104537,-7.66979,0.194231,
2,1,0,1,0,40557.7,0.202059,0.201745,1.82368,21,0.0135473,10,0.000367919,-2.73905,-0.681532,-0.0865697,-6.16303,0.201745,
2,1,0,1,0,40557.9,0.209546,0.209204,1.79228,21,0.0138881,10,0.000374951,-2.74659,-0.775963,-0.0760345,-5.31187,0.209204,
2,1,0,1,0,40558.1,0.217035,0.216723,1.75518,21,0.0142229,10,0.000380389,-2.75568,-1.35127,-0.0436626,-3.0083,0.216723,
2,1,0,1,0,40558.2,0.22453,0.224222,1.73606,21,0.0145535,10,0.000389263,-2.76044,-1.82967,-0.0322462,-2.1895,0.224222,
2,1,0,1,0,40558.4,0.232019,0.231681,1.72188,21,0.01488,10,0.000398926,-2.764,-2.22121,-0.0265621,-1.78188,0.231681,
2,1,0,1,0,40558.6,0.23951,0.239214,1.70288,21,0.0152037,10,0.000407353,-2.76882,-1.55664,-0.0379022,-2.52509,0.239214,
2,1,0,1,0,40558.8,0.247003,0.246718,1.6941,21,0.0155247,10,0.000417965,-2.77106,-1.77249,-0.0332865,-2.19422,0.2467179,
2,1,0,1,0,40559,0.25449,0.254154,1.67977,21,0.0158429,10,0.000426921,-2.77475,-1.58334,-0.037263,-2.44547,0.254154,
2,1,0,1,0,40559.2,0.261983,0.261665,1.66566,21,0.016159,10,0.000435845,-2.77841,-2.10507,-0.0280276,-1.82807,0.261665,
2,1,0,1,0,40559.4,0.269474,0.269159,1.65619,21,0.0164728,10,0.000445779,-2.78089,-6.28878,-0.00938179,-0.60561,0.269159,
2,1,0,1,0,40559.5,0.276963,0.276661,1.64326,21,0.0167844,10,0.000454626,-2.78429,-2.69984,-0.0218531,-1.40417,0.276661,
2,1,0,1,0,40559.7,0.284458,0.28412,1.63019,21,0.0170937,10,0.000463169,-2.78776,-3.33651,-0.0176832,-1.12553,0.28412,
2,1,0,1,0,40559.9,0.291947,0.291588,1.61652,21,0.0174002,10,0.000471358,-2.79142,-1.48364,-0.0397672,-2.50429,0.291588,
2,1,0,1,0,40560.1,0.299434,0.299113,1.59946,21,0.0177039,10,0.000478418,-2.79603,-0.0178567,-3.30407,-180.625,0.299113,
2,0,0,1,0,40560.3,0.294196,0.293844,-0.27285,21,0.0177573,10,-8.01753e-05,-3.56408,-0.005476,-10.7743,78.0822,0.293844,
2,0,0,1,0,40560.5,0.286701,0.286389,-0.561708,21,0.0176712,10,-0.000160867,-3.25049,-0.0555073,-1.06292,23.1167,0.286389,
2,0,0,1,0,40560.6,0.279212,0.278894,-0.698016,21,0.0175491,10,-0.000194672,-3.15613,-0.109209,-0.540248,14.7318,0.278894,
2,0,0,1,0,40560.8,0.271725,0.271425,-0.794582,21,0.0174058,10,-0.000215669,-3.09986,-0.143953,-0.409856,12.6802,0.271425,
2,0,0,1,0,40561,0.264228,0.263871,-0.872859,21,0.0172464,10,-0.000230322,-3.05906,-0.227953,-0.258826,8.80488,0.263871,
2,0,0,1,0,40561.2,0.256741,0.256434,-0.93492,21,0.0170743,10,-0.000239745,-3.02923,-0.274914,-0.214613,7.82515,0.256434,
2,0,0,1,0,40561.4,0.249248,0.248911,-0.992497,21,0.0168907,10,-0.000247044,-3.00327,-0.313176,-0.188392,7.27086,0.248911,
2,0,0,1,0,40561.6,0.241756,0.241437,-1.03723,21,0.016697,10,-0.000250424,-2.98413,-0.390113,-0.151238,6.1777,0.241437,
2,0,0,1,0,40561.8,0.234268,0.233932,-1.09438,21,0.016494,10,-0.00025601,-2.96083,-0.35329,-0.167002,7.12374,0.233932,
2,0,0,1,0,40562,0.226772,0.226457,-1.14153,21,0.0162818,10,-0.000258507,-2.94251,-0.387092,-0.152418,6.76158,0.226457,
2,0,0,1,0,40562.1,0.219284,0.219008,-1.18275,21,0.0160615,10,-0.000259031,-2.92711,-0.437744,-0.134782,6.23167,0.219008,
2,0,0,1,0,40562.3,0.211796,0.211437,-1.23224,21,0.0158326,10,-0.000260541,-2.9093,-0.571047,-0.103319,4.93206,0.211437,
2,0,0,1,0,40562.5,0.204301,0.204028,-1.27261,21,0.0155952,10,-0.000259648,-2.8953,-0.649549,-0.0908323,4.52285,0.204028,
2,0,0,1,0,40562.7,0.196812,0.196473,-1.31962,21,0.0153495,10,-0.00025927,-2.87955,-0.421347,-0.140027,7.21267,0.1964726,
2,0,0,1,0,40562.9,0.189321,0.188982,-1.37108,21,0.0150946,10,-0.00025911,-2.86294,-0.448461,-0.131561,7.02851,0.188982,
2,0,0,1,0,40563.1,0.181828,0.181479,-1.42463,21,0.01483,10,-0.00025854,-2.8463,-0.407716,-0.144709,8.0623,0.181479,
2,0,0,1,0,40563.3,0.174341,0.173993,-1.49376,21,0.0145542,10,-0.000259903,-2.82572,-0.328906,-0.179382,10.4286,0.173993,
2,0,0,1,0,40563.5,0.166848,0.166541,-1.57668,21,0.0142644,10,-0.000262581,-2.80226,-0.301133,-0.195927,12.0149,0.166541,
2,0,0,1,0,40563.6,0.159357,0.159007,-1.68512,21,0.0139564,10,-0.000267947,-2.77337,-0.218657,-0.269829,17.8253,0.159007,
2,0,0,1,0,40563.8,0.151868,0.15155,-1.85841,21,0.0136224,10,-0.000281643,-2.73086,-0.152438,-0.387042,28.1429,0.15155,
2,0,0,1,0,40564,0.144373,0.144087,-2.13719,21,0.0132468,10,-0.000307942,-2.67016,-0.104552,-0.564312,47.2469,0.144087,
2,0,0,1,0,40564.2,0.136884,0.136537,-2.57407,21,0.0128047,10,-0.000351456,-2.58938,-0.0889921,-0.66298,66.6576,0.136537,
2,0,0,1,0,40564.4,0.129393,0.129036,-3.10411,21,0.0122705,10,-0.000400542,-2.50806,-0.0997356,-0.591564,71.4625,0.129036,
2,0,0,1,0,40564.6,0.1219,0.12159,-3.58372,21,0.0116398,10,-0.000435746,-2.44567,-0.144151,-0.409292,57.1116,0.12159,
2,0,0,1,0,40564.8,0.114413,0.114079,-3.95071,21,0.0109292,10,-0.000450693,-2.40332,-0.234052,-0.252081,38.8195,0.114079,
2,0,0,1,0,40565,0.10692,0.106588,-4.1569,21,0.010164,10,-0.000443077,-2.38123,-0.618211,-0.0954367,15.4532,0.106588,
2,0,0,1,0,40565.1,0.0994284,0.0990824,-4.18181,21,0.00937692,10,-0.000414344,-2.37864,1.43291,0.0411749,-6.72441,0.0990824,
2,0,0,1,0,40565.3,0.0919401,0.0916026,-4.08152,21,0.00859877,10,-0.000373878,-2.38918,0.541766,0.108903,-17.3442,0.0916026,
2,0,0,1,0,40565.5,0.0844447,0.0841705,-3.94208,21,0.00784399,10,-0.000331807,-2.40427,0.550232,0.107228,-16.4958,0.0841705,
2,0,0,1,0,40565.7,0.0769565,0.0766526,-3.82295,21,0.00711451,10,-0.000293039,-2.4176,0.627736,0.0939885,-14.0378,0.0766526,
2,0,0,1,0,40565.9,0.0694682,0.0691196,-3.73328,21,0.00640428,10,-0.000258043,-2.42791,0.692181,0.0852378,-12.4043,0.0691196,
2,0,0,1,0,40566.1,0.0619728,0.0616943,-3.63513,21,0.00571065,10,-0.000224267,-2.43948,0.622772,0.0947377,-13.4535,0.0616943,
2,0,0,1,0,40566.3,0.0544836,0.0541356,-3.53346,21,0.00503594,10,-0.000191286,-2.4518,0.684533,0.0861901,-11.9014,0.0541356,
2,0,0,1,0,40566.5,0.0469927,0.0466573,-3.43367,21,0.0043801,10,-0.000160205,-2.46424,0.567667,0.103934,-13.9078,0.0466573,
2,0,0,1,0,40566.6,0.0394999,0.0391776,-3.3206,21,0.00374498,10,-0.000130093,-2.47878,0.496693,0.118786,-15.3781,0.0391776,
2,0,0,1,0,40566.8,0.0320125,0.0316916,-3.19004,21,0.00313275,10,-0.000101097,-2.4962,0.425091,0.138794,-17.2758,0.0316916,
2,0,0,1,0,40567,0.0245198,0.0241989,-3.05729,21,0.00254445,10,-7.39829e-05,-2.51466,0.403007,0.146399,-17.4733,0.0241989,
2,0,0,1,0,40567.2,0.0170289,0.016712,-2.94015,21,0.00197964,10,-4.91358e-05,-2.53163,0.504004,0.117063,-13.47,0.01671198,
2,0,0,1,0,40567.4,0.0095397,0.00917624,-2.85357,21,0.0014347,10,-2.61851e-05,-2.54461,0.756036,0.0780387,-8.68023,0.00917624,
2,0,0,1,0,40567.6,0.00204518,0.00168345,-2.82396,21,0.000903231,10,-4.75399e-06,-2.54914,1.72144,0.0342737,-3.74236,0.00168345,
2,0,0,1,0,40567.6,0.000177222,-0.000185223,-2.79052,21,0.000771407,10,5.16868e-07,-2.55431, , , ,-0.0001852226,