Folder: Figs_alphaMnO2_OER_Tafel_sleope/Figure_codes/Fig_3-5/rawdata_trumpetplot_data/after 10th (part 37)

File: 20221101_1-115_003_TrumpetPlot_ParaChange_from10_every3_04_CV_C01_2.csv
mode,ox/red,error,control changes,counter inc.,time/s,control/V,Ewe/V,<I>/mA,cycle number,(Q-Qo)/C,I Range,P/W,log(|I|),Tafel slope mV/dec,alpha_eff,dI/d(E-IR),E-IR/V,
2,0,0,1,0,5000.28,2.44065e-05,-0.000363498,-0.377976,3,0.0000000E+000,10,1.37394e-07,-3.42254, , , ,-0.000363498,
2,1,0,1,0,5001,0.00729063,0.0069883,0.384523,3,0.00022238,10,2.68716e-06,-3.41508,0.0717266,0.822568,12.2171,0.0069883,
2,1,0,1,0,5001.75,0.0147814,0.0144846,0.450516,3,0.000551113,10,6.52556e-06,-3.34629,0.133561,0.441746,7.74983,0.0144846,
2,1,0,1,0,5002.5,0.0222725,0.0219602,0.500302,3,0.000921862,10,1.09867e-05,-3.30077,0.172227,0.342571,6.70473,0.0219602,
2,1,0,1,0,5003.25,0.0297635,0.0294468,0.550067,3,0.00132949,10,1.61977e-05,-3.25958,0.188726,0.312622,6.70733,0.0294468,
2,1,0,1,0,5004,0.0372544,0.0369384,0.601725,3,0.00177472,10,2.22268e-05,-3.2206,0.18972,0.310985,7.32348,0.0369384,
2,1,0,1,0,5004.75,0.0447458,0.0444232,0.660782,3,0.00226118,10,2.93541e-05,-3.17994,0.184322,0.320092,8.22225,0.04442323,
2,1,0,1,0,5005.5,0.0522363,0.0519008,0.712719,3,0.00278906,10,3.69906e-05,-3.14708,0.209656,0.281414,7.8377,0.0519008,
2,1,0,1,0,5006.25,0.0597282,0.0594253,0.767071,3,0.0033576,10,4.55834e-05,-3.11516,0.259303,0.227533,6.80015,0.0594253,
2,1,0,1,0,5007,0.0672182,0.0669511,0.814778,3,0.00396378,10,5.45503e-05,-3.08896,0.2942,0.200544,6.35495,0.0669511,
2,1,0,1,0,5007.75,0.0747092,0.0744217,0.859383,3,0.00460394,10,6.39567e-05,-3.06581,0.419935,0.140498,4.71043,0.0744217,
2,1,0,1,0,5008.49,0.0822001,0.081906,0.89463,3,0.0052759,10,7.32756e-05,-3.04836,0.401415,0.14698,5.1498,0.081906,
2,1,0,1,0,5009.24,0.0896911,0.0893957,0.944013,3,0.00597899,10,8.43907e-05,-3.02502,0.285766,0.206462,7.62267,0.0893957,
2,1,0,1,0,5009.99,0.097182,0.0968864,1.01093,3,0.00672372,10,9.79453e-05,-2.99528,0.18867,0.312715,12.3293,0.0968864,
2,1,0,1,0,5010.74,0.104673,0.104365,1.10578,3,0.00752784,10,0.000115406,-2.95633,0.193512,0.304891,13.1203,0.104365,
2,1,0,1,0,5011.49,0.112164,0.111814,1.20081,3,0.00840599,10,0.000134267,-2.92053,0.234865,0.251208,11.7549,0.111814,
2,1,0,1,0,5012.24,0.119655,0.119346,1.2835,3,0.00935242,10,0.000153181,-2.8916,0.377223,0.156406,7.84271,0.119346,
2,1,0,1,0,5012.99,0.127146,0.12686,1.35005,3,0.0103549,10,0.000171267,-2.86965,0.347404,0.169831,8.97318,0.12686,
2,1,0,1,0,5013.74,0.134637,0.13431,1.40714,3,0.0114069,10,0.000188993,-2.85166,1.81255,0.0325508,1.78648,0.13431,
2,1,0,1,0,5014.49,0.142127,0.141856,1.35573,3,0.0124655,10,0.000192319,-2.86783,-0.197632,-0.298535,-15.6994,0.141856,
2,1,0,1,0,5015.24,0.149619,0.149329,1.14985,3,0.0134251,10,0.000171705,-2.93936,-0.0767218,-0.769012,-34.3389,0.1493288,
2,1,0,1,0,5015.99,0.157109,0.156776,0.911494,3,0.014206,10,0.000142901,-3.04025,-0.0777693,-0.758654,-26.9946,0.156776,
2,1,0,1,0,5016.73,0.164601,0.164282,0.759532,3,0.0148397,10,0.000124777,-3.11945,-0.108043,-0.546076,-16.2055,0.164282,
2,1,0,1,0,5017.48,0.172091,0.171759,0.669558,3,0.0153856,10,0.000115003,-3.17421,-0.182046,-0.324094,-8.50062,0.171759,
2,1,0,1,0,5018.23,0.179582,0.179287,0.618235,3,0.0158809,10,0.000110842,-3.20885,-0.283137,-0.20838,-5.04067,0.179287,
2,1,0,1,0,5018.98,0.187074,0.186787,0.588542,3,0.0163459,10,0.000109932,-3.23022,-0.415255,-0.142081,-3.25994,0.186787,
2,1,0,1,0,5019.73,0.194564,0.194248,0.565722,3,0.0167918,10,0.00010989,-3.2474,-0.608276,-0.0969955,-2.14801,0.1942476,
2,1,0,1,0,5020.48,0.202056,0.201748,0.553779,3,0.0172243,10,0.000111724,-3.25666,-0.72069,-0.081866,-1.75999,0.201748,
2,1,0,1,0,5021.23,0.209546,0.209256,0.540345,3,0.0176474,10,0.00011307,-3.26733,-1.01209,-0.0582951,-1.23173,0.209256,
2,1,0,1,0,5021.98,0.217038,0.216724,0.531339,3,0.018062,10,0.000115154,-3.27463,-0.854635,-0.0690353,-1.43323,0.216724,
2,1,0,1,0,5022.73,0.224528,0.224257,0.521773,3,0.0184702,10,0.000117011,-3.28252,-1.28513,-0.0459098,-0.934669,0.2242571,
2,1,0,1,0,5023.48,0.232019,0.231723,0.517367,3,0.0188723,10,0.000119886,-3.2862,-1.20601,-0.0489218,-0.98561,0.231723,
2,1,0,1,0,5024.23,0.23951,0.239228,0.509026,3,0.0192697,10,0.000121773,-3.29326,-2.34603,-0.0251489,-0.499916,0.239228,
2,1,0,1,0,5024.97,0.247001,0.246713,0.502946,3,0.0196625,10,0.000124083,-3.29848,-1.52822,-0.0386069,-0.758517,0.246713,
2,1,0,1,0,5025.72,0.254492,0.254196,0.499174,3,0.0200514,10,0.000126888,-3.30175,-5.9097,-0.00998358,-0.194141,0.254196,
2,1,0,1,0,5026.47,0.261983,0.261678,0.494386,3,0.0204364,10,0.00012937,-3.30593,-1.48468,-0.0397392,-0.765295,0.2616778,
2,1,0,1,0,5027.22,0.269474,0.269206,0.488441,3,0.0208179,10,0.000131491,-3.31119,4.49653,0.0131212,0.249719,0.269206,
2,1,0,1,0,5027.97,0.276965,0.276688,0.485028,3,0.0211962,10,0.000134201,-3.31423,-1.44197,-0.0409161,-0.774491,0.276688,
2,1,0,1,0,5028.72,0.284456,0.284149,0.481359,3,0.021571,10,0.000136778,-3.31753,-6.50375,-0.00907169,-0.169825,0.284149,
2,1,0,1,0,5029.47,0.291947,0.291634,0.474351,3,0.0219422,10,0.000138337,-3.3239,-1.05084,-0.0561453,-1.04238,0.291634,
2,1,0,1,0,5030.22,0.299437,0.299118,0.470534,3,0.0223102,10,0.000140745,-3.32741,-0.00150517,-39.1983,-248.535,0.299118,
2,0,0,1,0,5030.9,0.293745,0.293426,-0.0893707,3,0.0223097,10,-2.62237e-05,-4.04881,-0.0190275,-3.10078,10.1106,0.293426,
2,0,0,1,0,5031.65,0.286253,0.285949,-0.140474,3,0.0222079,10,-4.01684e-05,-3.8524,-0.0579955,-1.01732,5.59096,0.285949,
2,0,0,1,0,5032.4,0.278763,0.27847,-0.174187,3,0.0220753,10,-4.85058e-05,-3.75899,-0.103291,-0.571201,3.88943,0.2784704,
2,0,0,1,0,5033.15,0.271272,0.270965,-0.202281,3,0.0219205,10,-5.4811e-05,-3.69404,-0.126476,-0.466491,3.66964,0.270965,
2,0,0,1,0,5033.9,0.263781,0.263516,-0.223391,3,0.0217473,10,-5.88669e-05,-3.65093,-0.161257,-0.365875,3.19569,0.2635155,
2,0,0,1,0,5034.65,0.25629,0.255951,-0.244403,3,0.0215581,10,-6.25552e-05,-3.61189,-0.260957,-0.226091,2.14513,0.255951,
2,0,0,1,0,5035.4,0.248799,0.248485,-0.260063,3,0.0213552,10,-6.46218e-05,-3.58492,-0.232591,-0.253664,2.5855,0.248485,
2,0,0,1,0,5036.15,0.241308,0.241047,-0.275955,3,0.0211398,10,-6.65179e-05,-3.55916,-0.323623,-0.182311,1.98613,0.241047,
2,0,0,1,0,5036.9,0.233817,0.23353,-0.295115,3,0.0209123,10,-6.89184e-05,-3.53001,-0.268721,-0.219558,2.50424,0.23353,
2,0,0,1,0,5037.64,0.226326,0.226065,-0.308693,3,0.0206728,10,-6.97846e-05,-3.51047,-0.309881,-0.190396,2.30364,0.226065,
2,0,0,1,0,5038.39,0.218835,0.218536,-0.324956,3,0.0204214,10,-7.10146e-05,-3.48818,-0.269757,-0.218716,2.76211,0.218536,
2,0,0,1,0,5039.14,0.211344,0.211065,-0.342187,3,0.020158,10,-7.22237e-05,-3.46574,-0.456931,-0.129122,1.72485,0.211065,
2,0,0,1,0,5039.89,0.203854,0.203572,-0.356583,3,0.0198814,10,-7.25902e-05,-3.44784,-0.321534,-0.183496,2.57687,0.203572,
2,0,0,1,0,5040.64,0.196362,0.196081,-0.379507,3,0.0195912,10,-7.44142e-05,-3.42078,-0.354466,-0.166447,2.46349,0.196081,
2,0,0,1,0,5041.39,0.188872,0.18856,-0.401739,3,0.0192849,10,-7.57518e-05,-3.39606,-0.203785,-0.289521,4.53527,0.18856,
2,0,0,1,0,5042.14,0.18138,0.181068,-0.432427,3,0.0189596,10,-7.82987e-05,-3.36409,-0.233369,-0.252819,4.24816,0.181068,
2,0,0,1,0,5042.89,0.17389,0.173552,-0.469153,3,0.0186094,10,-8.14225e-05,-3.32869,-0.167415,-0.352417,6.44588,0.1735521,
2,0,0,1,0,5043.64,0.166398,0.166096,-0.522514,3,0.0182249,10,-8.67875e-05,-3.2819,-0.145419,-0.405725,8.33279,0.166096,
2,0,0,1,0,5044.39,0.158907,0.158622,-0.607784,3,0.0177884,10,-9.64079e-05,-3.21625,-0.0970391,-0.608002,14.4962,0.158622,
2,0,0,1,0,5045.14,0.151417,0.151082,-0.748082,3,0.0172692,10,-0.000113021,-3.12605,-0.0735299,-0.802395,23.5156,0.151082,
2,0,0,1,0,5045.88,0.143925,0.143619,-0.963354,3,0.0166179,10,-0.000138356,-3.01621,-0.0639736,-0.922255,34.6279,0.143619,
2,0,0,1,0,5046.63,0.136435,0.136137,-1.21054,3,0.0157883,10,-0.0001648,-2.91702,-0.0929866,-0.6345,29.8106,0.136137,
2,0,0,1,0,5047.38,0.128943,0.128595,-1.38627,3,0.0147959,10,-0.000178268,-2.85815,-0.224201,-0.263157,14.1389,0.128595,
2,0,0,1,0,5048.13,0.121453,0.121107,-1.43679,3,0.0137192,10,-0.000174005,-2.84261,9.08497,0.00649424,-0.363051,0.121107,
2,0,0,1,0,5048.88,0.113962,0.113669,-1.40592,3,0.0126362,10,-0.00015981,-2.85204,0.431161,0.13684,-7.51707,0.113669,
2,0,0,1,0,5049.63,0.106471,0.106132,-1.34129,3,0.011591,10,-0.000142354,-2.87248,0.318453,0.185271,-9.70656,0.106132,
2,0,0,1,0,5050.38,0.0989799,0.0986689,-1.26423,3,0.0106011,10,-0.00012474,-2.89817,0.315761,0.18685,-9.20654,0.0986689,
2,0,0,1,0,5051.13,0.0914889,0.0911814,-1.19192,3,0.00966907,10,-0.000108681,-2.92375,0.307001,0.192182,-8.9135,0.0911814,
2,0,0,1,0,5051.88,0.083998,0.0837013,-1.12821,3,0.00878826,10,-9.44322e-05,-2.94761,0.321575,0.183472,-8.07839,0.08370129,
2,0,0,1,0,5052.63,0.076507,0.0761607,-1.08448,3,0.00794658,10,-8.25951e-05,-2.96478,0.390202,0.151204,-6.38873,0.0761607,
2,0,0,1,0,5053.38,0.0690161,0.0686806,-1.03746,3,0.00713726,10,-7.12537e-05,-2.98403,0.422177,0.139752,-5.69409,0.0686806,
2,0,0,1,0,5054.12,0.0615251,0.0612429,-1.0054,3,0.00635609,10,-6.15737e-05,-2.99766,0.461897,0.127734,-5.0101,0.0612429,
2,0,0,1,0,5054.87,0.0540342,0.0536981,-0.963414,3,0.00560481,10,-5.17335e-05,-3.01619,0.389831,0.151348,-5.69057,0.0536981,
2,0,0,1,0,5055.62,0.0465441,0.0462054,-0.919209,3,0.00488527,10,-4.24725e-05,-3.03659,0.406612,0.145101,-5.22266,0.0462054,
2,0,0,1,0,5056.37,0.0390523,0.0387952,-0.876917,3,0.00419923,10,-3.40201e-05,-3.05704,0.310402,0.190076,-6.48078,0.0387952,
2,0,0,1,0,5057.12,0.0315618,0.0312287,-0.835851,3,0.00354519,10,-2.61026e-05,-3.07787,0.364175,0.16201,-5.27912,0.0312287,
2,0,0,1,0,5057.87,0.0240704,0.0237809,-0.79723,3,0.00291946,10,-1.89588e-05,-3.09842,0.446596,0.13211,-4.12629,0.0237809,
2,0,0,1,0,5058.62,0.0165796,0.0162536,-0.779859,3,0.00231493,10,-1.26755e-05,-3.10798,1.687,0.0349733,-1.0636,0.0162536,
2,0,0,1,0,5059.37,0.00908846,0.00876448,-0.767702,3,0.00172199,10,-6.72851e-06,-3.11481,2.17318,0.0271492,-0.815244,0.00876448,
2,0,0,1,0,5060.12,0.00159728,0.00125863,-0.779851,3,0.0011304,10,-9.8154e-07,-3.10799, , , ,0.00125863,
2,0,0,1,0,5060.26,0.000199195,-0.000189804,-0.771574,3,0.0010193,10,1.46447e-07,-3.11262, , , ,-0.000189804,

File: 20221101_1-115_003_TrumpetPlot_ParaChange_from10_every3_04_CV_C01_3.csv
mode,ox/red,error,control changes,counter inc.,time/s,control/V,Ewe/V,<I>/mA,cycle number,(Q-Qo)/C,I Range,P/W,log(|I|),Tafel slope mV/dec,alpha_eff,dI/d(E-IR),E-IR/V,
2,0,0,1,0,6970.41,2.44065e-05,-0.000287149,-0.370344,4,0.0000000E+000,10,1.06344e-07,-3.4314, , , ,-0.0002871489,
2,1,0,1,0,6971.13,0.00729063,0.00699996,0.387067,4,0.000223622,10,2.70946e-06,-3.41221,0.0701812,0.840681,12.6065,0.00699996,
2,1,0,1,0,6971.88,0.0147814,0.0144587,0.455529,4,0.000555494,10,6.58636e-06,-3.34148,0.118977,0.495893,8.8075,0.0144587,
2,1,0,1,0,6972.63,0.0222725,0.0219538,0.509674,4,0.000931634,10,1.11893e-05,-3.29271,0.17414,0.338808,6.72812,0.0219538,
2,1,0,1,0,6973.38,0.0297635,0.0294679,0.560378,4,0.00134619,10,1.65132e-05,-3.25152,0.18735,0.314919,6.8873,0.0294679,
2,1,0,1,0,6974.13,0.0372544,0.0369299,0.613957,4,0.00179998,10,2.26734e-05,-3.21186,0.196666,0.300002,7.1968,0.0369299,
2,1,0,1,0,6974.88,0.0447458,0.044466,0.66823,4,0.00229481,10,2.97135e-05,-3.17507,0.214547,0.274998,7.1652,0.044466,
2,1,0,1,0,6975.63,0.0522363,0.0519188,0.722185,4,0.00282975,10,3.7495e-05,-3.14135,0.217039,0.271841,7.64931,0.0519188,
2,1,0,1,0,6976.38,0.0597282,0.0594239,0.770609,4,0.00340325,10,4.57926e-05,-3.11317,0.253069,0.233138,7.0136,0.0594239,
2,1,0,1,0,6977.13,0.0672182,0.0668811,0.82012,4,0.00401227,10,5.48505e-05,-3.08612,0.301979,0.195378,6.22947,0.06688112,
2,1,0,1,0,6977.88,0.0747092,0.0743994,0.857618,4,0.00465333,10,6.38063e-05,-3.06671,0.423445,0.139333,4.65722,0.0743994,
2,1,0,1,0,6978.62,0.0822001,0.0819209,0.89415,4,0.00532395,10,7.32495e-05,-3.04859,0.407195,0.144894,5.05757,0.08192087,
2,1,0,1,0,6979.37,0.0896911,0.0893989,0.940026,4,0.00602428,10,8.40373e-05,-3.02686,0.287778,0.205019,7.53644,0.0893989,
2,1,0,1,0,6980.12,0.097182,0.0968715,1.00706,4,0.00676661,10,9.75554e-05,-2.99694,0.186972,0.315555,12.3972,0.09687154,
2,1,0,1,0,6980.87,0.104673,0.104388,1.10249,4,0.0075692,10,0.000115087,-2.95762,0.177065,0.333211,14.3003,0.104388,
2,1,0,1,0,6981.62,0.112164,0.111863,1.19415,4,0.00844424,10,0.000133581,-2.92294,0.268975,0.219352,10.195,0.1118625,
2,1,0,1,0,6982.37,0.119655,0.119379,1.26797,4,0.00938159,10,0.000151368,-2.89689,0.372722,0.158295,7.83586,0.119379,
2,1,0,1,0,6983.12,0.127146,0.126827,1.32714,4,0.0103695,10,0.000168318,-2.87708,0.362149,0.162917,8.4679,0.126827,
2,1,0,1,0,6983.87,0.134637,0.134305,1.37525,4,0.0114025,10,0.000184704,-2.86162,4.7969,0.0122996,0.660539,0.134305,
2,1,0,1,0,6984.62,0.142127,0.141833,1.30561,4,0.012432,10,0.000185178,-2.88419,-0.155839,-0.378597,-19.1811,0.141833,
2,1,0,1,0,6985.37,0.149619,0.149313,1.08801,4,0.0133482,10,0.000162454,-2.96337,-0.075028,-0.786373,-33.3356,0.149313,
2,1,0,1,0,6986.12,0.157109,0.156824,0.864067,4,0.0140883,10,0.000135507,-3.06345,-0.0830634,-0.710301,-23.9961,0.156824,
2,1,0,1,0,6986.86,0.164601,0.164282,0.728602,4,0.0146938,10,0.000119696,-3.13751,-0.12241,-0.481987,-13.7089,0.164282,
2,1,0,1,0,6987.61,0.172091,0.171784,0.646867,4,0.0152212,10,0.000111121,-3.18919,-0.184314,-0.320106,-8.14979,0.171784,
2,1,0,1,0,6988.36,0.179582,0.17928,0.603886,4,0.0157039,10,0.000108265,-3.21904,-0.313184,-0.188388,-4.45534,0.17928,
2,1,0,1,0,6989.11,0.187074,0.18677,0.578859,4,0.0161599,10,0.000108113,-3.23743,-0.443678,-0.132979,-2.99316,0.18677,
2,1,0,1,0,6989.86,0.194564,0.194224,0.559264,4,0.0165987,10,0.000108623,-3.25238,-0.550953,-0.107087,-2.33757,0.194224,
2,1,0,1,0,6990.61,0.202056,0.201769,0.545729,4,0.0170257,10,0.000110111,-3.26302,-0.615019,-0.0959319,-2.03829,0.201769,
2,1,0,1,0,6991.36,0.209546,0.209246,0.536326,4,0.0174443,10,0.000112224,-3.27057,-0.718014,-0.0821711,-1.7207,0.209246,
2,1,0,1,0,6992.11,0.217038,0.216725,0.526502,4,0.0178555,10,0.000114106,-3.2786,-1.04694,-0.0563546,-1.15982,0.216725,
2,1,0,1,0,6992.86,0.224528,0.224239,0.519804,4,0.0182609,10,0.00011656,-3.28416,-0.940926,-0.0627042,-1.27038,0.2242391,
2,1,0,1,0,6993.61,0.232019,0.231714,0.51439,4,0.0186611,10,0.000119191,-3.28871,-1.63807,-0.0360181,-0.723261,0.231714,
2,1,0,1,0,6994.36,0.23951,0.239216,0.506915,4,0.0190569,10,0.000121262,-3.29506,-2.55249,-0.0231147,-0.457945,0.239216,
2,1,0,1,0,6995.1,0.247001,0.246693,0.502162,4,0.0194485,10,0.00012388,-3.29916,-1.00674,-0.058605,-1.14824,0.246693,
2,1,0,1,0,6995.85,0.254492,0.254134,0.496179,4,0.0198364,10,0.000126096,-3.30436,-1.56591,-0.0376778,-0.732607,0.254134,
2,1,0,1,0,6996.6,0.261983,0.261699,0.493859,4,0.0202206,10,0.000129242,-3.3064,-2.6752,-0.0220544,-0.424735,0.261699,
2,1,0,1,0,6997.35,0.269474,0.269167,0.488046,4,0.0206019,10,0.000131366,-3.31154,-4.86206,-0.0121348,-0.230747,0.269167,
2,1,0,1,0,6998.1,0.276965,0.276671,0.483965,4,0.0209797,10,0.000133899,-3.31519,-4.08525,-0.0144422,-0.272762,0.2766709,
2,1,0,1,0,6998.85,0.284456,0.284175,0.476612,4,0.0213542,10,0.000135441,-3.32183,-27.1124,-0.00217613,-0.0405767,0.2841754,
2,1,0,1,0,6999.6,0.291947,0.291653,0.475844,4,0.0217253,10,0.000138781,-3.32254,-0.97333,-0.0606167,-1.12437,0.291653,
2,1,0,1,0,7000.35,0.299437,0.299142,0.469113,4,0.0220932,10,0.000140331,-3.32872,-0.00154857,-38.0997,-242.723,0.299142,
2,0,0,1,0,7001.03,0.293745,0.293468,-0.0902423,4,0.0220926,10,-2.64832e-05,-4.04459,-0.0200613,-2.94099,9.68423,0.2934677,
2,0,0,1,0,7001.78,0.286253,0.285942,-0.140069,4,0.0219908,10,-4.00516e-05,-3.85366,-0.0623927,-0.945624,5.18481,0.285942,
2,0,0,1,0,7002.53,0.278763,0.278484,-0.174287,4,0.0218582,10,-4.85361e-05,-3.75874,-0.0908936,-0.649111,4.40981,0.278484,
2,0,0,1,0,7003.28,0.271272,0.270971,-0.199307,4,0.0217034,10,-5.40065e-05,-3.70048,-0.139929,-0.421642,3.30525,0.270971,
2,0,0,1,0,7004.03,0.263781,0.263475,-0.223691,4,0.0215301,10,-5.89371e-05,-3.65035,-0.199413,-0.295868,2.59064,0.263475,
2,0,0,1,0,7004.78,0.25629,0.255964,-0.244241,4,0.0213412,10,-6.25171e-05,-3.61218,-0.272606,-0.216429,2.04164,0.255964,
2,0,0,1,0,7005.53,0.248799,0.248508,-0.261735,4,0.0211386,10,-6.50432e-05,-3.58214,-0.235636,-0.250387,2.55614,0.248508,
2,0,0,1,0,7006.28,0.241308,0.241014,-0.275351,4,0.0209234,10,-6.63634e-05,-3.56011,-0.333721,-0.176794,1.90443,0.241014,
2,0,0,1,0,7007.03,0.233817,0.233526,-0.291826,4,0.0206961,10,-6.8149e-05,-3.53488,-0.329307,-0.179164,2.044,0.233526,
2,0,0,1,0,7007.78,0.226326,0.226059,-0.306528,4,0.020457,10,-6.92934e-05,-3.51353,-0.375332,-0.157194,1.89088,0.226059,
2,0,0,1,0,7008.52,0.218835,0.218548,-0.324443,4,0.0202062,10,-7.09064e-05,-3.48886,-0.392214,-0.150428,1.90055,0.218548,
2,0,0,1,0,7009.27,0.211344,0.211042,-0.338009,4,0.0199435,10,-7.13342e-05,-3.47107,-0.411469,-0.143389,1.90278,0.211042,
2,0,0,1,0,7010.02,0.203854,0.203555,-0.356978,4,0.019668,10,-7.26645e-05,-3.44736,-0.317771,-0.185669,2.59231,0.203555,
2,0,0,1,0,7010.77,0.196362,0.196017,-0.377955,4,0.0193794,10,-7.40859e-05,-3.42256,-0.424422,-0.139013,2.04571,0.196017,
2,0,0,1,0,7011.52,0.188872,0.188541,-0.39906,4,0.0190755,10,-7.52392e-05,-3.39896,-0.222656,-0.264983,4.09805,0.188541,
2,0,0,1,0,7012.27,0.18138,0.181073,-0.4243,4,0.0187539,10,-7.68294e-05,-3.37233,-0.265589,-0.222148,3.68716,0.181073,
2,0,0,1,0,7013.02,0.17389,0.173576,-0.457605,4,0.0184095,10,-7.94293e-05,-3.33951,-0.187906,-0.313987,5.62709,0.173576,
2,0,0,1,0,7013.77,0.166398,0.166105,-0.508966,4,0.0180337,10,-8.45421e-05,-3.29331,-0.16015,-0.368405,7.36729,0.166105,
2,0,0,1,0,7014.52,0.158907,0.158565,-0.582753,4,0.0176119,10,-9.24041e-05,-3.23452,-0.106043,-0.556378,12.7426,0.158565,
2,0,0,1,0,7015.27,0.151417,0.151104,-0.709646,4,0.0171167,10,-0.00010723,-3.14896,-0.079142,-0.745495,20.6856,0.151104,
2,0,0,1,0,7016.02,0.143925,0.143603,-0.90553,4,0.0165026,10,-0.000130037,-3.0431,-0.0645054,-0.914652,32.2726,0.143603,
2,0,0,1,0,7016.76,0.136435,0.136085,-1.14919,4,0.0157195,10,-0.000156389,-2.93961,-0.086553,-0.681663,30.4084,0.136085,
2,0,0,1,0,7017.51,0.128943,0.128582,-1.33447,4,0.0147695,10,-0.000171589,-2.87469,-0.179105,-0.329415,17.052,0.128582,
2,0,0,1,0,7018.26,0.121453,0.121165,-1.40401,4,0.0137227,10,-0.000170118,-2.85263,-2.24518,-0.0262785,1.43734,0.121165,
2,0,0,1,0,7019.01,0.113962,0.113644,-1.38249,4,0.0126588,10,-0.000157111,-2.85934,0.489425,0.12055,-6.51879,0.113644,
2,0,0,1,0,7019.76,0.106471,0.106169,-1.32856,4,0.0116261,10,-0.000141053,-2.87662,0.350566,0.168299,-8.7326,0.106169,
2,0,0,1,0,7020.51,0.0989799,0.0986318,-1.25662,4,0.0106434,10,-0.000123943,-2.9008,0.310667,0.189914,-9.29336,0.0986318,
2,0,0,1,0,7021.26,0.0914889,0.0911623,-1.18806,4,0.00971542,10,-0.000108306,-2.92516,0.322959,0.182686,-8.45459,0.0911623,
2,0,0,1,0,7022.01,0.083998,0.0836578,-1.12688,4,0.00883571,10,-9.42726e-05,-2.94812,0.305175,0.193331,-8.49468,0.0836578,
2,0,0,1,0,7022.76,0.076507,0.0761363,-1.08178,4,0.00799484,10,-8.23631e-05,-2.96586,0.446204,0.132227,-5.58398,0.0761363,
2,0,0,1,0,7023.51,0.0690161,0.0687114,-1.03923,4,0.00718557,10,-7.1407e-05,-2.98329,0.455579,0.129506,-5.27206,0.0687114,
2,0,0,1,0,7024.26,0.0615251,0.0611846,-1.00482,4,0.00640386,10,-6.14798e-05,-2.99791,0.490011,0.120406,-4.72794,0.0611846,
2,0,0,1,0,7025,0.0540342,0.0537151,-0.969668,4,0.00565053,10,-5.20858e-05,-3.01338,0.492731,0.119741,-4.51704,0.0537151,
2,0,0,1,0,7025.75,0.0465441,0.0462614,-0.927534,4,0.00492681,10,-4.2909e-05,-3.03267,0.401249,0.147041,-5.31813,0.0462614,
2,0,0,1,0,7026.5,0.0390523,0.0387517,-0.885789,4,0.00423425,10,-3.43258e-05,-3.05267,0.32308,0.182617,-6.29977,0.0387517,
2,0,0,1,0,7027.25,0.0315618,0.0312667,-0.844835,4,0.00357269,10,-2.64152e-05,-3.07323,0.344311,0.171357,-5.66307,0.0312667,
2,0,0,1,0,7028,0.0240704,0.0237565,-0.807507,4,0.00293935,10,-1.91835e-05,-3.09285,0.50285,0.117331,-3.7155,0.0237565,
2,0,0,1,0,7028.75,0.0165796,0.0162584,-0.787794,4,0.00232787,10,-1.28083e-05,-3.10359,0.997071,0.0591733,-1.81793,0.0162584,
2,0,0,1,0,7029.5,0.00908846,0.00877721,-0.773105,4,0.00172981,10,-6.7857e-06,-3.11176,1.61455,0.0365428,-1.10172,0.00877721,
2,0,0,1,0,7030.25,0.00159728,0.00122147,-0.784491,4,0.0011351,10,-9.58235e-07,-3.10541, , , ,0.00122147,
2,0,0,1,0,7030.39,0.000199195,-0.000166899,-0.774107,4,0.00102357,10,1.29198e-07,-3.1112, , , ,-0.0001668988,