Folder: Figs_alphaMnO2_OER_Tafel_sleope/Figure_codes/Fig_3-5/rawdata_trumpetplot_data/after 10th (part 4)

File: 20221101_1-115_003_TrumpetPlot_ParaChange_from10_every3_02_CV_C01_6.csv
mode,ox/red,error,control changes,counter inc.,time/s,control/V,Ewe/V,<I>/mA,cycle number,(Q-Qo)/C,I Range,P/W,log(|I|),Tafel slope mV/dec,alpha_eff,dI/d(E-IR),E-IR/V,
2,0,0,1,0,12160.8,2.44065e-05,-0.000287149,-0.360167,7,0.0000000E+000,10,1.03422e-07,-3.4435, , , ,-0.0002871489,
2,0,0,1,0,12168.1,0.00729061,0.00699466,-0.0931926,7,-0.000904583,10,-6.5185e-07,-4.03062,-0.0301901,-1.95429,7.22656,0.00699466,
2,0,0,1,0,12175.6,0.0147815,0.0144567,-0.0582121,7,-0.00135477,10,-8.41554e-07,-4.23499,-0.0371502,-1.58815,3.58476,0.0144567,
2,0,0,1,0,12183.1,0.0222725,0.0219761,-0.0371035,7,-0.00160424,10,-8.15391e-07,-4.43058,-0.0362799,-1.62625,2.36357,0.0219761,
2,0,0,1,0,12190.6,0.0297635,0.029452,-0.0218923,7,-0.00172182,10,-6.44772e-07,-4.65971,-0.0286454,-2.05967,1.73246,0.029452,
2,0,0,1,0,12198,0.0372544,0.036933,-0.00855682,7,-0.00173127,10,-3.16029e-07,-5.06769,-0.01072,-5.50373,1.6575,0.036933,
2,1,0,1,0,12205.5,0.0447454,0.0444504,0.00316357,7,-0.00164848,10,1.40622e-07,-5.49982,0.00330125,17.872,1.27505,0.0444504,
2,1,0,1,0,12213,0.0522363,0.0519103,0.0127602,7,-0.00148317,10,6.62385e-07,-4.89414,0.0219129,2.69248,1.40074,0.0519103,
2,1,0,1,0,12220.5,0.0597273,0.0594212,0.0227944,7,-0.00124312,10,1.35447e-06,-4.64217,0.0465748,1.26678,1.1193,0.0594212,
2,1,0,1,0,12228,0.0672183,0.0668908,0.0323196,7,-0.00093397,10,2.16188e-06,-4.49053,0.0693784,0.850409,1.04264,0.0668908,
2,1,0,1,0,12235.5,0.0747092,0.0744058,0.0384801,7,-0.000565305,10,2.86314e-06,-4.41476,0.0948114,0.622288,0.94669,0.0744058,
2,1,0,1,0,12243,0.0822001,0.0818805,0.0461416,7,-0.000139107,10,3.7781e-06,-4.33591,0.106398,0.55452,1.00777,0.0818805,
2,1,0,1,0,12250.5,0.0896911,0.0893331,0.0545877,7,0.000344971,10,4.87649e-06,-4.26291,0.0973529,0.606043,1.30642,0.0893331,
2,1,0,1,0,12258,0.0971821,0.0968387,0.0662736,7,0.000904996,10,6.41786e-06,-4.17866,0.0888497,0.664043,1.70575,0.0968387,
2,1,0,1,0,12265.5,0.104673,0.104363,0.078933,7,0.00155165,10,8.23771e-06,-4.10274,0.113439,0.520105,1.58581,0.104363,
2,1,0,1,0,12273,0.112164,0.111848,0.0891547,7,0.00228727,10,9.97175e-06,-4.04986,0.217991,0.270654,0.940437,0.111848,
2,1,0,1,0,12280.4,0.119655,0.119329,0.0984003,7,0.003098,10,1.1742e-05,-4.007,0.173126,0.340793,1.31409,0.1193288,
2,1,0,1,0,12287.9,0.127146,0.126865,0.107805,7,0.00398444,10,1.36767e-05,-3.96736,0.230392,0.256085,1.07841,0.126865,
2,1,0,1,0,12295.4,0.134637,0.134301,0.110627,7,0.0049261,10,1.48573e-05,-3.95614,-0.330596,-0.178466,-0.768555,0.134301,
2,1,0,1,0,12302.9,0.142128,0.141825,0.0964681,7,0.00581929,10,1.36816e-05,-4.01562,-0.0798375,-0.739002,-2.75525,0.141825,
2,1,0,1,0,12310.4,0.149619,0.149303,0.0734467,7,0.00655521,10,1.09658e-05,-4.13403,-0.070055,-0.842196,-2.42818,0.149303,
2,1,0,1,0,12317.9,0.15711,0.15681,0.0610372,7,0.00715431,10,9.57125e-06,-4.21441,-0.102079,-0.577985,-1.37485,0.15681,
2,1,0,1,0,12325.4,0.164601,0.164251,0.0546334,7,0.00768467,10,8.97358e-06,-4.26254,-0.178843,-0.329898,-0.703125,0.164251,
2,1,0,1,0,12332.9,0.172091,0.171784,0.0518541,7,0.00817958,10,8.9077e-06,-4.28522,-0.431361,-0.136776,-0.275989,0.171784,
2,1,0,1,0,12340.4,0.179582,0.179292,0.0506178,7,0.00865895,10,9.07535e-06,-4.2957,-0.529229,-0.111483,-0.220331,0.179292,
2,1,0,1,0,12347.9,0.187073,0.186794,0.0504142,7,0.00913172,10,9.41707e-06,-4.29745,-3.85949,-0.015287,-0.0298169,0.186794,
2,1,0,1,0,12355.4,0.194564,0.19428,0.0500951,7,0.00960249,10,9.7325e-06,-4.3002,-54.4771,-0.00108302,-0.00212243,0.19428,
2,1,0,1,0,12362.8,0.202055,0.201736,0.0506982,7,0.0100739,10,1.02277e-05,-4.29501,2.02168,0.0291837,0.0576625,0.201736,
2,1,0,1,0,12370.3,0.209546,0.209247,0.0510187,7,0.0105475,10,1.06755e-05,-4.29227,2.81893,0.0209299,0.0416694,0.209247,
2,1,0,1,0,12377.8,0.217037,0.216684,0.0518097,7,0.0110241,10,1.12263e-05,-4.28559,1.57891,0.0373676,0.0757882,0.216684,
2,1,0,1,0,12385.3,0.224528,0.224235,0.052293,7,0.0115071,10,1.17259e-05,-4.28156,6.58966,0.00895342,0.0181625,0.224235,
2,1,0,1,0,12392.8,0.232019,0.231705,0.0531053,7,0.0119946,10,1.23048e-05,-4.27486,0.708121,0.0833191,0.173593,0.2317054,
2,1,0,1,0,12400.3,0.23951,0.239209,0.0537055,7,0.0124881,10,1.28468e-05,-4.26998,1.0077,0.058549,0.123256,0.239209,
2,1,0,1,0,12407.8,0.247001,0.246722,0.0551592,7,0.012988,10,1.3609e-05,-4.25838,0.640377,0.0921333,0.19757,0.246722,
2,1,0,1,0,12415.3,0.254492,0.254216,0.05609,7,0.0134966,10,1.4259e-05,-4.25111,2.90797,0.0202891,0.0449112,0.254216,
2,1,0,1,0,12422.8,0.261983,0.261679,0.0571391,7,0.0140122,10,1.49521e-05,-4.24307,4.03269,0.0146304,0.0328011,0.261679,
2,1,0,1,0,12430.3,0.269474,0.269124,0.0580808,7,0.0145346,10,1.56309e-05,-4.23597,0.476752,0.123754,0.280932,0.269124,
2,1,0,1,0,12437.8,0.276965,0.276678,0.059212,7,0.0150639,10,1.63827e-05,-4.22759,-5.18029,-0.0113893,-0.0261669,0.276678,
2,1,0,1,0,12445.2,0.284456,0.284116,0.0596589,7,0.0155966,10,1.695e-05,-4.22432,0.632272,0.0933143,0.218306,0.284116,
2,1,0,1,0,12452.7,0.291947,0.291618,0.0609025,7,0.016136,10,1.77603e-05,-4.21537,2.81401,0.0209665,0.0501515,0.291618,
2,1,0,1,0,12460.2,0.299438,0.299149,0.0610652,7,0.0166796,10,1.82676e-05,-4.21421,-0.00515233,-11.4511,-18.8393,0.2991493,
2,1,0,1,0,12467.1,0.293745,0.293428,0.0121233,7,0.0167724,10,3.55733e-06,-4.91638,0.0180675,3.26553,1.56756,0.293428,
2,1,0,1,0,12474.6,0.286254,0.285974,0.00404708,7,0.0167445,10,1.15736e-06,-5.39286,0.0100627,5.86325,0.852034,0.285974,
2,0,0,1,0,12482,0.278763,0.27847,-0.00214987,7,0.0166651,10,-5.98676e-07,-5.66759,-0.00557923,-10.5749,0.70668,0.2784704,
2,0,0,1,0,12489.5,0.271272,0.27095,-0.00682416,7,0.0165449,10,-1.84901e-06,-5.16595,-0.0284951,-2.07053,0.527689,0.27095,
2,0,0,1,0,12497,0.263781,0.263487,-0.0101834,7,0.0163937,10,-2.68318e-06,-4.99211,-0.0428772,-1.37602,0.57192,0.2634868,
2,0,0,1,0,12504.5,0.25629,0.255965,-0.0134881,7,0.0162141,10,-3.45248e-06,-4.87005,-0.0695819,-0.847922,0.454697,0.255965,
2,0,0,1,0,12512,0.248799,0.248484,-0.0179509,7,0.0160089,10,-4.4605e-06,-4.74591,-0.0756819,-0.779579,0.530817,0.248484,
2,0,0,1,0,12519.5,0.241308,0.240979,-0.0207719,7,0.0157773,10,-5.0056e-06,-4.68252,-0.137534,-0.428985,0.347299,0.240979,
2,0,0,1,0,12527,0.233817,0.233514,-0.0231149,7,0.015525,10,-5.39766e-06,-4.63611,-0.140115,-0.421083,0.378756,0.233514,
2,0,0,1,0,12534.5,0.226326,0.226019,-0.0258669,7,0.015251,10,-5.84641e-06,-4.58726,-0.189648,-0.311103,0.319487,0.226019,
2,0,0,1,0,12542,0.218835,0.218574,-0.0292309,7,0.0149549,10,-6.38912e-06,-4.53416,-0.193777,-0.304473,0.344038,0.218574,
2,0,0,1,0,12549.5,0.211344,0.21104,-0.031528,7,0.0146372,10,-6.65368e-06,-4.5013,-0.234478,-0.251623,0.313571,0.21104,
2,0,0,1,0,12557,0.203853,0.203509,-0.0347616,7,0.0142981,10,-7.0743e-06,-4.4589,-0.240893,-0.244922,0.332207,0.203509,
2,0,0,1,0,12564.5,0.196362,0.196031,-0.0382387,7,0.0139361,10,-7.49597e-06,-4.4175,-0.188984,-0.312196,0.459347,0.196031,
2,0,0,1,0,12571.9,0.188871,0.188527,-0.0412614,7,0.0135472,10,-7.77888e-06,-4.38446,-0.152254,-0.387511,0.628014,0.188527,
2,0,0,1,0,12579.4,0.18138,0.181085,-0.0453363,7,0.0131287,10,-8.20971e-06,-4.34355,-0.175421,-0.336333,0.593069,0.181085,
2,0,0,1,0,12586.9,0.173889,0.173546,-0.0498867,7,0.0126777,10,-8.65766e-06,-4.30202,-0.178809,-0.32996,0.640832,0.173546,
2,0,0,1,0,12594.4,0.166398,0.166038,-0.0554662,7,0.0121858,10,-9.20947e-06,-4.25597,-0.13435,-0.439153,0.964344,0.166038,
2,0,0,1,0,12601.9,0.158907,0.158605,-0.0644386,7,0.0116354,10,-1.02203e-05,-4.19085,-0.10171,-0.58008,1.47617,0.158605,
2,0,0,1,0,12609.4,0.151417,0.151089,-0.0791545,7,0.0109976,10,-1.19594e-05,-4.10152,-0.081838,-0.720936,2.22377,0.1510891,
2,0,0,1,0,12616.9,0.143926,0.143631,-0.100157,7,0.0102283,10,-1.43857e-05,-3.99932,-0.0612282,-0.963609,3.75699,0.143631,
2,0,0,1,0,12624.4,0.136435,0.136129,-0.12852,7,0.00926389,10,-1.74952e-05,-3.89103,-0.0840948,-0.70159,3.50119,0.136129,
2,0,0,1,0,12631.9,0.128944,0.128643,-0.149371,7,0.00810799,10,-1.92156e-05,-3.82573,-0.22543,-0.261722,1.51409,0.128643,
2,0,0,1,0,12639.4,0.121453,0.121152,-0.1553,7,0.00685387,10,-1.88148e-05,-3.80883,4.6338,0.0127325,-0.0766125,0.121152,
2,0,0,1,0,12646.9,0.113962,0.113622,-0.151791,7,0.00559321,10,-1.72468e-05,-3.81875,0.558501,0.10564,-0.628788,0.113622,
2,0,0,1,0,12654.3,0.106471,0.106148,-0.148864,7,0.00435702,10,-1.58016e-05,-3.82721,0.891622,0.0661716,-0.385057,0.106148,
2,0,0,1,0,12661.8,0.0989798,0.0986541,-0.142928,7,0.0031566,10,-1.41004e-05,-3.84488,0.415192,0.142103,-0.790235,0.0986541,
2,0,0,1,0,12669.3,0.0914889,0.0911601,-0.136152,7,0.00200582,10,-1.24116e-05,-3.86598,0.384249,0.153546,-0.818336,0.0911601,
2,0,0,1,0,12676.8,0.083998,0.0836929,-0.130168,7,0.000906146,10,-1.08942e-05,-3.88549,0.377838,0.156151,-0.789485,0.0836929,
2,0,0,1,0,12684.3,0.076507,0.076201,-0.125809,7,-0.000153463,10,-9.58675e-06,-3.90029,0.891588,0.0661741,-0.32401,0.076201,
2,0,0,1,0,12691.8,0.069016,0.0686976,-0.121178,7,-0.00118244,10,-8.32464e-06,-3.91658,0.909102,0.0648992,-0.308844,0.0686976,
2,0,0,1,0,12699.3,0.0615251,0.0612132,-0.118758,7,-0.00218755,10,-7.26958e-06,-3.92534,0.679091,0.0868808,-0.402682,0.0612132,
2,0,0,1,0,12706.8,0.0540342,0.0537237,-0.116084,7,-0.00316937,10,-6.23644e-06,-3.93523,0.634803,0.0929423,-0.42082,0.0537237,
2,0,0,1,0,12714.3,0.0465432,0.0462573,-0.112273,7,-0.00412894,10,-5.19347e-06,-3.94972,0.509193,0.11587,-0.511479,0.0462573,
2,0,0,1,0,12721.8,0.0390522,0.0386891,-0.110366,7,-0.00506625,10,-4.26995e-06,-3.95717,0.511831,0.115272,-0.495354,0.0386891,
2,0,0,1,0,12729.3,0.0315613,0.031243,-0.107051,7,-0.00598275,10,-3.3446e-06,-3.97041,0.489668,0.12049,-0.505658,0.031243,
2,0,0,1,0,12736.7,0.0240703,0.0237639,-0.104826,7,-0.0068777,10,-2.49107e-06,-3.97953,-5.33956,-0.0110496,0.0454064,0.0237639,
2,0,0,1,0,12744.2,0.0165794,0.0162807,-0.104605,7,-0.00776266,10,-1.70305e-06,-3.98045,3.74273,0.0157639,-0.0641783,0.0162807,
2,0,0,1,0,12751.7,0.00908843,0.00878779,-0.105047,7,-0.00864711,10,-9.2313e-07,-3.97862,-1.21448,-0.0485806,0.199705,0.008787795,
2,0,0,1,0,12759.2,0.00159744,0.00121326,-0.108532,7,-0.00954658,10,-1.31677e-07,-3.96444, , , ,0.001213257,
2,0,0,1,0,12760.6,0.000199235,-0.0001821,-0.108793,7,-0.00971677,10,1.98111e-08,-3.9634, , , ,-0.0001821,

File: 20221101_1-115_003_TrumpetPlot_ParaChange_from10_every3_02_CV_C01_7.csv
mode,ox/red,error,control changes,counter inc.,time/s,control/V,Ewe/V,<I>/mA,cycle number,(Q-Qo)/C,I Range,P/W,log(|I|),Tafel slope mV/dec,alpha_eff,dI/d(E-IR),E-IR/V,
2,0,0,1,0,14130.9,2.44065e-05,-0.000363498,-0.351263,8,0.0000000E+000,10,1.27683e-07,-3.45437, , , ,-0.000363498,
2,0,0,1,0,14138.2,0.00729061,0.00696921,-0.0945998,8,-0.000907627,10,-6.59286e-07,-4.02411,-0.0300757,-1.96172,7.36934,0.00696921,
2,0,0,1,0,14145.7,0.0147815,0.0144874,-0.0594735,8,-0.0013628,10,-8.61619e-07,-4.22568,-0.0440852,-1.33832,3.14511,0.0144874,
2,0,0,1,0,14153.2,0.0222725,0.0219676,-0.0389661,8,-0.00162426,10,-8.5599e-07,-4.40931,-0.0378345,-1.55942,2.36252,0.0219676,
2,0,0,1,0,14160.7,0.0297635,0.0294456,-0.0230684,8,-0.00175054,10,-6.79262e-07,-4.63698,-0.0332796,-1.77286,1.61229,0.02944563,
2,0,0,1,0,14168.2,0.0372544,0.0368918,-0.0107733,8,-0.00176988,10,-3.97445e-07,-4.96765,-0.0137016,-4.30608,1.68547,0.0368918,
2,1,0,1,0,14175.7,0.0447454,0.0444313,0.00120764,8,-0.00169288,10,5.36571e-08,-5.91806,0.00964204,6.11904,1.45114,0.0444313,
2,1,0,1,0,14183.2,0.0522363,0.0518806,0.0117838,8,-0.00153314,10,6.11352e-07,-4.92871,0.0166717,3.53894,1.53521,0.0518806,
2,1,0,1,0,14190.6,0.0597273,0.0593957,0.0211136,8,-0.00129607,10,1.25406e-06,-4.67544,0.0423911,1.3918,1.11866,0.0593957,
2,1,0,1,0,14198.1,0.0672183,0.0669257,0.0303231,8,-0.000992412,10,2.02939e-06,-4.51823,0.0633092,0.931934,1.0671,0.0669257,
2,1,0,1,0,14205.6,0.0747092,0.0743623,0.0367607,8,-0.000627465,10,2.73361e-06,-4.43462,0.0847746,0.695963,1.00817,0.0743623,
2,1,0,1,0,14213.1,0.0822001,0.0818858,0.0441541,8,-0.000208269,10,3.6156e-06,-4.35503,0.0919803,0.641442,1.11273,0.0818858,
2,1,0,1,0,14220.6,0.0896911,0.0893819,0.0534103,8,0.000272991,10,4.77391e-06,-4.27238,0.100646,0.586212,1.23287,0.0893819,
2,1,0,1,0,14228.1,0.0971821,0.0968504,0.0638353,8,0.000828196,10,6.18247e-06,-4.19494,0.0871352,0.677109,1.69136,0.0968504,
2,1,0,1,0,14235.6,0.104673,0.104369,0.0762906,8,0.00146981,10,7.96234e-06,-4.11753,0.121592,0.48523,1.43622,0.104369,
2,1,0,1,0,14243.1,0.112164,0.111873,0.0861358,8,0.002197,10,9.63627e-06,-4.06482,0.21745,0.271327,0.911831,0.111873,
2,1,0,1,0,14250.6,0.119655,0.119307,0.0962655,8,0.0029986,10,1.14851e-05,-4.01653,0.177071,0.3332,1.24284,0.119307,
2,1,0,1,0,14258.1,0.127146,0.126806,0.104474,8,0.00387144,10,1.32479e-05,-3.98099,0.229748,0.256804,1.0518,0.1268058,
2,1,0,1,0,14265.6,0.134637,0.134342,0.105584,8,0.00479493,10,1.41844e-05,-3.9764,-0.240439,-0.245384,-1.01486,0.134342,
2,1,0,1,0,14273,0.142128,0.141814,0.0906217,8,0.00565961,10,1.28514e-05,-4.04277,-0.0773204,-0.763058,-2.68468,0.141814,
2,1,0,1,0,14280.5,0.149619,0.149338,0.0689004,8,0.00636848,10,1.02895e-05,-4.16178,-0.0699542,-0.843409,-2.28281,0.149338,
2,1,0,1,0,14288,0.15711,0.156787,0.0564216,8,0.00694457,10,8.84615e-06,-4.24855,-0.132348,-0.445793,-0.993247,0.156787,
2,1,0,1,0,14295.5,0.164601,0.164262,0.0519219,8,0.00745721,10,8.52882e-06,-4.28465,-0.283127,-0.208387,-0.418434,0.164262,
2,1,0,1,0,14303,0.172091,0.171806,0.0498959,8,0.00794152,10,8.57243e-06,-4.30193,-1.97441,-0.0298824,-0.0581568,0.171806,
2,1,0,1,0,14310.5,0.179582,0.179281,0.0486968,8,0.00841368,10,8.73042e-06,-4.3125,11.676,0.00505312,0.00959675,0.179281,
2,1,0,1,0,14318,0.187073,0.186764,0.0482411,8,0.00887825,10,9.00971e-06,-4.31658,-1.88139,-0.0313598,-0.0592436,0.186764,
2,1,0,1,0,14325.5,0.194564,0.194219,0.0486823,8,0.00934176,10,9.45503e-06,-4.31263,-2.64876,-0.0222746,-0.0424692,0.194219,
2,1,0,1,0,14333,0.202055,0.201767,0.0488897,8,0.00980525,10,9.86434e-06,-4.31078,3.0462,0.0193684,0.0369022,0.201767,
2,1,0,1,0,14340.5,0.209546,0.209255,0.049293,8,0.010273,10,1.03148e-05,-4.30721,0.802583,0.0735127,0.141563,0.209255,
2,1,0,1,0,14348,0.217037,0.216709,0.0507181,8,0.0107449,10,1.09911e-05,-4.29484,1.51843,0.0388559,0.0769624,0.216709,
2,1,0,1,0,14355.4,0.224528,0.224181,0.0516514,8,0.0112254,10,1.15793e-05,-4.28692,1.89788,0.0310873,0.0623527,0.224181,
2,1,0,1,0,14362.9,0.232019,0.23167,0.0523655,8,0.0117091,10,1.21315e-05,-4.28096,2.08313,0.0283227,0.0575474,0.23167,
2,1,0,1,0,14370.4,0.23951,0.239207,0.0531489,8,0.012198,10,1.27136e-05,-4.27451,0.452475,0.130394,0.26853,0.239207,
2,1,0,1,0,14377.9,0.247001,0.246691,0.0542393,8,0.0126943,10,1.33803e-05,-4.26569,0.975069,0.0605085,0.127694,0.246691,
2,1,0,1,0,14385.4,0.254492,0.254179,0.0556807,8,0.0131989,10,1.41528e-05,-4.2543,1.15079,0.051269,0.110601,0.254179,
2,1,0,1,0,14392.9,0.261983,0.261681,0.0565462,8,0.0137105,10,1.47971e-05,-4.2476,1.17821,0.0500761,0.109334,0.2616809,
2,1,0,1,0,14400.4,0.269474,0.269185,0.0573721,8,0.0142284,10,1.54437e-05,-4.2413,0.896821,0.0657879,0.146688,0.269185,
2,1,0,1,0,14407.9,0.276965,0.276669,0.0581076,8,0.0147511,10,1.60765e-05,-4.23577,0.935818,0.0630465,0.142717,0.2766687,
2,1,0,1,0,14415.4,0.284456,0.284119,0.0591119,8,0.0152792,10,1.67948e-05,-4.22833,0.944758,0.0624498,0.143295,0.284119,
2,1,0,1,0,14422.9,0.291947,0.291613,0.0594528,8,0.0158121,10,1.73372e-05,-4.22583,0.713809,0.0826551,0.193591,0.291613,
2,1,0,1,0,14430.4,0.299438,0.299152,0.0610465,8,0.0163528,10,1.82622e-05,-4.21434,-0.00534596,-11.0364,-17.8584,0.299152,
2,1,0,1,0,14437.2,0.293745,0.29347,0.011857,8,0.0164416,10,3.47968e-06,-4.92602,0.0178398,3.30721,1.5829,0.29347,
2,1,0,1,0,14444.7,0.286254,0.285957,0.00313279,8,0.0164077,10,8.95842e-07,-5.50407,0.011306,5.21846,0.696495,0.2859568,
2,1,0,1,0,14452.2,0.278763,0.278454,-0.00175961,8,0.0163228,10,-4.89971e-07,-5.75458,-0.00614217,-9.60573,0.658188,0.278454,
2,1,0,1,0,14459.7,0.271272,0.270977,-0.00646228,8,0.0162003,10,-1.75113e-06,-5.18961,-0.0264693,-2.229,0.567592,0.270977,
2,0,0,1,0,14467.2,0.263781,0.263478,-0.00988657,8,0.0160466,10,-2.6049e-06,-5.00495,-0.0387875,-1.52111,0.596463,0.263478,
2,0,0,1,0,14474.7,0.25629,0.255963,-0.0137248,8,0.0158662,10,-3.51305e-06,-4.86249,-0.0738585,-0.798824,0.42819,0.255963,
2,0,0,1,0,14482.1,0.248799,0.2485,-0.0165876,8,0.0156622,10,-4.12201e-06,-4.78022,-0.137147,-0.430196,0.276494,0.2485,
2,0,0,1,0,14489.6,0.241308,0.241022,-0.0195908,8,0.0154345,10,-4.72181e-06,-4.70795,-0.110964,-0.531706,0.407396,0.241022,
2,0,0,1,0,14497.1,0.233817,0.233513,-0.0222312,8,0.0151847,10,-5.19129e-06,-4.65304,-0.135221,-0.436322,0.377735,0.233513,
2,0,0,1,0,14504.6,0.226326,0.225998,-0.0249788,8,0.0149134,10,-5.64517e-06,-4.60243,-0.179678,-0.328364,0.32097,0.225998,
2,0,0,1,0,14512.1,0.218835,0.218514,-0.0279576,8,0.0146207,10,-6.10913e-06,-4.5535,-0.373778,-0.157848,0.170505,0.218514,
2,0,0,1,0,14519.6,0.211344,0.211022,-0.0303039,8,0.0143079,10,-6.3948e-06,-4.5185,-0.234511,-0.251587,0.302611,0.211022,
2,0,0,1,0,14527.1,0.203853,0.203512,-0.033338,8,0.0139722,10,-6.78469e-06,-4.47706,-0.183276,-0.32192,0.41726,0.203512,
2,0,0,1,0,14534.6,0.196362,0.196017,-0.0366171,8,0.0136122,10,-7.17759e-06,-4.43632,-0.148422,-0.397515,0.56439,0.196017,
2,0,0,1,0,14542.1,0.188871,0.188551,-0.0396525,8,0.0132259,10,-7.47653e-06,-4.40173,-0.248093,-0.237814,0.368922,0.188551,
2,0,0,1,0,14549.6,0.18138,0.181101,-0.0447798,8,0.0128113,10,-8.10966e-06,-4.34892,-0.203333,-0.290164,0.497786,0.181101,
2,0,0,1,0,14557.1,0.173889,0.173569,-0.0484069,8,0.0123632,10,-8.40192e-06,-4.31509,-0.155251,-0.38003,0.71974,0.173569,
2,0,0,1,0,14564.5,0.166398,0.166073,-0.0547497,8,0.0118733,10,-9.09243e-06,-4.26162,-0.139306,-0.423528,0.906411,0.166073,
2,0,0,1,0,14572,0.158907,0.158619,-0.0625433,8,0.0113287,10,-9.92055e-06,-4.20382,-0.118922,-0.496125,1.20984,0.158619,
2,0,0,1,0,14579.5,0.151417,0.151119,-0.0755863,8,0.0107054,10,-1.14225e-05,-4.12156,-0.082734,-0.713129,2.10049,0.151119,
2,0,0,1,0,14587,0.143926,0.143633,-0.0959381,8,0.0099543,10,-1.37799e-05,-4.01801,-0.0627073,-0.940879,3.51727,0.143633,
2,0,0,1,0,14594.5,0.136435,0.136102,-0.123879,8,0.00901536,10,-1.68602e-05,-3.907,-0.0785997,-0.750639,3.61722,0.136102,
2,0,0,1,0,14602,0.128944,0.128614,-0.144877,8,0.0078827,10,-1.86332e-05,-3.839,-0.208175,-0.283416,1.59504,0.128614,
2,0,0,1,0,14609.5,0.121453,0.121104,-0.152468,8,0.0066466,10,-1.84645e-05,-3.81682,-2.12616,-0.0277495,0.163643,0.121104,
2,0,0,1,0,14617,0.113962,0.113623,-0.148443,8,0.00539743,10,-1.68665e-05,-3.82844,0.745112,0.0791827,-0.461783,0.113623,
2,0,0,1,0,14624.5,0.106471,0.106184,-0.146311,8,0.00417302,10,-1.55359e-05,-3.83472,0.701324,0.0841266,-0.47929,0.106184,
2,0,0,1,0,14632,0.0989798,0.0986498,-0.140816,8,0.00298402,10,-1.38915e-05,-3.85135,0.431706,0.136667,-0.747719,0.0986498,
2,0,0,1,0,14639.5,0.0914889,0.0911962,-0.134602,8,0.00184004,10,-1.22752e-05,-3.87095,0.372081,0.158567,-0.830997,0.0911962,
2,0,0,1,0,14646.9,0.083998,0.0836621,-0.127878,8,0.000742463,10,-1.06986e-05,-3.8932,0.263101,0.224249,-1.12212,0.0836621,
2,0,0,1,0,14654.4,0.076507,0.0762212,-0.12432,8,-0.000313515,10,-9.47584e-06,-3.90546,0.41315,0.142805,-0.688561,0.0762212,
2,0,0,1,0,14661.9,0.069016,0.068705,-0.120294,8,-0.00134086,10,-8.26477e-06,-3.91976,1.04699,0.0563519,-0.26547,0.068705,
2,0,0,1,0,14669.4,0.0615251,0.0612239,-0.117677,8,-0.00234538,10,-7.20462e-06,-3.92931,0.723741,0.0815208,-0.374176,0.0612239,
2,0,0,1,0,14676.9,0.0540342,0.0537236,-0.114736,8,-0.00332578,10,-6.16403e-06,-3.9403,0.62169,0.0949026,-0.422365,0.0537236,
2,0,0,1,0,14684.4,0.0465432,0.0462032,-0.111546,8,-0.00428348,10,-5.15376e-06,-3.95255,0.605868,0.097381,-0.424104,0.0462032,
2,0,0,1,0,14691.9,0.0390522,0.0387507,-0.1088,8,-0.00521858,10,-4.21608e-06,-3.96337,0.651425,0.0905706,-0.382678,0.0387507,
2,0,0,1,0,14699.4,0.0315613,0.0312069,-0.105637,8,-0.00612979,10,-3.29662e-06,-3.97618,0.966716,0.0610314,-0.251102,0.0312069,
2,0,0,1,0,14706.9,0.0240703,0.0237777,-0.103649,8,-0.00702179,10,-2.46453e-06,-3.98444,7.63151,0.0077311,-0.0313725,0.0237777,
2,0,0,1,0,14714.4,0.0165794,0.0162754,-0.103174,8,-0.00790346,10,-1.6792e-06,-3.98643,-6.92563,-0.00851908,0.0343534,0.0162754,
2,0,0,1,0,14721.9,0.00908843,0.00874009,-0.103906,8,-0.00878726,10,-9.08151e-07,-3.98336,-0.78613,-0.0750512,0.305013,0.00874009,
2,0,0,1,0,14729.3,0.00159744,0.00121645,-0.107126,8,-0.00968529,10,-1.30313e-07,-3.97011, , , ,0.00121645,
2,0,0,1,0,14730.7,0.000199235,-0.000166902,-0.107442,8,-0.0098552,10,1.79323e-08,-3.96883, , , ,-0.000166902,