Folder: Figs_alphaMnO2_OER_Tafel_sleope/Figure_codes/Fig_3-5/rawdata_trumpetplot_data/after 10th (part 99)

File: 20221101_1-115_003_TrumpetPlot_ParaChange_from10_every3_07_CV_C01_24.csv
mode,ox/red,error,control changes,counter inc.,time/s,control/V,Ewe/V,<I>/mA,cycle number,(Q-Qo)/C,I Range,P/W,log(|I|),Tafel slope mV/dec,alpha_eff,dI/d(E-IR),E-IR/V,
2,0,0,0,0,48448.1,2.44065e-05,-0.000268062,-2.70013,25,0.0000000E+000,10,7.23801e-07,-2.56862, , , ,-0.000268062,
2,1,0,1,0,48448.3,0.007288,0.0069708,0.932635,25,-3.65584e-05,10,6.50121e-06,-3.03029,0.00880187,6.70312,208.291,0.0069708,
2,1,0,1,0,48448.4,0.0147816,0.0144594,1.84174,25,0.000148379,10,2.66303e-05,-2.73477,0.0544886,1.0828,77.4369,0.0144594,
2,1,0,1,0,48448.5,0.0222712,0.0219387,2.26948,25,0.000409628,10,4.97895e-05,-2.64407,0.120828,0.488297,43.1602,0.0219387,
2,1,0,1,0,48448.6,0.0297648,0.0294157,2.5641,25,0.000713669,10,7.54249e-05,-2.59106,0.17273,0.341574,34.003,0.0294157,
2,1,0,1,0,48448.8,0.0372518,0.0368972,2.81326,25,0.00105096,10,0.000103802,-2.55079,0.186795,0.315854,34.6977,0.0368972,
2,1,0,1,0,48448.9,0.0447467,0.0444071,3.05038,25,0.00141964,10,0.000135459,-2.51565,0.215665,0.273572,32.6627,0.0444071,
2,1,0,1,0,48449,0.052235,0.0518927,3.29453,25,0.00181806,10,0.000170962,-2.48221,0.251147,0.234922,30.2028,0.0518927,
2,1,0,1,0,48449.1,0.0597299,0.0594187,3.52747,25,0.00224596,10,0.000209598,-2.45254,0.282958,0.208512,28.6434,0.05941873,
2,1,0,1,0,48449.3,0.0672156,0.0669173,3.73717,25,0.00270069,10,0.000250081,-2.42746,0.303046,0.19469,28.331,0.0669173,
2,1,0,1,0,48449.4,0.0747105,0.0744002,3.91535,25,0.00318081,10,0.000291303,-2.40723,0.381388,0.154698,23.6752,0.0744002,
2,1,0,1,0,48449.5,0.0821988,0.0818979,4.08041,25,0.00368227,10,0.000334177,-2.3893,0.509465,0.115808,18.4527,0.0818979,
2,1,0,1,0,48449.6,0.0896937,0.0893484,4.22741,25,0.00420293,10,0.000377712,-2.37393,0.49145,0.120053,19.7873,0.0893484,
2,1,0,1,0,48449.8,0.0971794,0.0968148,4.39588,25,0.00474224,10,0.000425586,-2.35695,0.345133,0.170948,29.3234,0.0968148,
2,1,0,1,0,48449.9,0.104674,0.10434,4.64037,25,0.00530753,10,0.000484176,-2.33345,0.255315,0.231087,41.9348,0.10434,
2,1,0,1,0,48450,0.112163,0.111804,4.99067,25,0.00591024,10,0.000557975,-2.30184,0.246564,0.239289,46.6303,0.111804,
2,1,0,1,0,48450.1,0.119657,0.119345,5.36216,25,0.00655876,10,0.000639945,-2.27066,0.292012,0.202047,42.1872,0.119345,
2,1,0,1,0,48450.3,0.127143,0.12678,5.63307,25,0.00724775,10,0.00071416,-2.24925,0.429769,0.137283,30.1776,0.12678,
2,1,0,1,0,48450.4,0.134638,0.13431,5.81473,25,0.0079659,10,0.000780974,-2.23547,0.729998,0.0808222,18.3607,0.13431,
2,1,0,1,0,48450.5,0.142126,0.141851,5.88962,25,0.00869994,10,0.000835451,-2.22991,-6.34825,-0.00929391,-2.13345,0.141851,
2,1,0,1,0,48450.6,0.149621,0.149335,5.69259,25,0.0094292,10,0.000850101,-2.24469,-0.21336,-0.276529,-61.1307,0.149335,
2,1,0,1,0,48450.8,0.157107,0.156791,5.01788,25,0.010103,10,0.000786757,-2.29948,-0.101767,-0.579756,-113.099,0.156791,
2,1,0,1,0,48450.9,0.164602,0.164271,4.1455,25,0.0106761,10,0.000680986,-2.38242,-0.0897381,-0.657469,-106.553,0.164271,
2,1,0,1,0,48451,0.17209,0.171747,3.48795,25,0.0111516,10,0.000599044,-2.45743,-0.113852,-0.518218,-70.8759,0.171747,
2,1,0,1,0,48451.1,0.179585,0.179266,3.09641,25,0.0115625,10,0.00055508,-2.50914,-0.168662,-0.349812,-42.2879,0.179266,
2,1,0,1,0,48451.3,0.187072,0.186715,2.8578,25,0.011934,10,0.000533593,-2.54397,-0.276988,-0.213006,-23.7086,0.186715,
2,1,0,1,0,48451.4,0.194566,0.194248,2.70379,25,0.0122823,10,0.000525207,-2.56803,-0.448617,-0.131515,-13.9079,0.194248,
2,1,0,1,0,48451.5,0.202055,0.201737,2.60783,25,0.0126154,10,0.000526096,-2.58372,-0.462294,-0.127624,-12.9937,0.201737,
2,1,0,1,0,48451.6,0.209549,0.209221,2.54916,25,0.0129391,10,0.000533337,-2.5936,-0.632341,-0.0933042,-9.27281,0.209221,
2,1,0,1,0,48451.8,0.217036,0.216698,2.49678,25,0.0132555,10,0.000541046,-2.60262,-1.07804,-0.054729,-5.33988,0.216698,
2,1,0,1,0,48451.9,0.224529,0.224199,2.45725,25,0.0135671,10,0.000550912,-2.60955,-1.46207,-0.0403539,-3.88454,0.224199,
2,1,0,1,0,48452,0.232019,0.231718,2.42937,25,0.0138744,10,0.000562928,-2.61451,-1.94469,-0.0303391,-2.88536,0.2317179,
2,1,0,1,0,48452.1,0.239513,0.239232,2.41417,25,0.0141787,10,0.000577547,-2.61723,-1.42084,-0.0415248,-3.90634,0.239232,
2,1,0,1,0,48452.3,0.247001,0.246718,2.39357,25,0.0144801,10,0.000590536,-2.62095,-3.02838,-0.0194823,-1.81473,0.246718,
2,1,0,1,0,48452.4,0.254493,0.254177,2.36875,25,0.0147793,10,0.000602082,-2.62548,-1.93507,-0.0304898,-2.82455,0.254177,
2,1,0,1,0,48452.5,0.261983,0.26169,2.34853,25,0.0150761,10,0.000614586,-2.6292,-1.50752,-0.0391371,-3.59831,0.26169,
2,1,0,1,0,48452.6,0.269477,0.269121,2.3368,25,0.0153709,10,0.000628882,-2.63138,-2.3511,-0.0250946,-2.28708,0.269121,
2,1,0,1,0,48452.8,0.276965,0.276657,2.32188,25,0.0156634,10,0.000642363,-2.63416,-3.06948,-0.0192215,-1.73818,0.276657,
2,1,0,1,0,48452.9,0.284457,0.284186,2.30158,25,0.0159538,10,0.000654078,-2.63797,-11.4695,-0.00514407,-0.462587,0.284186,
2,1,0,1,0,48453,0.291947,0.29161,2.27924,25,0.0162418,10,0.000664649,-2.64221,-1.34162,-0.0439766,-3.92003,0.29161,
2,1,0,1,0,48453.1,0.29944,0.299142,2.26709,25,0.0165276,10,0.000678183,-2.64453,-0.00902201,-6.53956,-463.408,0.299142,
2,0,0,1,0,48453.3,0.293742,0.293417,-0.326399,25,0.0165957,10,-9.57709e-05,-3.48625,-0.00134091,-44,129.622,0.293417,
2,0,0,1,0,48453.4,0.286254,0.285906,-0.82514,25,0.0165158,10,-0.000235912,-3.08347,-0.0456909,-1.29129,41.1718,0.285906,
2,0,0,1,0,48453.5,0.278761,0.278471,-1.04012,25,0.0163958,10,-0.000289644,-2.98291,-0.105031,-0.561741,22.8438,0.278471,
2,0,0,1,0,48453.6,0.271272,0.270934,-1.18327,25,0.0162545,10,-0.000320589,-2.92691,-0.164427,-0.358821,16.588,0.270934,
2,0,0,1,0,48453.8,0.263778,0.263443,-1.2952,25,0.0160975,10,-0.00034121,-2.88766,-0.220923,-0.267062,13.4451,0.263443,
2,0,0,1,0,48453.9,0.25629,0.255924,-1.3859,25,0.0159283,10,-0.000354685,-2.85827,-0.260716,-0.2263,12.1949,0.2559244,
2,0,0,1,0,48454,0.248797,0.248447,-1.45917,25,0.0157484,10,-0.000362525,-2.8359,-0.332,-0.177711,10.1527,0.248447,
2,0,0,1,0,48454.1,0.241308,0.240973,-1.5313,25,0.0155593,10,-0.000369001,-2.81494,-0.409425,-0.144105,8.63244,0.240973,
2,0,0,1,0,48454.3,0.233814,0.233498,-1.6022,25,0.0153614,10,-0.000374111,-2.79528,-0.476543,-0.123808,7.73594,0.233498,
2,0,0,1,0,48454.4,0.226326,0.226044,-1.66347,25,0.0151557,10,-0.000376017,-2.77899,-0.422832,-0.139535,9.06118,0.226044,
2,0,0,1,0,48454.5,0.218834,0.218528,-1.72432,25,0.014942,10,-0.000376812,-2.76338,-0.406413,-0.145173,9.7833,0.218528,
2,0,0,1,0,48454.6,0.211344,0.210996,-1.78028,25,0.0147209,10,-0.00037563,-2.74951,-0.565341,-0.104362,7.26369,0.210996,
2,0,0,1,0,48454.7,0.203856,0.203472,-1.85119,25,0.0144921,10,-0.000376667,-2.73255,-0.819881,-0.0719617,5.18793,0.203472,
2,0,0,1,0,48454.9,0.196362,0.196028,-1.90903,25,0.0142556,10,-0.000374224,-2.71919,-0.47473,-0.124281,9.25596,0.196028,
2,0,0,1,0,48455,0.18887,0.188537,-1.9739,25,0.0140109,10,-0.000372155,-2.70467,-0.435512,-0.135473,10.4594,0.188537,
2,0,0,1,0,48455.1,0.18138,0.181079,-2.05292,25,0.0137577,10,-0.00037174,-2.68763,-0.442298,-0.133394,10.6855,0.181079,
2,0,0,1,0,48455.2,0.173892,0.173605,-2.14248,25,0.0134943,10,-0.000371945,-2.66908,-0.405255,-0.145587,12.1418,0.173605,
2,0,0,1,0,48455.4,0.166398,0.166069,-2.24627,25,0.0132186,10,-0.000373035,-2.64854,-0.337528,-0.1748,15.3287,0.166069,
2,0,0,1,0,48455.5,0.158905,0.158569,-2.38873,25,0.0129272,10,-0.000378779,-2.62183,-0.232471,-0.253795,23.7078,0.1585691,
2,0,0,1,0,48455.6,0.151417,0.151061,-2.60676,25,0.0126141,10,-0.000393779,-2.5839,-0.174849,-0.337434,34.4021,0.151061,
2,0,0,1,0,48455.7,0.143927,0.143604,-2.95378,25,0.012267,10,-0.000424174,-2.52962,-0.115839,-0.509326,58.7259,0.143604,
2,0,0,1,0,48455.9,0.136435,0.136089,-3.49092,25,0.0118648,10,-0.000475076,-2.45706,-0.0958795,-0.615356,83.7037,0.136089,
2,0,0,1,0,48456,0.128941,0.128597,-4.15644,25,0.0113861,10,-0.000534505,-2.38128,-0.101759,-0.579801,93.9726,0.128597,
2,0,0,1,0,48456.1,0.121453,0.121144,-4.81046,25,0.0108233,10,-0.000582759,-2.31781,-0.143019,-0.412532,77.3977,0.121144,
2,0,0,1,0,48456.2,0.113963,0.113664,-5.34693,25,0.0101859,10,-0.000607753,-2.2719,-0.205644,-0.286903,59.8003,0.113664,
2,0,0,1,0,48456.4,0.106471,0.106145,-5.72346,25,0.00949049,10,-0.000607518,-2.24234,-0.341186,-0.172926,38.57,0.106145,
2,0,0,1,0,48456.5,0.0989825,0.0986504,-5.88432,25,0.00876133,10,-0.000580491,-2.2303,-1.68558,-0.0350027,8.03412,0.0986504,
2,0,0,1,0,48456.6,0.0914889,0.0911455,-5.83809,25,0.00802507,10,-0.000532116,-2.23373,0.826387,0.0713951,-16.2616,0.0911455,
2,0,0,1,0,48456.7,0.0839993,0.0836565,-5.67802,25,0.00730384,10,-0.000475004,-2.2458,0.492367,0.119829,-26.5294,0.0836565,
2,0,0,1,0,48456.9,0.076507,0.0761812,-5.51193,25,0.00660386,10,-0.000419905,-2.2587,0.672211,0.0877701,-18.8608,0.0761812,
2,0,0,1,0,48457,0.0690187,0.0687343,-5.36526,25,0.00592321,10,-0.000368777,-2.27041,0.828439,0.0712183,-14.9381,0.0687343,
2,0,0,1,0,48457.1,0.0615251,0.0611936,-5.25142,25,0.00525731,10,-0.000321354,-2.27972,0.716451,0.0823504,-16.8931,0.0611936,
2,0,0,1,0,48457.2,0.0540355,0.0537168,-5.1306,25,0.00460715,10,-0.0002756,-2.28983,0.657404,0.089747,-17.9523,0.0537168,
2,0,0,1,0,48457.4,0.0465432,0.0461877,-4.99002,25,0.00397303,10,-0.000230478,-2.3019,0.636857,0.0926425,-18.0231,0.0461877,
2,0,0,1,0,48457.5,0.0390549,0.0387442,-4.83422,25,0.00335791,10,-0.000187298,-2.31567,0.509205,0.115867,-21.8589,0.0387442,
2,0,0,1,0,48457.6,0.0315613,0.0311943,-4.65798,25,0.00276261,10,-0.000145302,-2.3318,0.40805,0.14459,-26.3035,0.0311943,
2,0,0,1,0,48457.7,0.0240717,0.0237415,-4.46993,25,0.00219072,10,-0.000106123,-2.3497,0.360581,0.163625,-28.5438,0.0237415,
2,0,0,1,0,48457.9,0.0165781,0.0162889,-4.29537,25,0.00164167,10,-6.9967e-05,-2.367,0.484526,0.121768,-20.4116,0.0162889,
2,0,0,1,0,48458,0.00909108,0.00876325,-4.14245,25,0.00111329,10,-3.63013e-05,-2.38274,0.668199,0.088297,-14.303,0.00876325,
2,0,0,1,0,48458.1,0.00159616,0.00122049,-4.06524,25,0.000599821,10,-4.96159e-06,-2.39091, , , ,0.00122049,
2,0,0,1,0,48458.1,0.000199195,-0.000176442,-4.04972,25,0.000504892,10,7.14543e-07,-2.39257, , , ,-0.000176442,

File: 20221101_1-115_003_TrumpetPlot_ParaChange_from10_every3_07_CV_C01_25.csv
mode,ox/red,error,control changes,counter inc.,time/s,control/V,Ewe/V,<I>/mA,cycle number,(Q-Qo)/C,I Range,P/W,log(|I|),Tafel slope mV/dec,alpha_eff,dI/d(E-IR),E-IR/V,
2,0,0,0,0,50418.3,2.44065e-05,-0.000325324,-2.71094,26,0.0000000E+000,10,8.81933e-07,-2.56688, , , ,-0.000325324,
2,1,0,1,0,50418.4,0.007288,0.00697407,0.924659,26,-3.6017e-05,10,6.44864e-06,-3.03402,0.00905659,6.51459,202.611,0.006974068,
2,1,0,1,0,50418.5,0.0147816,0.0144606,1.83888,26,0.000148021,10,2.65914e-05,-2.73545,0.0552538,1.0678,75.9405,0.01446064,
2,1,0,1,0,50418.6,0.0222712,0.0218859,2.26756,26,0.000408461,10,4.96276e-05,-2.64444,0.121685,0.484857,42.698,0.0218859,
2,1,0,1,0,50418.8,0.0297648,0.0294321,2.56123,26,0.000712074,10,7.53823e-05,-2.59155,0.167451,0.352342,35.0635,0.0294321,
2,1,0,1,0,50418.9,0.0372518,0.0368964,2.80632,26,0.00104887,10,0.000103543,-2.55186,0.192269,0.306862,33.7028,0.0368964,
2,1,0,1,0,50419,0.0447467,0.0444504,3.05038,26,0.00141706,10,0.000135591,-2.51565,0.222408,0.265278,31.6023,0.0444504,
2,1,0,1,0,50419.1,0.052235,0.0519177,3.28939,26,0.00181463,10,0.000170777,-2.48288,0.252759,0.233424,29.9468,0.0519177,
2,1,0,1,0,50419.3,0.0597299,0.0594047,3.51195,26,0.00224121,10,0.000208626,-2.45445,0.279061,0.211423,28.948,0.0594047,
2,1,0,1,0,50419.4,0.0672156,0.0668766,3.71978,26,0.00269426,10,0.000248767,-2.42948,0.297161,0.198546,28.7959,0.0668766,
2,1,0,1,0,50419.5,0.0747105,0.0743724,3.89931,26,0.00317238,10,0.000290001,-2.40901,0.415073,0.142144,21.648,0.0743724,
2,1,0,1,0,50419.6,0.0821988,0.0819018,4.0603,26,0.00367156,10,0.000332546,-2.39144,0.519799,0.113506,17.9794,0.0819018,
2,1,0,1,0,50419.8,0.0896937,0.0893783,4.21069,26,0.00418974,10,0.000376344,-2.37565,0.494344,0.11935,19.5877,0.0893783,
2,1,0,1,0,50419.9,0.0971794,0.0968329,4.37811,26,0.00472662,10,0.000423945,-2.35871,0.322394,0.183006,31.2931,0.0968329,
2,1,0,1,0,50420,0.104674,0.104361,4.63261,26,0.00529034,10,0.000483465,-2.33417,0.267211,0.2208,39.9526,0.104361,
2,1,0,1,0,50420.1,0.112163,0.111764,4.98371,26,0.00589157,10,0.000556999,-2.30245,0.240184,0.245645,47.7344,0.111764,
2,1,0,1,0,50420.3,0.119657,0.119315,5.34611,26,0.00653864,10,0.000637872,-2.27196,0.292941,0.201406,41.9366,0.119315,
2,1,0,1,0,50420.4,0.127143,0.126794,5.60816,26,0.00722508,10,0.000711079,-2.25118,0.429581,0.137343,30.0644,0.1267937,
2,1,0,1,0,50420.5,0.134638,0.1343,5.77495,26,0.00793959,10,0.000775576,-2.23845,0.832526,0.0708686,16.0009,0.1343001,
2,1,0,1,0,50420.6,0.142126,0.141741,5.84386,26,0.00866874,10,0.000828315,-2.2333,-2.90131,-0.0203357,-4.63177,0.141741,
2,1,0,1,0,50420.8,0.149621,0.149251,5.62627,26,0.00939139,10,0.000839725,-2.24978,-0.215651,-0.27359,-59.8065,0.149251,
2,1,0,1,0,50420.9,0.157107,0.156782,4.95606,26,0.0100573,10,0.00077702,-2.30486,-0.103666,-0.569133,-109.738,0.156782,
2,1,0,1,0,50421,0.164602,0.164236,4.12393,26,0.0106253,10,0.000677297,-2.38469,-0.0940417,-0.627381,-101.19,0.164236,
2,1,0,1,0,50421.1,0.17209,0.171773,3.5014,26,0.0111007,10,0.000601444,-2.45576,-0.122914,-0.48001,-65.8579,0.171773,
2,1,0,1,0,50421.3,0.179585,0.179281,3.12088,26,0.0115143,10,0.000559515,-2.50572,-0.174855,-0.337422,-41.0848,0.179281,
2,1,0,1,0,50421.4,0.187072,0.186737,2.88439,26,0.0118893,10,0.000538621,-2.53995,-0.290369,-0.203189,-22.8235,0.186737,
2,1,0,1,0,50421.5,0.194566,0.194209,2.72298,26,0.0122407,10,0.000528826,-2.56496,-0.405599,-0.145464,-15.4999,0.194209,
2,1,0,1,0,50421.6,0.202055,0.201672,2.62742,26,0.0125762,10,0.000529878,-2.58047,-0.515388,-0.114477,-11.7346,0.201672,
2,1,0,1,0,50421.8,0.209549,0.209212,2.56071,26,0.0129018,10,0.00053573,-2.59164,-0.558298,-0.105678,-10.5534,0.209212,
2,1,0,1,0,50421.9,0.217036,0.216725,2.5049,26,0.0132195,10,0.000542875,-2.60121,-0.982121,-0.0600741,-5.88085,0.216725,
2,1,0,1,0,50422,0.224529,0.224185,2.46294,26,0.013532,10,0.000552153,-2.60855,-1.32218,-0.0446232,-4.30484,0.224185,
2,1,0,1,0,50422.1,0.232019,0.231699,2.4348,26,0.0138399,10,0.00056414,-2.61354,-1.62057,-0.036407,-3.46472,0.231699,
2,1,0,1,0,50422.3,0.239513,0.239182,2.4151,26,0.0141447,10,0.000577649,-2.61707,-1.2999,-0.045388,-4.2709,0.239182,
2,1,0,1,0,50422.4,0.247001,0.246658,2.39648,26,0.0144464,10,0.000591111,-2.62043,-2.03903,-0.0289354,-2.69854,0.246658,
2,1,0,1,0,50422.5,0.254493,0.254178,2.37267,26,0.0147458,10,0.000603082,-2.62476,-2.95493,-0.0199666,-1.85039,0.254178,
2,1,0,1,0,50422.6,0.261983,0.261662,2.35101,26,0.0150427,10,0.000615171,-2.62874,-2.16742,-0.0272213,-2.50499,0.261662,
2,1,0,1,0,50422.8,0.269477,0.269111,2.33762,26,0.0153375,10,0.000629078,-2.63123,-1.47308,-0.0400522,-3.64979,0.269111,
2,1,0,1,0,50422.9,0.276965,0.276648,2.32487,26,0.01563,10,0.000643171,-2.6336,-1.91677,-0.0307809,-2.78408,0.276648,
2,1,0,1,0,50423,0.284457,0.284146,2.30219,26,0.0159205,10,0.000654158,-2.63786,-3.19389,-0.0184728,-1.65844,0.284146,
2,1,0,1,0,50423.1,0.291947,0.291661,2.27949,26,0.0162083,10,0.000664837,-2.64216,-1.25086,-0.0471675,-4.20364,0.291661,
2,1,0,1,0,50423.3,0.29944,0.299165,2.26291,26,0.0164941,10,0.000676985,-2.64533,-0.00852734,-6.91892,-488.879,0.299165,
2,0,0,1,0,50423.4,0.293742,0.293429,-0.320369,26,0.0165621,10,-9.40055e-05,-3.49435,-0.00199467,-29.5788,126.895,0.293429,
2,0,0,1,0,50423.5,0.286254,0.285922,-0.828981,26,0.0164825,10,-0.000237024,-3.08146,-0.0483449,-1.2204,38.8043,0.2859219,
2,0,0,1,0,50423.6,0.278761,0.278381,-1.03761,26,0.0163624,10,-0.000288851,-2.98397,-0.103994,-0.567341,23.0534,0.278381,
2,0,0,1,0,50423.8,0.271272,0.270917,-1.1859,26,0.0162207,10,-0.000321281,-2.92595,-0.162465,-0.363154,16.8218,0.270917,
2,0,0,1,0,50423.9,0.263778,0.263401,-1.29821,26,0.0160632,10,-0.000341948,-2.88666,-0.235501,-0.25053,12.649,0.263401,
2,0,0,1,0,50424,0.25629,0.255903,-1.39411,26,0.0158934,10,-0.000356756,-2.8557,-0.286702,-0.205789,11.1156,0.255903,
2,0,0,1,0,50424.1,0.248797,0.248465,-1.46478,26,0.0157129,10,-0.000363947,-2.83423,-0.322247,-0.183089,10.4951,0.248465,
2,0,0,1,0,50424.3,0.241308,0.24098,-1.53602,26,0.0155231,10,-0.00037015,-2.8136,-0.384164,-0.15358,9.24543,0.24098,
2,0,0,1,0,50424.4,0.233814,0.233427,-1.60566,26,0.0153245,10,-0.000374803,-2.79435,-0.441275,-0.133703,8.38253,0.233427,
2,0,0,1,0,50424.5,0.226326,0.225982,-1.67161,26,0.0151182,10,-0.000377754,-2.77686,-0.412323,-0.143092,9.314,0.225982,
2,0,0,1,0,50424.6,0.218834,0.218453,-1.73457,26,0.0149037,10,-0.000378921,-2.76081,-0.372103,-0.158558,10.7003,0.218453,
2,0,0,1,0,50424.8,0.211344,0.210975,-1.78523,26,0.014682,10,-0.000376638,-2.74831,-0.550901,-0.107097,7.47971,0.210975,
2,0,0,1,0,50424.9,0.203856,0.203458,-1.84995,26,0.0144525,10,-0.000376386,-2.73284,-0.714217,-0.0826079,5.97814,0.203458,
2,0,0,1,0,50425,0.196362,0.196043,-1.91675,26,0.0142155,10,-0.000375767,-2.71743,-0.498423,-0.118373,8.83063,0.196043,
2,0,0,1,0,50425.1,0.18887,0.188501,-1.9803,26,0.0139703,10,-0.000373288,-2.70327,-0.454387,-0.129845,10.0258,0.1885006,
2,0,0,1,0,50425.3,0.18138,0.181022,-2.0515,26,0.0137166,10,-0.000371365,-2.68793,-0.429332,-0.137423,11.0292,0.181022,
2,0,0,1,0,50425.4,0.173892,0.173518,-2.1427,26,0.0134529,10,-0.000371796,-2.66904,-0.385687,-0.152974,12.78,0.173518,
2,0,0,1,0,50425.5,0.166398,0.166061,-2.24894,26,0.013177,10,-0.000373461,-2.64802,-0.379844,-0.155327,13.6209,0.166061,
2,0,0,1,0,50425.6,0.158905,0.158559,-2.39022,26,0.0128857,10,-0.000378992,-2.62156,-0.233473,-0.252706,23.5816,0.158559,
2,0,0,1,0,50425.8,0.151417,0.151047,-2.59203,26,0.0125732,10,-0.00039152,-2.58636,-0.165275,-0.356981,36.2864,0.151047,
2,0,0,1,0,50425.9,0.143927,0.143572,-2.93503,26,0.0122273,10,-0.000421388,-2.53239,-0.116436,-0.506716,58.2114,0.143572,
2,0,0,1,0,50426,0.136435,0.136116,-3.45722,26,0.0118274,10,-0.000470585,-2.46127,-0.0985561,-0.598644,80.9261,0.136116,
2,0,0,1,0,50426.1,0.128941,0.128583,-4.13959,26,0.0113517,10,-0.000532281,-2.38304,-0.104092,-0.566804,91.2242,0.128583,
2,0,0,1,0,50426.3,0.121453,0.121152,-4.77933,26,0.0107927,10,-0.000579022,-2.32063,-0.138205,-0.426901,79.4772,0.121152,
2,0,0,1,0,50426.4,0.113963,0.113611,-5.30815,26,0.0101593,10,-0.000603063,-2.27506,-0.199324,-0.296,61.3029,0.113611,
2,0,0,1,0,50426.5,0.106471,0.106131,-5.68756,26,0.00946804,10,-0.000603629,-2.24507,-0.362641,-0.162695,36.113,0.106131,
2,0,0,1,0,50426.6,0.0989825,0.0986143,-5.85652,26,0.00874288,10,-0.000577537,-2.23236,-1.62909,-0.0362165,8.26148,0.0986143,
2,0,0,1,0,50426.8,0.0914889,0.0911274,-5.81506,26,0.00801036,10,-0.000529912,-2.23545,1.09836,0.0537167,-12.1665,0.0911274,
2,0,0,1,0,50426.9,0.0839993,0.083638,-5.64323,26,0.00729281,10,-0.000471988,-2.24847,0.500639,0.117849,-25.9577,0.083638,
2,0,0,1,0,50427,0.076507,0.076145,-5.47872,26,0.00659661,10,-0.000417177,-2.26132,0.553575,0.10658,-22.7896,0.076145,
2,0,0,1,0,50427.1,0.0690187,0.0686911,-5.34641,26,0.00591938,10,-0.000367251,-2.27194,0.680517,0.0866987,-18.0945,0.0686911,
2,0,0,1,0,50427.3,0.0615251,0.0611815,-5.23476,26,0.00525625,10,-0.00032027,-2.2811,0.889827,0.066305,-13.5539,0.0611815,
2,0,0,1,0,50427.4,0.0540355,0.0536711,-5.11621,26,0.0046081,10,-0.000274593,-2.29105,0.748006,0.0788764,-15.7472,0.0536711,
2,0,0,1,0,50427.5,0.0465432,0.0462344,-4.9741,26,0.00397541,10,-0.000229975,-2.30329,0.581356,0.101487,-19.7287,0.0462344,
2,0,0,1,0,50427.6,0.0390549,0.0386799,-4.83464,26,0.00336094,10,-0.000187003,-2.31564,0.491436,0.120056,-22.6139,0.0386799,
2,0,0,1,0,50427.8,0.0315613,0.0311943,-4.66803,26,0.00276571,10,-0.000145616,-2.33087,0.481547,0.122522,-22.2799,0.0311943,
2,0,0,1,0,50427.9,0.0240717,0.023725,-4.47874,26,0.00219318,10,-0.000106258,-2.34884,0.417703,0.141249,-24.6995,0.023725,
2,0,0,1,0,50428,0.0165781,0.0162422,-4.30134,26,0.00164284,10,-6.98633e-05,-2.3664,0.477903,0.123456,-20.7547,0.0162422,
2,0,0,1,0,50428.1,0.00909108,0.00872985,-4.15948,26,0.00111269,10,-3.63116e-05,-2.38096,0.529741,0.111375,-18.0972,0.00872985,
2,0,0,1,0,50428.3,0.00159616,0.00120837,-4.09,26,0.000597182,10,-4.94222e-06,-2.38828, , , ,0.00120837,
2,0,0,1,0,50428.3,0.000199195,-0.000185986,-4.06356,26,0.000501866,10,7.55765e-07,-2.39109, , , ,-0.000185986,