Folder: Figs_alphaMnO2_OER_Tafel_sleope/Figure_codes/Fig_3-5/rawdata_trumpetplot_data/after 10th (part 84)

File: 20221101_1-115_003_TrumpetPlot_ParaChange_from10_every3_06_CV_C01_29.csv
mode,ox/red,error,control changes,counter inc.,time/s,control/V,Ewe/V,<I>/mA,cycle number,(Q-Qo)/C,I Range,P/W,log(|I|),Tafel slope mV/dec,alpha_eff,dI/d(E-IR),E-IR/V,
2,0,0,0,0,58283.8,2.44065e-05,-0.000382585,-1.41153,30,0.0000000E+000,10,5.4003e-07,-2.85031, , , ,-0.000382585,
2,1,0,1,0,58284,0.00729063,0.00693297,0.970586,30,4.3292e-05,10,6.72904e-06,-3.01297,0.0191108,3.08727,109.526,0.00693297,
2,1,0,1,0,58284.2,0.014778,0.0143774,1.4289,30,0.000277813,10,2.05438e-05,-2.845,0.0828686,0.71197,39.5426,0.0143774,
2,1,0,1,0,58284.4,0.0222743,0.0219208,1.65516,30,0.000571394,10,3.62824e-05,-2.78116,0.147348,0.400411,25.8525,0.0219208,
2,1,0,1,0,58284.5,0.0297626,0.0294374,1.83332,30,0.000900951,10,5.39683e-05,-2.73676,0.193371,0.305113,21.7666,0.0294374,
2,1,0,1,0,58284.7,0.0372544,0.036916,1.99476,30,0.00126218,10,7.36386e-05,-2.70011,0.22447,0.262842,20.4903,0.03691604,
2,1,0,1,0,58284.9,0.0447472,0.0444036,2.15425,30,0.00165371,10,9.56566e-05,-2.6667,0.243441,0.242358,20.378,0.0444036,
2,1,0,1,0,58285.1,0.0522345,0.0519025,2.31053,30,0.00207468,10,0.000119922,-2.63629,0.25776,0.228895,20.6401,0.0519025,
2,1,0,1,0,58285.3,0.0597308,0.0593957,2.45445,30,0.00252454,10,0.000145783,-2.61005,0.297059,0.198614,19.0691,0.0593957,
2,1,0,1,0,58285.5,0.0672182,0.0668903,2.59531,30,0.00300005,10,0.000173601,-2.58581,0.348059,0.169512,17.1172,0.0668903,
2,1,0,1,0,58285.7,0.0747074,0.0743581,2.70594,30,0.00349911,10,0.000201208,-2.56768,0.427282,0.138082,14.5913,0.0743581,
2,1,0,1,0,58285.9,0.0822019,0.0818534,2.80175,30,0.00401893,10,0.000229332,-2.55257,0.609991,0.0967227,10.5987,0.08185342,
2,1,0,1,0,58286,0.0896911,0.0893333,2.90334,30,0.00455569,10,0.000259365,-2.5371,0.47009,0.125508,14.2113,0.0893333,
2,1,0,1,0,58286.2,0.097182,0.0968189,3.02388,30,0.00511288,10,0.000292768,-2.51944,0.319754,0.184517,21.8208,0.0968189,
2,1,0,1,0,58286.4,0.104675,0.104294,3.2361,30,0.00570026,10,0.000337506,-2.48998,0.230258,0.256234,32.3074,0.104294,
2,1,0,1,0,58286.6,0.112162,0.111842,3.493,30,0.00633158,10,0.000390666,-2.4568,0.238327,0.247559,33.6478,0.111842,
2,1,0,1,0,58286.8,0.119655,0.11933,3.72252,30,0.00701064,10,0.000444207,-2.42916,0.348911,0.169097,24.5569,0.11933,
2,1,0,1,0,58287,0.127146,0.126795,3.87047,30,0.00772617,10,0.000490758,-2.41224,0.631893,0.0933703,14.1078,0.126795,
2,1,0,1,0,58287.2,0.134635,0.134268,3.94906,30,0.00846192,10,0.000530231,-2.40351,1.6109,0.0366254,5.64414,0.1342677,
2,1,0,1,0,58287.4,0.14213,0.141768,3.92309,30,0.00920541,10,0.000556171,-2.40637,-0.554811,-0.106342,-16.2597,0.1417685,
2,1,0,1,0,58287.5,0.149619,0.149288,3.63146,30,0.00992065,10,0.000542134,-2.43992,-0.137697,-0.428476,-60.4779,0.149288,
2,1,0,1,0,58287.7,0.157106,0.156776,3.08635,30,0.0105534,10,0.000483865,-2.51055,-0.0945557,-0.623971,-75.0941,0.156776,
2,1,0,1,0,58287.9,0.164602,0.164259,2.58553,30,0.0110848,10,0.000424697,-2.58745,-0.105062,-0.561574,-56.8031,0.164259,
2,1,0,1,0,58288.1,0.172091,0.171745,2.25497,30,0.011538,10,0.000387279,-2.64686,-0.142448,-0.414187,-36.4282,0.171745,
2,1,0,1,0,58288.3,0.179582,0.179185,2.0429,30,0.0119414,10,0.000366056,-2.68975,-0.2247,-0.262573,-20.9823,0.179185,
2,1,0,1,0,58288.5,0.187074,0.186696,1.91898,30,0.0123143,10,0.000358266,-2.71693,-0.356537,-0.165481,-12.3971,0.1866958,
2,1,0,1,0,58288.7,0.194563,0.194208,1.84445,30,0.0126681,10,0.000358208,-2.73413,-0.507383,-0.116283,-8.34408,0.194208,
2,1,0,1,0,58288.9,0.202059,0.201697,1.78649,30,0.0130103,10,0.00036033,-2.748,-0.822606,-0.0717233,-5.00296,0.201697,
2,1,0,1,0,58289,0.209546,0.209183,1.75272,30,0.0133445,10,0.00036664,-2.75629,-0.763412,-0.0772846,-5.29574,0.209183,
2,1,0,1,0,58289.2,0.217035,0.216673,1.72731,30,0.0136726,10,0.00037426,-2.76263,-1.15332,-0.0511564,-3.44551,0.2166726,
2,1,0,1,0,58289.4,0.22453,0.224193,1.70006,30,0.0139969,10,0.000381142,-2.76953,-1.20439,-0.0489876,-3.26456,0.224193,
2,1,0,1,0,58289.6,0.232019,0.23168,1.69029,30,0.0143173,10,0.000391605,-2.77204,-2.50898,-0.0235155,-1.55051,0.23168,
2,1,0,1,0,58289.8,0.23951,0.23914,1.67569,30,0.014635,10,0.000400724,-2.77581,-2.37216,-0.0248718,-1.62675,0.23914,
2,1,0,1,0,58290,0.247003,0.246685,1.66304,30,0.0149504,10,0.000410248,-2.7791,-1.1579,-0.0509543,-3.31156,0.246685,
2,1,0,1,0,58290.2,0.25449,0.254127,1.6523,30,0.0152635,10,0.000419895,-2.78191,-2.16424,-0.0272613,-1.75699,0.254127,
2,1,0,1,0,58290.3,0.261983,0.261638,1.64298,30,0.0155747,10,0.000429865,-2.78437,-2.07676,-0.0284097,-1.82155,0.261638,
2,1,0,1,0,58290.5,0.269474,0.269083,1.62961,30,0.015884,10,0.0004385,-2.78792,-3.78775,-0.0155765,-0.993756,0.269083,
2,1,0,1,0,58290.7,0.276963,0.276622,1.62067,30,0.016191,10,0.000448314,-2.7903,-4.01207,-0.0147056,-0.928577,0.276622,
2,1,0,1,0,58290.9,0.284458,0.284101,1.608,30,0.0164961,10,0.000456835,-2.79371,-2.87642,-0.0205116,-1.28787,0.284101,
2,1,0,1,0,58291.1,0.291947,0.29162,1.59468,30,0.0167986,10,0.000465042,-2.79733,-1.33511,-0.044191,-2.75128,0.29162,
2,1,0,1,0,58291.3,0.299434,0.299116,1.58281,30,0.0170985,10,0.000473444,-2.80057,-0.0204793,-2.88096,-157.099,0.299116,
2,0,0,1,0,58291.4,0.294196,0.293816,-0.225153,30,0.0171597,10,-6.61537e-05,-3.64752,-0.00291936,-20.2099,85.3038,0.293816,
2,0,0,1,0,58291.6,0.286701,0.286358,-0.542352,30,0.017079,10,-0.000155307,-3.26572,-0.0480158,-1.22876,25.6731,0.286358,
2,0,0,1,0,58291.8,0.279212,0.278887,-0.685902,30,0.0169596,10,-0.000191289,-3.16374,-0.105315,-0.560226,15.0137,0.278887,
2,0,0,1,0,58292,0.271725,0.271355,-0.78115,30,0.0168183,10,-0.000211969,-3.10727,-0.145958,-0.404227,12.4002,0.271355,
2,0,0,1,0,58292.2,0.264228,0.263915,-0.863365,30,0.0166608,10,-0.000227855,-3.06381,-0.232876,-0.253353,8.483,0.263915,
2,0,0,1,0,58292.4,0.256741,0.256361,-0.922709,30,0.0164905,10,-0.000236547,-3.03494,-0.275136,-0.214439,7.72733,0.256361,
2,0,0,1,0,58292.6,0.249248,0.248885,-0.982886,30,0.0163089,10,-0.000244625,-3.0075,-0.334468,-0.176399,6.75883,0.248885,
2,0,0,1,0,58292.8,0.241756,0.241413,-1.03282,30,0.0161174,10,-0.000249337,-2.98597,-0.35997,-0.163903,6.59011,0.241413,
2,0,0,1,0,58292.9,0.234268,0.233894,-1.07465,30,0.0159168,10,-0.000251353,-2.96873,-0.396268,-0.148889,6.28453,0.233894,
2,0,0,1,0,58293.1,0.226772,0.226428,-1.12369,30,0.0157072,10,-0.000254435,-2.94935,-0.35522,-0.166094,7.29264,0.226428,
2,0,0,1,0,58293.3,0.219284,0.218924,-1.17308,30,0.0154897,10,-0.000256815,-2.93067,-0.400178,-0.147434,6.70567,0.218924,
2,0,0,1,0,58293.5,0.211796,0.21144,-1.20933,30,0.0152639,10,-0.000255701,-2.91746,-0.529085,-0.111513,5.27762,0.21144,
2,0,0,1,0,58293.7,0.204301,0.203911,-1.259,30,0.0150296,10,-0.000256724,-2.89997,-0.863843,-0.0682994,3.34652,0.203911,
2,0,0,1,0,58293.9,0.196812,0.196434,-1.29679,30,0.0147877,10,-0.000254734,-2.88713,-0.458298,-0.128737,6.5247,0.196434,
2,0,0,1,0,58294.1,0.189321,0.18892,-1.34561,30,0.014537,10,-0.000254213,-2.87108,-0.479665,-0.123003,6.46652,0.18892,
2,0,0,1,0,58294.3,0.181828,0.181458,-1.39914,30,0.0142771,10,-0.000253884,-2.85414,-0.428433,-0.137711,7.50015,0.181458,
2,0,0,1,0,58294.4,0.174341,0.173957,-1.45686,30,0.014007,10,-0.00025343,-2.83658,-0.375746,-0.157021,8.92943,0.173957,
2,0,0,1,0,58294.6,0.166848,0.166455,-1.53033,30,0.0137244,10,-0.000254732,-2.81521,-0.351956,-0.167635,9.99998,0.166455,
2,0,0,1,0,58294.8,0.159357,0.159005,-1.62982,30,0.0134262,10,-0.000259149,-2.78786,-0.25237,-0.233784,14.8231,0.159005,
2,0,0,1,0,58295,0.151868,0.151492,-1.76442,30,0.0131063,10,-0.000267295,-2.7534,-0.179033,-0.329549,22.7966,0.151492,
2,0,0,1,0,58295.2,0.144373,0.143997,-1.99471,30,0.0127525,10,-0.000287232,-2.70012,-0.115366,-0.511417,39.9378,0.143997,
2,0,0,1,0,58295.4,0.136884,0.136494,-2.36263,30,0.012344,10,-0.000322484,-2.6266,-0.0953084,-0.619043,56.9937,0.136494,
2,0,0,1,0,58295.6,0.129393,0.129036,-2.82313,30,0.0118561,10,-0.000364286,-2.54927,-0.102073,-0.578019,63.7356,0.129036,
2,0,0,1,0,58295.8,0.1219,0.121549,-3.28228,30,0.0112801,10,-0.000398957,-2.48382,-0.140431,-0.420134,53.685,0.121549,
2,0,0,1,0,58295.9,0.114413,0.114023,-3.65725,30,0.0106262,10,-0.000417012,-2.43685,-0.207337,-0.284561,40.4969,0.114023,
2,0,0,1,0,58296.1,0.10692,0.106548,-3.8946,30,0.00991349,10,-0.000414962,-2.40954,-0.425186,-0.138763,21.0975,0.106548,
2,0,0,1,0,58296.3,0.0994284,0.0990874,-3.97245,30,0.00917045,10,-0.00039362,-2.40094,18.1098,0.00325791,-0.504411,0.0990874,
2,0,0,1,0,58296.5,0.0919401,0.0915944,-3.91332,30,0.0084277,10,-0.000358438,-2.40746,0.700722,0.0841988,-12.8516,0.0915944,
2,0,0,1,0,58296.7,0.0844447,0.0840853,-3.79697,30,0.00770178,10,-0.000319269,-2.42056,0.67486,0.0874256,-12.9802,0.0840853,
2,0,0,1,0,58296.9,0.0769565,0.0765783,-3.70438,30,0.00699715,10,-0.000283675,-2.43128,0.74558,0.079133,-11.4251,0.0765783,
2,0,0,1,0,58297.1,0.0694682,0.0691246,-3.6219,30,0.0063086,10,-0.000250363,-2.44106,0.85772,0.068787,-9.72331,0.0691246,
2,0,0,1,0,58297.2,0.0619728,0.0615612,-3.54394,30,0.00563362,10,-0.000218169,-2.45051,0.688621,0.0856785,-11.8627,0.0615612,
2,0,0,1,0,58297.4,0.0544836,0.0541305,-3.45978,30,0.004975,10,-0.000187279,-2.46095,0.834566,0.0706955,-9.53074,0.0541305,
2,0,0,1,0,58297.6,0.0469927,0.0466422,-3.35979,30,0.00433305,10,-0.000156708,-2.47369,0.657794,0.0896938,-11.7648,0.0466422,
2,0,0,1,0,58297.8,0.0394999,0.0391478,-3.25809,30,0.00370987,10,-0.000127547,-2.48704,0.508708,0.11598,-14.7413,0.0391478,
2,0,0,1,0,58298,0.0320125,0.0316035,-3.14329,30,0.00310782,10,-9.9339e-05,-2.50262,0.456489,0.129247,-15.8316,0.0316035,
2,0,0,1,0,58298.2,0.0245198,0.0241105,-3.01555,30,0.00252788,10,-7.27064e-05,-2.52063,0.430656,0.137,-16.1682,0.0241105,
2,0,0,1,0,58298.4,0.0170289,0.0166378,-2.90838,30,0.00196988,10,-4.83893e-05,-2.53635,0.502366,0.117444,-13.3536,0.0166378,
2,0,0,1,0,58298.6,0.0095397,0.00919226,-2.82424,30,0.0014307,10,-2.59611e-05,-2.5491,0.814961,0.0723961,-7.97116,0.00919226,
2,0,0,1,0,58298.7,0.00204518,0.00165925,-2.79129,30,0.000904387,10,-4.63143e-06,-2.5542,2.69111,0.021924,-2.37128,0.00165925,
2,0,0,1,0,58298.8,0.000177222,-0.000234086,-2.76674,30,0.000773933,10,6.47655e-07,-2.55803, , , ,-0.000234086,

File: 20221101_1-115_003_TrumpetPlot_ParaChange_from10_every3_06_CV_C01_30.csv
mode,ox/red,error,control changes,counter inc.,time/s,control/V,Ewe/V,<I>/mA,cycle number,(Q-Qo)/C,I Range,P/W,log(|I|),Tafel slope mV/dec,alpha_eff,dI/d(E-IR),E-IR/V,
2,0,0,0,0,60253.9,2.44065e-05,-0.000439847,-1.4128,31,0.0000000E+000,10,6.21416e-07,-2.84992, , , ,-0.000439847,
2,1,0,1,0,60254.1,0.00729063,0.00696279,0.925657,31,3.5245e-05,10,6.44516e-06,-3.03355,0.018034,3.27159,110.501,0.00696279,
2,1,0,1,0,60254.3,0.014778,0.0144339,1.40109,31,0.000263582,10,2.02232e-05,-2.85353,0.0784768,0.751815,41.0645,0.0144339,
2,1,0,1,0,60254.5,0.0222743,0.0219279,1.64142,31,0.000553221,10,3.59929e-05,-2.78478,0.142914,0.412836,26.3405,0.0219279,
2,1,0,1,0,60254.7,0.0297626,0.0294235,1.81554,31,0.000879609,10,5.34195e-05,-2.74099,0.189232,0.311787,22.0861,0.0294235,
2,1,0,1,0,60254.9,0.0372544,0.0368539,1.9779,31,0.0012378,10,7.28935e-05,-2.7038,0.222707,0.264922,20.4432,0.0368539,
2,1,0,1,0,60255,0.0447472,0.0444063,2.1398,31,0.00162615,10,9.50207e-05,-2.66963,0.233704,0.252456,21.0329,0.0444063,
2,1,0,1,0,60255.2,0.0522345,0.051907,2.28978,31,0.00204371,10,0.000118856,-2.64021,0.262718,0.224575,20.0966,0.051907,
2,1,0,1,0,60255.4,0.0597308,0.0593834,2.43857,31,0.00248997,10,0.000144811,-2.61286,0.291614,0.202322,19.2281,0.0593834,
2,1,0,1,0,60255.6,0.0672182,0.0668847,2.57375,31,0.00296165,10,0.000172144,-2.58943,0.337399,0.174867,17.5299,0.0668847,
2,1,0,1,0,60255.8,0.0747074,0.0743811,2.68221,31,0.00345682,10,0.000199506,-2.57151,0.459976,0.128268,13.4615,0.0743811,
2,1,0,1,0,60256,0.0822019,0.0818631,2.78438,31,0.00397244,10,0.000227938,-2.55527,0.558999,0.105546,11.4701,0.0818631,
2,1,0,1,0,60256.2,0.0896911,0.0893474,2.87546,31,0.00450478,10,0.000256915,-2.54129,0.473625,0.124571,13.9823,0.0893474,
2,1,0,1,0,60256.4,0.097182,0.0968403,2.99829,31,0.00505721,10,0.000290355,-2.52313,0.306992,0.192187,22.5324,0.0968403,
2,1,0,1,0,60256.5,0.104675,0.104309,3.20232,31,0.00563899,10,0.000334032,-2.49454,0.224949,0.262282,32.7215,0.104309,
2,1,0,1,0,60256.7,0.112162,0.111817,3.45123,31,0.00626361,10,0.000385907,-2.46203,0.238377,0.247507,33.2877,0.111817,
2,1,0,1,0,60256.9,0.119655,0.11933,3.68178,31,0.006935,10,0.000439347,-2.43394,0.333898,0.176701,25.3625,0.11933,
2,1,0,1,0,60257.1,0.127146,0.126797,3.83086,31,0.00764261,10,0.000485743,-2.4167,0.564856,0.104451,15.6052,0.126797,
2,1,0,1,0,60257.3,0.134635,0.134348,3.9106,31,0.00837121,10,0.000525382,-2.40776,1.53669,0.0383943,5.86685,0.134348,
2,1,0,1,0,60257.5,0.142129,0.141806,3.89414,31,0.0091083,10,0.000552214,-2.40959,-0.623849,-0.0945742,-14.3455,0.141806,
2,1,0,1,0,60257.7,0.149619,0.149277,3.61789,31,0.00981918,10,0.00054007,-2.44154,-0.140353,-0.420369,-59.1389,0.149277,
2,1,0,1,0,60257.9,0.157106,0.156719,3.07708,31,0.0104504,10,0.000482237,-2.51186,-0.0946695,-0.623221,-74.9565,0.156719,
2,1,0,1,0,60258,0.164602,0.164269,2.58272,31,0.0109809,10,0.000424259,-2.58792,-0.104187,-0.566292,-57.076,0.164269,
2,1,0,1,0,60258.2,0.172091,0.171748,2.24282,31,0.0114326,10,0.000385199,-2.64921,-0.146752,-0.402038,-35.2632,0.171748,
2,1,0,1,0,60258.4,0.179582,0.179239,2.03673,31,0.0118344,10,0.000365061,-2.69107,-0.219362,-0.268962,-21.4392,0.179239,
2,1,0,1,0,60258.6,0.187074,0.186738,1.91511,31,0.0122059,10,0.000357625,-2.71781,-0.359297,-0.16421,-12.2414,0.186738,
2,1,0,1,0,60258.8,0.194563,0.194218,1.83515,31,0.0125586,10,0.00035642,-2.73633,-0.566315,-0.104182,-7.46575,0.194218,
2,1,0,1,0,60259,0.202059,0.201716,1.78264,31,0.0128997,10,0.000359586,-2.74894,-0.739577,-0.0797754,-5.54861,0.201716,
2,1,0,1,0,60259.2,0.209546,0.209193,1.75088,31,0.0132325,10,0.000366272,-2.75674,-0.778927,-0.0757452,-5.16055,0.209193,
2,1,0,1,0,60259.4,0.217035,0.216673,1.71505,31,0.0135593,10,0.000371605,-2.76572,-0.920065,-0.0641259,-4.31349,0.216673,
2,1,0,1,0,60259.5,0.22453,0.224196,1.69819,31,0.0138822,10,0.000380729,-2.77001,-1.49509,-0.0394626,-2.61621,0.224196,
2,1,0,1,0,60259.7,0.232019,0.231655,1.6857,31,0.0142012,10,0.0003905,-2.77322,-3.46083,-0.0170479,-1.11937,0.231655,
2,1,0,1,0,60259.9,0.23951,0.239183,1.66805,31,0.0145178,10,0.000398969,-2.77779,-3.06037,-0.0192787,-1.25861,0.239183,
2,1,0,1,0,60260.1,0.247003,0.246643,1.6622,31,0.0148321,10,0.000409971,-2.77932,-2.44923,-0.0240892,-1.55606,0.246643,
2,1,0,1,0,60260.3,0.25449,0.254168,1.64697,31,0.0151441,10,0.000418607,-2.78331,-2.1071,-0.0280005,-1.80316,0.254168,
2,1,0,1,0,60260.5,0.261983,0.261641,1.6357,31,0.0154544,10,0.000427967,-2.7863,-2.15294,-0.0274044,-1.75471,0.261641,
2,1,0,1,0,60260.7,0.269474,0.269111,1.62548,31,0.0157627,10,0.000437435,-2.78902,-3.17783,-0.0185661,-1.17855,0.269111,
2,1,0,1,0,60260.9,0.276963,0.276583,1.61496,31,0.016069,10,0.000446672,-2.79184,-1.63564,-0.0360715,-2.27708,0.2765834,
2,1,0,1,0,60261,0.284458,0.284108,1.60376,31,0.0163733,10,0.000455642,-2.79486,-8.11909,-0.00726682,-0.45499,0.284108,
2,1,0,1,0,60261.2,0.291947,0.29163,1.59342,31,0.016675,10,0.00046469,-2.79767,-1.56663,-0.0376604,-2.34004,0.29163,
2,1,0,1,0,60261.4,0.299434,0.299154,1.57711,31,0.0169744,10,0.000471799,-2.80214,-0.021197,-2.78341,-152.865,0.299154,
2,0,0,1,0,60261.6,0.294196,0.293842,-0.202161,31,0.0170399,10,-5.94036e-05,-3.6943,-0.00310089,-19.0268,87.3248,0.293842,
2,0,0,1,0,60261.8,0.286701,0.286321,-0.528472,31,0.0169623,10,-0.000151313,-3.27698,-0.0482383,-1.2231,25.1748,0.286321,
2,0,0,1,0,60261.9,0.279212,0.278853,-0.674879,31,0.0168448,10,-0.000188192,-3.17077,-0.106888,-0.551981,14.6051,0.278853,
2,0,0,1,0,60262.1,0.271725,0.271392,-0.777067,31,0.0167052,10,-0.00021089,-3.10954,-0.143602,-0.410857,12.4047,0.271392,
2,0,0,1,0,60262.3,0.264228,0.263914,-0.853289,31,0.0165493,10,-0.000225195,-3.0689,-0.216532,-0.272477,9.07491,0.263914,
2,0,0,1,0,60262.5,0.256741,0.256337,-0.91872,31,0.0163806,10,-0.000235502,-3.03682,-0.281332,-0.209716,7.49,0.256337,
2,0,0,1,0,60262.7,0.249248,0.248877,-0.974275,31,0.0162007,10,-0.000242475,-3.01132,-0.349532,-0.168797,6.39418,0.248877,
2,0,0,1,0,60262.9,0.241756,0.241409,-1.02013,31,0.0160106,10,-0.00024627,-2.99134,-0.366648,-0.160917,6.45176,0.241409,
2,0,0,1,0,60263.1,0.234268,0.233943,-1.07043,31,0.0158117,10,-0.000250419,-2.97044,-0.367712,-0.160452,6.71042,0.233943,
2,0,0,1,0,60263.3,0.226772,0.226405,-1.11623,31,0.0156038,10,-0.000252721,-2.95225,-0.378895,-0.155716,6.77084,0.226405,
2,0,0,1,0,60263.4,0.219284,0.218941,-1.1605,31,0.0153878,10,-0.000254081,-2.93535,-0.458002,-0.12882,5.83416,0.218941,
2,0,0,1,0,60263.6,0.211796,0.211461,-1.207,31,0.0151638,10,-0.000255234,-2.91829,-0.529278,-0.111473,5.21549,0.211461,
2,0,0,1,0,60263.8,0.204301,0.203929,-1.24552,31,0.0149312,10,-0.000253998,-2.90465,-0.860435,-0.06857,3.34238,0.203929,
2,0,0,1,0,60264,0.196812,0.196436,-1.28738,31,0.014691,10,-0.000252888,-2.89029,-0.483726,-0.12197,6.13731,0.196436,
2,0,0,1,0,60264.2,0.189321,0.18893,-1.33943,31,0.0144419,10,-0.00025306,-2.87308,-0.527081,-0.111937,5.84255,0.18893,
2,0,0,1,0,60264.4,0.181828,0.181488,-1.3884,31,0.0141839,10,-0.000251978,-2.85749,-0.41371,-0.142612,7.73799,0.181488,
2,0,0,1,0,60264.6,0.174341,0.173996,-1.44529,31,0.0139159,10,-0.000251475,-2.84004,-0.368435,-0.160137,9.04519,0.1739959,
2,0,0,1,0,60264.8,0.166848,0.166467,-1.52399,31,0.0136356,10,-0.000253695,-2.81702,-0.328027,-0.179863,10.6379,0.166467,
2,0,0,1,0,60264.9,0.159357,0.159044,-1.60956,31,0.0133401,10,-0.000255991,-2.79329,-0.271176,-0.217571,13.6997,0.159044,
2,0,0,1,0,60265.1,0.151868,0.151494,-1.74463,31,0.0130237,10,-0.000264301,-2.7583,-0.179221,-0.329202,22.4312,0.151494,
2,0,0,1,0,60265.3,0.144373,0.144022,-1.96205,31,0.0126749,10,-0.000282579,-2.70729,-0.119713,-0.492844,37.8825,0.144022,
2,0,0,1,0,60265.5,0.136884,0.136523,-2.3084,31,0.0122739,10,-0.000315148,-2.63669,-0.097518,-0.605017,54.631,0.136523,
2,0,0,1,0,60265.7,0.129393,0.129044,-2.76739,31,0.0117962,10,-0.000357115,-2.55793,-0.102785,-0.574012,61.8791,0.129044,
2,0,0,1,0,60265.9,0.1219,0.121522,-3.21372,31,0.0112321,10,-0.000390537,-2.49299,-0.136773,-0.431372,54.0507,0.1215218,
2,0,0,1,0,60266.1,0.114413,0.114079,-3.58923,31,0.0105905,10,-0.000409456,-2.445,-0.196384,-0.300432,42.0507,0.114079,
2,0,0,1,0,60266.3,0.10692,0.106551,-3.84094,31,0.00988932,10,-0.000409256,-2.41556,-0.393632,-0.149886,22.4416,0.106551,
2,0,0,1,0,60266.4,0.0994284,0.0990548,-3.93353,31,0.00915516,10,-0.000389635,-2.40522,-4.41545,-0.0133622,2.05114,0.0990548,
2,0,0,1,0,60266.6,0.0919401,0.0915523,-3.89153,31,0.00841801,10,-0.000356279,-2.40988,0.866123,0.0681196,-10.3329,0.0915523,
2,0,0,1,0,60266.8,0.0844447,0.0841315,-3.78678,31,0.00769566,10,-0.000318587,-2.42173,0.63322,0.0931745,-13.7542,0.0841315,
2,0,0,1,0,60267,0.0769565,0.0766409,-3.68767,31,0.00699378,10,-0.000282626,-2.43325,0.672548,0.0877261,-12.6298,0.0766409,
2,0,0,1,0,60267.2,0.0694682,0.0691193,-3.61087,31,0.00630771,10,-0.000249581,-2.44239,0.820098,0.0719427,-10.1361,0.0691193,
2,0,0,1,0,60267.4,0.0619728,0.0616023,-3.53294,31,0.00563489,10,-0.000217637,-2.45186,0.667345,0.08841,-12.1992,0.0616023,
2,0,0,1,0,60267.6,0.0544836,0.054132,-3.45001,31,0.00497822,10,-0.000186756,-2.46218,0.751704,0.0784883,-10.5633,0.054132,
2,0,0,1,0,60267.8,0.0469927,0.046669,-3.35485,31,0.00433789,10,-0.000156568,-2.47433,0.630513,0.0935746,-12.2379,0.046669,
2,0,0,1,0,60267.9,0.0394999,0.0391092,-3.25161,31,0.00371621,10,-0.000127168,-2.4879,0.531528,0.111001,-14.0814,0.0391092,
2,0,0,1,0,60268.1,0.0320125,0.0316899,-3.1368,31,0.00311522,10,-9.94048e-05,-2.50351,0.431558,0.136714,-16.7234,0.0316899,
2,0,0,1,0,60268.3,0.0245198,0.0242007,-3.01488,31,0.00253625,10,-7.29622e-05,-2.52073,0.445149,0.13254,-15.5935,0.0242007,
2,0,0,1,0,60268.5,0.0170289,0.0166552,-2.90322,31,0.00197911,10,-4.83538e-05,-2.53712,0.512771,0.115061,-13.0697,0.0166552,
2,0,0,1,0,60268.7,0.0095397,0.00918749,-2.81729,31,0.00144087,10,-2.58839e-05,-2.55017,0.653153,0.090331,-9.92608,0.00918749,
2,0,0,1,0,60268.9,0.00204518,0.00161579,-2.78444,31,0.000915992,10,-4.49907e-06,-2.55526,1.54919,0.0380845,-4.1042,0.00161579,
2,0,0,1,0,60268.9,0.000177222,-0.000200492,-2.75329,31,0.000785965,10,5.52014e-07,-2.56015, , , ,-0.000200492,