Folder: Figs_alphaMnO2_OER_Tafel_sleope/Figure_codes/Fig_3-5/rawdata_trumpetplot_data/after 10th (part 62)

File: 20221101_1-115_003_TrumpetPlot_ParaChange_from10_every3_05_CV_C01_19.csv
mode,ox/red,error,control changes,counter inc.,time/s,control/V,Ewe/V,<I>/mA,cycle number,(Q-Qo)/C,I Range,P/W,log(|I|),Tafel slope mV/dec,alpha_eff,dI/d(E-IR),E-IR/V,
2,0,0,1,0,38552.5,2.44065e-05,-0.000344411,-0.746238,20,0.0000000E+000,10,2.57013e-07,-3.12712, , , ,-0.000344411,
2,1,0,1,0,38552.9,0.00729063,0.00699027,0.68201,20,0.000141267,10,4.76744e-06,-3.16621,0.0472111,1.24971,32.4688,0.00699027,
2,1,0,1,0,38553.2,0.0147802,0.014516,0.834029,20,0.000434821,10,1.21068e-05,-3.07882,0.127115,0.464146,15.0809,0.014516,
2,1,0,1,0,38553.6,0.0222725,0.0219848,0.938725,20,0.000773076,10,2.06377e-05,-3.02746,0.169,0.349112,12.7207,0.0219848,
2,1,0,1,0,38554,0.0297644,0.0294205,1.0319,20,0.00114722,10,3.03589e-05,-2.98636,0.197607,0.298572,11.9785,0.0294205,
2,1,0,1,0,38554.4,0.0372544,0.036912,1.12083,20,0.00155648,10,4.1372e-05,-2.95046,0.217718,0.270993,11.8773,0.036912,
2,1,0,1,0,38554.7,0.0447449,0.0444135,1.21588,20,0.00200114,10,5.40013e-05,-2.91511,0.232607,0.253647,12.0445,0.0444135,
2,1,0,1,0,38555.1,0.0522363,0.0519424,1.30538,20,0.00248001,10,6.78044e-05,-2.88426,0.245024,0.240793,12.256,0.0519424,
2,1,0,1,0,38555.5,0.0597291,0.0594365,1.38602,20,0.00299057,10,8.238e-05,-2.85823,0.28808,0.204805,11.0808,0.05943647,
2,1,0,1,0,38555.9,0.0672182,0.0669142,1.458,20,0.00352959,10,9.75607e-05,-2.83624,0.370712,0.159153,9.04209,0.0669142,
2,1,0,1,0,38556.2,0.0747092,0.0743668,1.51846,20,0.0040935,10,0.000112923,-2.8186,0.514483,0.114678,6.79168,0.0743668,
2,1,0,1,0,38556.6,0.0822001,0.0818752,1.56765,20,0.00467806,10,0.000128352,-2.80475,0.556011,0.106113,6.49988,0.0818752,
2,1,0,1,0,38557,0.0896911,0.0893585,1.62562,20,0.00528207,10,0.000145263,-2.78898,0.386472,0.152663,9.71117,0.0893585,
2,1,0,1,0,38557.4,0.097182,0.0968596,1.71778,20,0.0059139,10,0.000166384,-2.76503,0.22792,0.258862,17.3745,0.0968596,
2,1,0,1,0,38557.7,0.104673,0.104351,1.86577,20,0.00658973,10,0.000194694,-2.72914,0.194155,0.303881,22.096,0.104351,
2,1,0,1,0,38558.1,0.112164,0.111786,2.02382,20,0.00732425,10,0.000226234,-2.69383,0.248523,0.237403,18.689,0.111786,
2,1,0,1,0,38558.5,0.119655,0.119308,2.14097,20,0.00811093,10,0.000255434,-2.66939,0.453174,0.130193,10.8606,0.119308,
2,1,0,1,0,38558.9,0.127146,0.126817,2.20103,20,0.00893149,10,0.00027913,-2.65737,0.799822,0.0737664,6.33909,0.126817,
2,1,0,1,0,38559.2,0.134637,0.134307,2.23995,20,0.00977211,10,0.000300841,-2.64976,-8.06326,-0.00731714,-0.639429,0.134307,
2,1,0,1,0,38559.6,0.142128,0.141797,2.15026,20,0.0106075,10,0.0003049,-2.66751,-0.190715,-0.309363,-25.8135,0.141797,
2,1,0,1,0,38560,0.149619,0.149282,1.82589,20,0.0113645,10,0.000272573,-2.73852,-0.0771387,-0.764856,-54.367,0.149282,
2,1,0,1,0,38560.3,0.157108,0.156801,1.4512,20,0.0119813,10,0.00022755,-2.83827,-0.0798853,-0.738559,-41.9833,0.156801,
2,1,0,1,0,38560.7,0.164601,0.164249,1.22421,20,0.012484,10,0.000201075,-2.91214,-0.130515,-0.452054,-21.6401,0.164249,
2,1,0,1,0,38561.1,0.172092,0.171759,1.107,20,0.0129247,10,0.000190138,-2.95585,-0.239774,-0.246065,-10.6797,0.171759,
2,1,0,1,0,38561.5,0.179582,0.179218,1.04698,20,0.0133334,10,0.000187638,-2.98006,-0.458819,-0.128591,-5.27478,0.179218,
2,1,0,1,0,38561.8,0.187073,0.186776,1.01376,20,0.0137249,10,0.000189346,-2.99407,-0.785379,-0.0751229,-2.96523,0.186776,
2,1,0,1,0,38562.2,0.194564,0.194212,0.991142,20,0.0141057,10,0.000192492,-3.00386,-0.780271,-0.0756148,-2.91685,0.194212,
2,1,0,1,0,38562.6,0.202057,0.201762,0.972887,20,0.014479,10,0.000196292,-3.01194,-0.792735,-0.0744259,-2.82082,0.201762,
2,1,0,1,0,38563,0.209546,0.20925,0.959417,20,0.0148468,10,0.000200758,-3.01799,-0.755881,-0.0780546,-2.93013,0.20925,
2,1,0,1,0,38563.3,0.217037,0.216726,0.946774,20,0.0152101,10,0.000205191,-3.02375,-1.87603,-0.0314493,-1.1648,0.216726,
2,1,0,1,0,38563.7,0.224528,0.224207,0.941527,20,0.0155701,10,0.000211097,-3.02617,-2.98214,-0.0197844,-0.727127,0.224207,
2,1,0,1,0,38564.1,0.232019,0.231693,0.933418,20,0.0159269,10,0.000216266,-3.02992,-4.20906,-0.0140174,-0.511033,0.231693,
2,1,0,1,0,38564.5,0.23951,0.239172,0.927812,20,0.0162814,10,0.000221907,-3.03254,-1.91281,-0.0308447,-1.11506,0.2391721,
2,1,0,1,0,38564.8,0.247001,0.246669,0.921201,20,0.0166333,10,0.000227232,-3.03565,-2.84139,-0.0207645,-0.745103,0.246669,
2,1,0,1,0,38565.2,0.254492,0.254171,0.913188,20,0.016983,10,0.000232106,-3.03944,-2.40192,-0.0245637,-0.875975,0.254171,
2,1,0,1,0,38565.6,0.261983,0.261662,0.907305,20,0.01733,10,0.000237407,-3.04225,-2.30295,-0.0256193,-0.907009,0.261662,
2,1,0,1,0,38566,0.269474,0.269182,0.901161,20,0.0176747,10,0.000242577,-3.0452,-11.4189,-0.00516687,-0.181686,0.269182,
2,1,0,1,0,38566.3,0.276965,0.276704,0.894212,20,0.0180169,10,0.000247432,-3.04856,-2.83088,-0.0208416,-0.726636,0.276704,
2,1,0,1,0,38566.7,0.284456,0.284136,0.885535,20,0.0183562,10,0.000251612,-3.05279,-5.49369,-0.0107396,-0.371209,0.284136,
2,1,0,1,0,38567.1,0.291947,0.291643,0.877159,20,0.0186926,10,0.000255817,-3.05692,-1.80766,-0.0326389,-1.11931,0.291643,
2,1,0,1,0,38567.5,0.299436,0.299157,0.867101,20,0.0190257,10,0.0002594,-3.06193,-0.00359412,-16.4157,-331.479,0.299157,
2,0,0,1,0,38567.8,0.293745,0.293382,-0.182315,20,0.0190479,10,-5.34881e-05,-3.73918,-0.0169073,-3.48961,23.2312,0.293382,
2,0,0,1,0,38568.2,0.286254,0.285959,-0.28894,20,0.0189504,10,-8.26252e-05,-3.53919,-0.0651488,-0.905619,10.263,0.285959,
2,0,0,1,0,38568.6,0.278763,0.27843,-0.356895,20,0.0188222,10,-9.93702e-05,-3.44746,-0.127924,-0.46121,6.4183,0.2784301,
2,0,0,1,0,38568.9,0.271272,0.270968,-0.406439,20,0.0186731,10,-0.000110132,-3.391,-0.136432,-0.432451,6.83252,0.270968,
2,0,0,1,0,38569.3,0.263781,0.263434,-0.444333,20,0.0185073,10,-0.000117052,-3.35229,-0.196498,-0.300257,5.22004,0.263434,
2,0,0,1,0,38569.7,0.25629,0.255961,-0.480769,20,0.0183272,10,-0.000123058,-3.31806,-0.322738,-0.182811,3.4198,0.255961,
2,0,0,1,0,38570.1,0.248799,0.248463,-0.51519,20,0.0181346,10,-0.000128006,-3.28803,-0.326405,-0.180757,3.61913,0.248463,
2,0,0,1,0,38570.4,0.241308,0.240988,-0.540897,20,0.0179308,10,-0.00013035,-3.26689,-0.309434,-0.190671,4.03579,0.240988,
2,0,0,1,0,38570.8,0.233817,0.233533,-0.566815,20,0.0177162,10,-0.00013237,-3.24656,-0.330262,-0.178646,3.97531,0.233533,
2,0,0,1,0,38571.2,0.226326,0.226033,-0.596707,20,0.0174916,10,-0.000134875,-3.22424,-0.34476,-0.171133,3.98854,0.226033,
2,0,0,1,0,38571.6,0.218835,0.218519,-0.623003,20,0.0172572,10,-0.000136138,-3.20551,-0.389958,-0.151298,3.67286,0.218519,
2,0,0,1,0,38571.9,0.211344,0.211014,-0.647769,20,0.0170135,10,-0.000136688,-3.18858,-0.426098,-0.138466,3.48795,0.211014,
2,0,0,1,0,38572.3,0.203855,0.203534,-0.671587,20,0.01676,10,-0.000136691,-3.1729,-0.499526,-0.118112,3.10215,0.203534,
2,0,0,1,0,38572.7,0.196362,0.196066,-0.700574,20,0.0164968,10,-0.000137359,-3.15455,-0.476809,-0.123739,3.38209,0.196066,
2,0,0,1,0,38573.1,0.188871,0.188514,-0.72916,20,0.0162226,10,-0.000137457,-3.13718,-0.333179,-0.177082,5.05404,0.188514,
2,0,0,1,0,38573.4,0.18138,0.181068,-0.763793,20,0.0159368,10,-0.000138298,-3.11702,-0.343505,-0.171759,5.13038,0.181068,
2,0,0,1,0,38573.8,0.173891,0.173554,-0.803641,20,0.0156374,10,-0.000139475,-3.09494,-0.269072,-0.219272,6.86709,0.173554,
2,0,0,1,0,38574.2,0.166398,0.166084,-0.854822,20,0.015321,10,-0.000141973,-3.06812,-0.275596,-0.214082,7.14708,0.166084,
2,0,0,1,0,38574.5,0.158906,0.158589,-0.92305,20,0.0149822,10,-0.000146385,-3.03477,-0.176743,-0.333819,12.0804,0.158589,
2,0,0,1,0,38574.9,0.151417,0.151131,-1.03551,20,0.01461,10,-0.000156498,-2.98484,-0.123856,-0.47636,19.348,0.151131,
2,0,0,1,0,38575.3,0.143926,0.143626,-1.2256,20,0.0141823,10,-0.000176028,-2.91165,-0.0837522,-0.704459,33.7997,0.143626,
2,0,0,1,0,38575.7,0.136435,0.136104,-1.51639,20,0.0136644,10,-0.000206387,-2.81919,-0.0820993,-0.718642,42.4615,0.136104,
2,0,0,1,0,38576,0.128942,0.128657,-1.83299,20,0.0130305,10,-0.000235828,-2.73684,-0.107912,-0.546742,38.9241,0.128657,
2,0,0,1,0,38576.4,0.121453,0.121145,-2.08595,20,0.0122881,10,-0.000252702,-2.6807,-0.176277,-0.334701,27.1625,0.121145,
2,0,0,1,0,38576.8,0.113962,0.113628,-2.2302,20,0.0114689,10,-0.000253413,-2.65166,-0.528114,-0.111718,9.71263,0.113628,
2,0,0,1,0,38577.2,0.106471,0.106154,-2.25924,20,0.0106177,10,-0.000239828,-2.64604,1.5148,0.038949,-3.42963,0.106154,
2,0,0,1,0,38577.5,0.0989799,0.0986531,-2.20419,20,0.00977407,10,-0.00021745,-2.65675,0.545691,0.10812,-9.28636,0.09865313,
2,0,0,1,0,38577.9,0.0914889,0.0911706,-2.12458,20,0.00895775,10,-0.000193699,-2.67273,0.520846,0.113277,-9.38747,0.0911706,
2,0,0,1,0,38578.3,0.083998,0.0836969,-2.05297,20,0.00816973,10,-0.000171827,-2.68762,0.509188,0.115871,-9.27871,0.0836969,
2,0,0,1,0,38578.7,0.076507,0.0761597,-1.99768,20,0.00740479,10,-0.000152142,-2.69948,0.561258,0.105121,-8.19133,0.0761597,
2,0,0,1,0,38579,0.069016,0.068672,-1.94052,20,0.00666094,10,-0.00013326,-2.71208,0.604012,0.0976801,-7.40374,0.068672,
2,0,0,1,0,38579.4,0.0615251,0.0612198,-1.88648,20,0.00593742,10,-0.00011549,-2.72435,0.578807,0.101934,-7.51173,0.0612198,
2,0,0,1,0,38579.8,0.0540341,0.0537189,-1.83042,20,0.00523536,10,-9.83283e-05,-2.73745,0.56874,0.103738,-7.39843,0.0537189,
2,0,0,1,0,38580.2,0.0465432,0.0462243,-1.76721,20,0.00455501,10,-8.1688e-05,-2.75271,0.537142,0.109841,-7.58069,0.0462243,
2,0,0,1,0,38580.5,0.0390523,0.0387157,-1.70263,20,0.0038987,10,-6.59186e-05,-2.76888,0.42195,0.139827,-9.28216,0.0387157,
2,0,0,1,0,38580.9,0.0315626,0.0312271,-1.63326,20,0.00326769,10,-5.10021e-05,-2.78694,0.411105,0.143516,-9.14888,0.0312271,
2,0,0,1,0,38581.3,0.0240704,0.023746,-1.56805,20,0.00266156,10,-3.72349e-05,-2.80464,0.461485,0.127848,-7.83173,0.023746,
2,0,0,1,0,38581.7,0.0165785,0.0162593,-1.51826,20,0.0020775,10,-2.46858e-05,-2.81866,0.653256,0.0903168,-5.35303,0.0162593,
2,0,0,1,0,38582,0.00908846,0.00877713,-1.48028,20,0.00151058,10,-1.29926e-05,-2.82966,0.843223,0.0699696,-4.04256,0.00877713,
2,0,0,1,0,38582.4,0.0015984,0.00125347,-1.48044,20,0.000953111,10,-1.85569e-06,-2.82961, , , ,0.00125347,
2,0,0,1,0,38582.5,0.000199195,-0.000164621,-1.46605,20,0.000848803,10,2.41342e-07,-2.83385, , , ,-0.000164621,

File: 20221101_1-115_003_TrumpetPlot_ParaChange_from10_every3_05_CV_C01_20.csv
mode,ox/red,error,control changes,counter inc.,time/s,control/V,Ewe/V,<I>/mA,cycle number,(Q-Qo)/C,I Range,P/W,log(|I|),Tafel slope mV/dec,alpha_eff,dI/d(E-IR),E-IR/V,
2,0,0,1,0,40522.6,2.44065e-05,-0.000306236,-0.737334,21,0.0000000E+000,10,2.25798e-07,-3.13234, , , ,-0.000306236,
2,1,0,1,0,40523,0.00729063,0.00698529,0.655071,21,0.000124911,10,4.57586e-06,-3.18371,0.0402609,1.46544,36.5237,0.00698529,
2,1,0,1,0,40523.4,0.0147802,0.0144542,0.818176,21,0.000410468,10,1.18261e-05,-3.08715,0.109715,0.537756,17.1019,0.0144542,
2,1,0,1,0,40523.7,0.0222725,0.0219653,0.922145,21,0.000742896,10,2.02551e-05,-3.0352,0.159708,0.369424,13.2946,0.0219653,
2,1,0,1,0,40524.1,0.0297644,0.0294401,1.01783,21,0.00111152,10,2.9965e-05,-2.99232,0.199745,0.295377,11.7141,0.02944007,
2,1,0,1,0,40524.5,0.0372544,0.0369046,1.10953,21,0.00151504,10,4.09467e-05,-2.95486,0.208543,0.282916,12.2408,0.0369046,
2,1,0,1,0,40524.9,0.0447449,0.0444465,1.20062,21,0.00195356,10,5.33634e-05,-2.92059,0.231795,0.254536,11.9373,0.0444465,
2,1,0,1,0,40525.2,0.0522363,0.0519252,1.28916,21,0.00242613,10,6.69396e-05,-2.88969,0.235452,0.250582,12.6186,0.0519252,
2,1,0,1,0,40525.6,0.0597291,0.0594331,1.37127,21,0.00293064,10,8.14985e-05,-2.86288,0.29902,0.197311,10.5574,0.0594331,
2,1,0,1,0,40526,0.0672182,0.0669022,1.44357,21,0.00346367,10,9.6578e-05,-2.84056,0.357743,0.164923,9.27515,0.0669022,
2,1,0,1,0,40526.4,0.0747092,0.0743599,1.50474,21,0.00402162,10,0.000111893,-2.82254,0.491209,0.120112,7.04888,0.0743599,
2,1,0,1,0,40526.7,0.0822001,0.081877,1.5519,21,0.00460039,10,0.000127065,-2.80914,0.592006,0.0996612,6.05054,0.081877,
2,1,0,1,0,40527.1,0.0896911,0.0893352,1.61188,21,0.00519805,10,0.000143997,-2.79267,0.406137,0.145271,9.14695,0.0893352,
2,1,0,1,0,40527.5,0.097182,0.09683,1.69764,21,0.00582255,10,0.000164383,-2.77015,0.238029,0.247869,16.4443,0.09683,
2,1,0,1,0,40527.9,0.104673,0.10434,1.83799,21,0.00648875,10,0.000191775,-2.73566,0.199628,0.29555,21.176,0.10434,
2,1,0,1,0,40528.2,0.112164,0.111839,1.9924,21,0.0072116,10,0.000222827,-2.70062,0.237788,0.248121,19.2526,0.111839,
2,1,0,1,0,40528.6,0.119655,0.1193,2.10791,21,0.00798639,10,0.000251474,-2.67615,0.42739,0.138047,11.3538,0.1193003,
2,1,0,1,0,40529,0.127146,0.126815,2.17404,21,0.00879589,10,0.000275702,-2.66273,0.703347,0.0838847,7.12258,0.126815,
2,1,0,1,0,40529.4,0.134637,0.134296,2.21588,21,0.00962601,10,0.000297583,-2.65445,49.2253,0.00119857,0.103619,0.134296,
2,1,0,1,0,40529.7,0.142128,0.141835,2.13867,21,0.010454,10,0.000303338,-2.66986,-0.207742,-0.284006,-23.6234,0.141835,
2,1,0,1,0,40530.1,0.149619,0.14929,1.84144,21,0.0112118,10,0.000274908,-2.73484,-0.0833499,-0.70786,-50.7189,0.14929,
2,1,0,1,0,40530.5,0.157108,0.156799,1.47842,21,0.0118361,10,0.000231815,-2.8302,-0.0796123,-0.741091,-42.7715,0.156799,
2,1,0,1,0,40530.9,0.164601,0.164294,1.24177,21,0.0123457,10,0.000204014,-2.90596,-0.125228,-0.471141,-22.8849,0.164294,
2,1,0,1,0,40531.2,0.172092,0.171749,1.11552,21,0.0127905,10,0.00019159,-2.95252,-0.217519,-0.271241,-11.8543,0.171749,
2,1,0,1,0,40531.6,0.179582,0.179242,1.05208,21,0.0132011,10,0.000188576,-2.97795,-0.397582,-0.148397,-6.11937,0.179242,
2,1,0,1,0,40532,0.187073,0.186752,1.01574,21,0.0135934,10,0.000189692,-2.99322,-0.75828,-0.0778077,-3.08209,0.1867516,
2,1,0,1,0,40532.4,0.194564,0.194269,0.992242,21,0.0139745,10,0.000192762,-3.00338,-0.603425,-0.0977753,-3.78539,0.1942692,
2,1,0,1,0,40532.7,0.202057,0.201766,0.972913,21,0.0143478,10,0.0001963,-3.01193,-1.17835,-0.0500699,-1.90089,0.201766,
2,1,0,1,0,40533.1,0.209546,0.209251,0.962024,21,0.0147157,10,0.000201305,-3.01681,-0.835323,-0.0706313,-2.65066,0.209251,
2,1,0,1,0,40533.5,0.217037,0.2167,0.94932,21,0.0150789,10,0.000205718,-3.02259,-1.60557,-0.0367472,-1.36572,0.2167,
2,1,0,1,0,40533.9,0.224528,0.224188,0.941411,21,0.0154388,10,0.000211053,-3.02622,-3.60465,-0.0163678,-0.602021,0.224188,
2,1,0,1,0,40534.2,0.232019,0.23173,0.933895,21,0.0157954,10,0.000216411,-3.0297,-3.82051,-0.015443,-0.56264,0.23173,
2,1,0,1,0,40534.6,0.23951,0.239218,0.929053,21,0.0161495,10,0.000222246,-3.03196,-2.05501,-0.0287103,-1.04026,0.2392184,
2,1,0,1,0,40535,0.247001,0.246652,0.921946,21,0.016501,10,0.0002274,-3.03529,-1.68711,-0.034971,-1.25791,0.246652,
2,1,0,1,0,40535.3,0.254492,0.254143,0.913782,21,0.0168503,10,0.000232231,-3.03916,-1.82128,-0.0323947,-1.15793,0.254143,
2,1,0,1,0,40535.7,0.261983,0.261654,0.909573,21,0.0171973,10,0.000237994,-3.04116,-1.4233,-0.0414529,-1.47129,0.261654,
2,1,0,1,0,40536.1,0.269474,0.269203,0.901309,21,0.0175418,10,0.000242635,-3.04513,-12.4336,-0.00474522,-0.167205,0.269203,
2,1,0,1,0,40536.5,0.276965,0.276605,0.895712,21,0.0178838,10,0.000247759,-3.04783,-2.25004,-0.0262218,-0.916287,0.2766051,
2,1,0,1,0,40536.8,0.284456,0.284148,0.888611,21,0.0182229,10,0.000252497,-3.05129,-1.69727,-0.0347616,-1.20396,0.284148,
2,1,0,1,0,40537.2,0.291947,0.29164,0.878627,21,0.0185591,10,0.000256242,-3.0562,-1.32347,-0.0445798,-1.53026,0.29164,
2,1,0,1,0,40537.6,0.299436,0.299146,0.871068,21,0.0188922,10,0.000260577,-3.05995,-0.00405229,-14.5597,-311.02,0.2991465,
2,0,0,1,0,40537.9,0.293745,0.293399,-0.173833,21,0.0189221,10,-5.10025e-05,-3.75987,-0.0145062,-4.06723,25.0784,0.293399,
2,0,0,1,0,40538.3,0.286254,0.285931,-0.285385,21,0.018828,10,-8.16004e-05,-3.54457,-0.0600266,-0.982898,10.8667,0.285931,
2,0,0,1,0,40538.7,0.278763,0.278412,-0.351772,21,0.0187023,10,-9.79375e-05,-3.45374,-0.104469,-0.564762,7.75344,0.2784119,
2,0,0,1,0,40539.1,0.271272,0.270954,-0.403762,21,0.0185554,10,-0.000109401,-3.39388,-0.145781,-0.404715,6.349,0.270954,
2,0,0,1,0,40539.4,0.263781,0.263478,-0.441792,21,0.0183916,10,-0.000116403,-3.35478,-0.222137,-0.265601,4.58833,0.263478,
2,0,0,1,0,40539.8,0.25629,0.255968,-0.479322,21,0.0182134,10,-0.000122691,-3.31937,-0.278063,-0.212182,3.95201,0.255968,
2,0,0,1,0,40540.2,0.248799,0.248447,-0.509607,21,0.0180226,10,-0.00012661,-3.29276,-0.315883,-0.186778,3.72139,0.248447,
2,0,0,1,0,40540.6,0.241308,0.24098,-0.538745,21,0.0178205,10,-0.000129827,-3.26862,-0.378853,-0.155733,3.28657,0.24098,
2,0,0,1,0,40540.9,0.233817,0.23352,-0.567996,21,0.0176077,10,-0.000132639,-3.24565,-0.407822,-0.144671,3.20208,0.23352,
2,0,0,1,0,40541.3,0.226326,0.225967,-0.593199,21,0.0173847,10,-0.000134044,-3.2268,-0.371686,-0.158736,3.67973,0.225967,
2,0,0,1,0,40541.7,0.218835,0.218498,-0.62178,21,0.0171518,10,-0.000135858,-3.20636,-0.384377,-0.153495,3.71304,0.218498,
2,0,0,1,0,40542.1,0.211344,0.211025,-0.643887,21,0.0169097,10,-0.000135876,-3.19119,-0.54854,-0.107558,2.70966,0.211025,
2,0,0,1,0,40542.4,0.203855,0.203557,-0.669928,21,0.0166578,10,-0.000136369,-3.17397,-0.566502,-0.104148,2.72757,0.203557,
2,0,0,1,0,40542.8,0.196362,0.195996,-0.696646,21,0.0163963,10,-0.00013654,-3.15699,-0.45119,-0.130765,3.56001,0.195996,
2,0,0,1,0,40543.2,0.188871,0.188527,-0.728611,21,0.0161239,10,-0.000137363,-3.1375,-0.321025,-0.183786,5.22076,0.188527,
2,0,0,1,0,40543.6,0.18138,0.181083,-0.760151,21,0.01584,10,-0.000137651,-3.1191,-0.370838,-0.159099,4.72183,0.181083,
2,0,0,1,0,40543.9,0.173891,0.173579,-0.799054,21,0.0155429,10,-0.000138699,-3.09742,-0.321283,-0.183639,5.71976,0.173579,
2,0,0,1,0,40544.3,0.166398,0.166061,-0.847642,21,0.015229,10,-0.00014076,-3.07179,-0.271569,-0.217256,7.21196,0.166061,
2,0,0,1,0,40544.7,0.158906,0.158554,-0.916178,21,0.0148935,10,-0.000145264,-3.03802,-0.207052,-0.284953,10.2177,0.158554,
2,0,0,1,0,40545.1,0.151417,0.15107,-1.02084,21,0.0145261,10,-0.000154218,-2.99104,-0.135622,-0.435034,17.42,0.1510701,
2,0,0,1,0,40545.4,0.143926,0.143601,-1.20363,21,0.0141062,10,-0.000172842,-2.91951,-0.0862863,-0.68377,32.1572,0.143601,
2,0,0,1,0,40545.8,0.136435,0.136084,-1.47612,21,0.013601,10,-0.000200876,-2.83088,-0.0815632,-0.723365,41.6088,0.136084,
2,0,0,1,0,40546.2,0.128942,0.128559,-1.78287,21,0.0129851,10,-0.000229204,-2.74888,-0.106109,-0.556033,38.5406,0.1285588,
2,0,0,1,0,40546.6,0.121453,0.121145,-2.03602,21,0.012262,10,-0.000246652,-2.69122,-0.170459,-0.346125,27.4368,0.1211445,
2,0,0,1,0,40546.9,0.113962,0.113615,-2.19026,21,0.0114604,10,-0.000248845,-2.6595,-0.373498,-0.157966,13.4979,0.113615,
2,0,0,1,0,40547.3,0.106471,0.106161,-2.23373,21,0.010622,10,-0.000237135,-2.65097,3.46569,0.017024,-1.4846,0.106161,
2,0,0,1,0,40547.7,0.0989798,0.0986363,-2.19035,21,0.0097858,10,-0.000216048,-2.65949,0.597414,0.098759,-8.43647,0.0986363,
2,0,0,1,0,40548.1,0.0914889,0.0911211,-2.11922,21,0.00897329,10,-0.000193106,-2.67382,0.565375,0.104356,-8.62365,0.0911211,
2,0,0,1,0,40548.4,0.083998,0.0836613,-2.05413,21,0.00818711,10,-0.000171851,-2.68737,0.497398,0.118617,-9.49716,0.0836613,
2,0,0,1,0,40548.8,0.076507,0.0761823,-1.99771,21,0.00742324,10,-0.00015219,-2.69947,0.579544,0.101804,-7.93539,0.0761823,
2,0,0,1,0,40549.2,0.069016,0.0686541,-1.93879,21,0.00668018,10,-0.000133106,-2.71247,0.536524,0.109967,-8.33398,0.06865412,
2,0,0,1,0,40549.5,0.0615251,0.0611962,-1.88424,21,0.00595758,10,-0.000115308,-2.72486,0.564667,0.104486,-7.70027,0.0611962,
2,0,0,1,0,40549.9,0.0540341,0.0537121,-1.82898,21,0.00525639,10,-9.82382e-05,-2.73779,0.653126,0.0903348,-6.44534,0.0537121,
2,0,0,1,0,40550.3,0.0465432,0.046218,-1.76743,21,0.00457666,10,-8.16872e-05,-2.75266,0.529323,0.111463,-7.69442,0.046218,
2,0,0,1,0,40550.7,0.0390523,0.0387308,-1.70347,21,0.00392058,10,-6.59769e-05,-2.76866,0.381882,0.154498,-10.258,0.0387308,
2,0,0,1,0,40551,0.0315626,0.0312161,-1.63446,21,0.00328954,10,-5.10214e-05,-2.78663,0.406566,0.145118,-9.26742,0.0312161,
2,0,0,1,0,40551.4,0.0240704,0.0237744,-1.56929,21,0.00268333,10,-3.73088e-05,-2.8043,0.397472,0.148438,-9.11916,0.0237744,
2,0,0,1,0,40551.8,0.0165785,0.0162641,-1.51881,21,0.00209913,10,-2.47021e-05,-2.8185,0.643306,0.0917137,-5.44751,0.0162641,
2,0,0,1,0,40552.2,0.00908846,0.00877823,-1.48025,21,0.00153206,10,-1.2994e-05,-2.82967,1.05572,0.0558859,-3.22911,0.00877823,
2,0,0,1,0,40552.5,0.0015984,0.0012458,-1.47961,21,0.000974661,10,-1.8433e-06,-2.82985, , , ,0.0012458,
2,0,0,1,0,40552.6,0.000199195,-0.000166622,-1.47227,21,0.00087048,10,2.45312e-07,-2.83201, , , ,-0.0001666217,