Folder: Figs_alphaMnO2_OER_Tafel_sleope/Figure_codes/Fig_3-5/rawdata_trumpetplot_data/after 10th (part 140)

File: 20221101_1-115_003_TrumpetPlot_ParaChange_from10_every3_10_CV_C01_1.csv
mode,ox/red,error,control changes,counter inc.,time/s,control/V,Ewe/V,<I>/mA,cycle number,(Q-Qo)/C,I Range,P/W,log(|I|),Tafel slope mV/dec,alpha_eff,dI/d(E-IR),E-IR/V,
2,1,0,0,0,3160.65,-2.44065e-05,-0.000306236,5.34504,2,0.0000000E+000,10,-1.63684e-06,-2.27205, , , ,-0.000306236,
2,1,0,1,0,3160.7,0.00977853,0.0094977,8.8229,2,0.000366236,10,8.37973e-05,-2.05439,0.116767,0.505279,173.175,0.009497704,
2,1,0,1,0,3160.75,0.0197755,0.0194335,9.91078,2,0.000838957,10,0.000192601,-2.00389,0.32548,0.181271,70.0968,0.0194335,
2,1,0,1,0,3160.8,0.0297726,0.0294639,10.5322,2,0.00135083,10,0.000310318,-1.97748,0.454746,0.129743,53.2879,0.0294639,
2,1,0,1,0,3160.85,0.0397514,0.0394113,11.1192,2,0.00189067,10,0.000438222,-1.95393,0.378664,0.155811,67.635,0.0394113,
2,1,0,1,0,3160.9,0.0497393,0.0494292,11.8443,2,0.00246289,10,0.000585455,-1.92649,0.33876,0.174165,80.4724,0.0494292,
2,1,0,1,0,3160.95,0.0597364,0.0593763,12.697,2,0.00307595,10,0.000753902,-1.8963,0.322215,0.183108,90.6409,0.05937634,
2,1,0,1,0,3161,0.0697152,0.0693983,13.6194,2,0.00373196,10,0.000945161,-1.86584,0.330441,0.178549,94.9171,0.0693983,
2,1,0,1,0,3161.05,0.0796941,0.0793703,14.5657,2,0.00443544,10,0.00115608,-1.83667,0.353685,0.166815,94.7614,0.0793703,
2,1,0,1,0,3161.1,0.0896911,0.0893903,15.4587,2,0.00518649,10,0.00138186,-1.81083,0.40153,0.146938,88.7509,0.08939027,
2,1,0,1,0,3161.15,0.099679,0.0993813,16.3571,2,0.00598041,10,0.00162559,-1.78629,0.419947,0.140494,89.6064,0.0993813,
2,1,0,1,0,3161.2,0.109658,0.109346,17.3358,2,0.00681988,10,0.0018956,-1.76106,0.355092,0.166154,112.515,0.109346,
2,1,0,1,0,3161.25,0.119655,0.11935,18.663,2,0.00771856,10,0.00222743,-1.72902,0.287117,0.205491,149.684,0.11935,
2,1,0,1,0,3161.3,0.129652,0.129313,20.25,2,0.00869134,10,0.00261859,-1.69357,0.288176,0.204736,161.867,0.129313,
2,1,0,1,0,3161.35,0.139631,0.13933,21.8172,2,0.00974213,10,0.00303979,-1.6612,0.345803,0.170617,145.184,0.13933,
2,1,0,1,0,3161.4,0.149619,0.149302,23.1332,2,0.010865,10,0.00345384,-1.63576,0.461685,0.127793,115.278,0.1493019,
2,1,0,1,0,3161.45,0.159616,0.159284,23.8438,2,0.0120435,10,0.00379793,-1.62262,10.7575,0.00548454,5.09546,0.159284,
2,1,0,1,0,3161.5,0.169595,0.169303,22.7184,2,0.0132162,10,0.00384629,-1.64362,-0.196245,-0.300644,-265.691,0.169303,
2,1,0,1,0,3161.55,0.179573,0.179264,18.6364,2,0.0142576,10,0.00334083,-1.72964,-0.0861651,-0.684732,-497.307,0.179264,
2,1,0,1,0,3161.6,0.18957,0.189227,14.0467,2,0.0150684,10,0.00265802,-1.85243,-0.0882069,-0.668882,-367.69,0.189227,
2,1,0,1,0,3161.65,0.199558,0.199252,11.4205,2,0.0156956,10,0.00227554,-1.94232,-0.154633,-0.381549,-170.231,0.1992517,
2,1,0,1,0,3161.7,0.209537,0.209278,10.1572,2,0.0162301,10,0.00212568,-1.99323,-0.24214,-0.243661,-96.7056,0.209278,
2,1,0,1,0,3161.75,0.219534,0.219227,9.43347,2,0.0167184,10,0.00206807,-2.02533,-0.379734,-0.155372,-57.2138,0.219227,
2,1,0,1,0,3161.8,0.229531,0.229234,8.93875,2,0.0171774,10,0.00204906,-2.04872,-0.485593,-0.121501,-42.4758,0.229234,
2,1,0,1,0,3161.85,0.23951,0.239205,8.60836,2,0.0176151,10,0.00205916,-2.06508,-0.631893,-0.0933703,-31.3519,0.2392046,
2,1,0,1,0,3161.9,0.249498,0.249216,8.33991,2,0.0180375,10,0.00207844,-2.07884,-0.838965,-0.0703247,-22.8878,0.249216,
2,1,0,1,0,3161.95,0.259495,0.25919,8.13339,2,0.018449,10,0.00210809,-2.08973,-0.851323,-0.0693039,-21.9603,0.2591902,
2,1,0,1,0,3162,0.269474,0.269161,7.94086,2,0.0188499,10,0.00213737,-2.10013,-1.20216,-0.0490783,-15.2349,0.2691606,
2,1,0,1,0,3162.05,0.279453,0.279167,7.80663,2,0.0192428,10,0.00217935,-2.10754,-1.23798,-0.0476583,-14.496,0.279167,
2,1,0,1,0,3162.1,0.28945,0.289132,7.64385,2,0.019629,10,0.00221008,-2.11669,-1.7699,-0.0333352,-9.96611,0.289132,
2,1,0,1,0,3162.15,0.299438,0.299152,7.53544,2,0.0200078,10,0.00225424,-2.12289,-0.0489781,-1.20462,-336.17,0.299152,
2,0,0,1,0,3162.19,0.291747,0.291448,-1.40335,2,0.0200931,10,-0.000409002,-2.85284,-0.00701904,-8.40571,366.572,0.291448,
2,0,0,1,0,3162.24,0.28175,0.281455,-3.14404,2,0.0199688,10,-0.000884903,-2.50251,-0.0793467,-0.743573,90.9453,0.281455,
2,0,0,1,0,3162.29,0.27178,0.271474,-3.81003,2,0.0197941,10,-0.00103432,-2.41907,-0.153485,-0.384401,56.9199,0.271474,
2,0,0,1,0,3162.34,0.261783,0.261499,-4.24911,2,0.019592,10,-0.00111114,-2.3717,-0.267519,-0.220545,36.577,0.2614989,
2,0,0,1,0,3162.39,0.251786,0.251449,-4.61224,2,0.0193701,10,-0.00115975,-2.33609,-0.335535,-0.175839,31.6166,0.251449,
2,0,0,1,0,3162.44,0.241807,0.24151,-4.91738,2,0.0191319,10,-0.0011876,-2.30827,-0.381612,-0.154607,29.7646,0.24151,
2,0,0,1,0,3162.49,0.231824,0.23152,-5.21978,2,0.0188789,10,-0.00120848,-2.28235,-0.385225,-0.153157,31.1268,0.23152,
2,0,0,1,0,3162.54,0.221822,0.22154,-5.49118,2,0.0186111,10,-0.00121651,-2.26033,-0.439064,-0.134377,28.7915,0.22154,
2,0,0,1,0,3162.59,0.211844,0.211505,-5.78635,2,0.0183299,10,-0.00122384,-2.23759,-0.523583,-0.112685,25.4147,0.211505,
2,0,0,1,0,3162.64,0.201865,0.201555,-6.08297,2,0.0180338,10,-0.00122605,-2.21588,-0.456514,-0.12924,30.7356,0.201555,
2,0,0,1,0,3162.69,0.191868,0.191526,-6.44546,2,0.0177206,10,-0.00123447,-2.19075,-0.381121,-0.154806,38.9536,0.191526,
2,0,0,1,0,3162.74,0.18188,0.181559,-6.90562,2,0.0173881,10,-0.00125377,-2.1608,-0.288396,-0.204579,55.1186,0.1815585,
2,0,0,1,0,3162.79,0.171901,0.171603,-7.53425,2,0.017029,10,-0.0012929,-2.12296,-0.22911,-0.257519,75.6162,0.171603,
2,0,0,1,0,3162.84,0.161904,0.161623,-8.45586,2,0.0166307,10,-0.00136666,-2.07284,-0.168752,-0.349625,115.649,0.161623,
2,0,0,1,0,3162.89,0.151907,0.151558,-9.93667,2,0.0161732,10,-0.00150598,-2.00276,-0.127825,-0.46157,179.282,0.151558,
2,0,0,1,0,3162.94,0.141928,0.141644,-12.2144,2,0.0156237,10,-0.00173009,-1.91313,-0.102885,-0.573455,273.565,0.141644,
2,0,0,1,0,3162.99,0.13194,0.131644,-15.2048,2,0.0149413,10,-0.00200163,-1.81802,-0.110795,-0.532515,315.79,0.131644,
2,0,0,1,0,3163.04,0.121943,0.121657,-18.2543,2,0.014104,10,-0.00222076,-1.73863,-0.147072,-0.401164,285.257,0.121657,
2,0,0,1,0,3163.09,0.111964,0.111663,-20.7166,2,0.0131279,10,-0.00231328,-1.68368,-0.231622,-0.254725,205.792,0.111663,
2,0,0,1,0,3163.14,0.101985,0.101664,-22.3095,2,0.0120501,10,-0.00226807,-1.65151,-0.488162,-0.120862,105.115,0.101664,
2,0,0,1,0,3163.19,0.0919883,0.0916929,-22.8271,2,0.0109168,10,-0.00209309,-1.64155,175.907,0.000335404,-0.298599,0.0916929,
2,0,0,1,0,3163.24,0.0820004,0.0817024,-22.2219,2,0.00978823,10,-0.00181558,-1.65322,0.456135,0.129348,-112.043,0.0817024,
2,0,0,1,0,3163.29,0.0720215,0.0717085,-20.8334,2,0.00871285,10,-0.00149393,-1.68124,0.319199,0.184837,-150.303,0.0717085,
2,0,0,1,0,3163.34,0.0620245,0.0617206,-19.4656,2,0.00770664,10,-0.00120143,-1.71073,0.356915,0.165305,-125.613,0.0617206,
2,0,0,1,0,3163.39,0.0520275,0.0516963,-18.4017,2,0.00676124,10,-0.000951299,-1.73514,0.434234,0.135871,-97.5418,0.0516963,
2,0,0,1,0,3163.44,0.0420486,0.0417376,-17.4732,2,0.00586644,10,-0.000729289,-1.75763,0.4528,0.1303,-88.9013,0.0417376,
2,0,0,1,0,3163.49,0.0320607,0.0317362,-16.5057,2,0.00501832,10,-0.000523828,-1.78237,0.349183,0.168966,-108.702,0.0317362,
2,0,0,1,0,3163.54,0.0220637,0.0217457,-15.3165,2,0.00422229,10,-0.000333069,-1.81484,0.287536,0.205191,-122.695,0.0217457,
2,0,0,1,0,3163.59,0.0120848,0.0117856,-14.1022,2,0.00348897,10,-0.000166203,-1.85071,0.281159,0.209846,-115.505,0.01178558,
2,0,0,1,0,3163.64,0.00210598,0.00169533,-13.2273,2,0.00281026,10,-2.24246e-05,-1.87853,0.494231,0.119377,-61.4721,0.00169533,
2,0,0,1,0,3163.69,-0.00789103,-0.0082509,-12.6446,2,0.00216525,10,0.000104329,-1.8981,0.783478,0.0753052,-37.2147,-0.0082509,
2,0,0,1,0,3163.74,-0.017879,-0.0182229,-12.4603,2,0.00153986,10,0.000227062,-1.90447,11.8573,0.00497585,-2.41961,-0.0182229,
2,0,0,1,0,3163.79,-0.0278578,-0.0282102,-12.4976,2,0.000918033,10,0.000352559,-1.90317,-2.77385,-0.02127,10.3822,-0.0282102,
2,0,0,1,0,3163.84,-0.0378548,-0.0382232,-12.6997,2,0.000288484,10,0.000485424,-1.89621,-1.22019,-0.0483531,23.9671,-0.0382232,
2,0,0,1,0,3163.89,-0.0478519,-0.0481729,-13.0129,2,-0.000353965,10,0.00062687,-1.88563,-0.776396,-0.0759921,38.5934,-0.0481729,
2,0,0,1,0,3163.94,-0.0578126,-0.0581877,-13.4031,2,-0.0010116,10,0.000779894,-1.8728,-0.690093,-0.0854958,44.7564,-0.0581877,
2,0,0,1,0,3163.99,-0.0678187,-0.0681782,-13.8956,2,-0.00169382,10,0.00094738,-1.85712,-0.563265,-0.104746,56.7837,-0.0681782,
2,0,0,1,0,3164.04,-0.0778157,-0.0781695,-14.4763,2,-0.00240285,10,0.00113161,-1.83934,-0.546458,-0.107968,61.0279,-0.0781695,
2,0,0,1,0,3164.09,-0.0877945,-0.0881557,-15.1927,2,-0.00314256,10,0.00133932,-1.81837,-0.447424,-0.131866,78.1667,-0.0881557,
2,0,0,1,0,3164.14,-0.0977734,-0.0981019,-15.9891,2,-0.00392054,10,0.00156856,-1.79618,-0.408162,-0.14455,90.3055,-0.0981019,
2,0,0,1,1,3164.18,-0.0936874,-0.0940727,-5.0041,2,-0.0044066,10,0.000470749,-2.30067,-0.00937755,-6.29162,1192.98,-0.0940727,
2,1,0,1,1,3164.23,-0.0837086,-0.0840918,2.87998,2,-0.0044319,10,-0.000242183,-2.54061,0.0117812,5.00798,525.58,-0.08409179,
2,1,0,1,1,3164.28,-0.0737025,-0.0740519,6.72862,2,-0.00418118,10,-0.000498267,-2.17207,0.0555563,1.06199,275.905,-0.0740519,
2,1,0,1,1,3164.33,-0.0637236,-0.0640667,8.72426,2,-0.0037903,10,-0.000558934,-2.05927,0.141827,0.416001,141.459,-0.0640667,
2,1,0,1,1,3164.38,-0.0537447,-0.054077,9.79845,2,-0.00332526,10,-0.00052987,-2.00884,0.308981,0.19095,72.8542,-0.054077,
2,1,0,1,1,3164.43,-0.0437477,-0.0441143,10.3472,2,-0.00281987,10,-0.000456457,-1.98518,0.672533,0.087728,35.4189,-0.0441143,
2,1,0,1,1,3164.48,-0.0337507,-0.0341125,10.6116,2,-0.00229497,10,-0.000361989,-1.97422,1.71093,0.0344841,14.2597,-0.0341125,
2,1,0,1,1,3164.53,-0.0237809,-0.0241368,10.6709,2,-0.00176458,10,-0.00025756,-1.9718,6.9795,0.00845333,3.52118,-0.0241368,
2,1,0,1,1,3164.58,-0.0137839,-0.0141341,10.6438,2,-0.00123145,10,-0.00015044,-1.9729,-2.60276,-0.0226682,-9.40834,-0.0141341,
2,1,0,1,1,3164.63,-0.0037869,-0.00413585,10.5648,2,-0.000701181,10,-4.36943e-05,-1.97614,-2.49628,-0.0236352,-9.7529,-0.00413585,
2,1,0,1,1,3164.65,-2.55332e-05,-0.000344411,10.5249,2,-0.000503852,10,-3.62488e-06,-1.97778, , , ,-0.000344411,

File: 20221101_1-115_003_TrumpetPlot_ParaChange_from10_every3_10_CV_C01_2.csv
mode,ox/red,error,control changes,counter inc.,time/s,control/V,Ewe/V,<I>/mA,cycle number,(Q-Qo)/C,I Range,P/W,log(|I|),Tafel slope mV/dec,alpha_eff,dI/d(E-IR),E-IR/V,
2,1,0,0,0,5130.78,-2.44065e-05,-0.000306236,5.34758,3,0.0000000E+000,10,-1.63762e-06,-2.27184, , , ,-0.000306236,
2,1,0,1,0,5130.83,0.00977853,0.0094604,8.70546,3,0.000361925,10,8.23571e-05,-2.06021,0.117327,0.502868,170.131,0.009460398,
2,1,0,1,0,5130.88,0.0197755,0.0194795,9.84719,3,0.000829406,10,0.000191818,-2.00669,0.295708,0.199521,76.5721,0.0194795,
2,1,0,1,0,5130.93,0.0297726,0.0294613,10.5158,3,0.00133903,10,0.00030981,-1.97816,0.397719,0.148346,60.8657,0.0294613,
2,1,0,1,0,5130.98,0.0397514,0.0394113,11.1533,3,0.00187951,10,0.000439565,-1.9526,0.345432,0.1708,74.3604,0.0394113,
2,1,0,1,0,5131.03,0.0497393,0.0493772,11.8947,3,0.00245425,10,0.000587326,-1.92465,0.350092,0.168527,78.2535,0.0493772,
2,1,0,1,0,5131.08,0.0597364,0.0594345,12.7262,3,0.00306949,10,0.000756373,-1.8953,0.341101,0.172969,85.8027,0.0594345,
2,1,0,1,0,5131.13,0.0697152,0.0693657,13.5806,3,0.00372547,10,0.000942026,-1.86708,0.361342,0.16328,86.6261,0.06936565,
2,1,0,1,0,5131.18,0.0796941,0.0793902,14.4472,3,0.00442516,10,0.00114697,-1.84022,0.38917,0.151605,85.4399,0.07939025,
2,1,0,1,0,5131.23,0.0896911,0.0893738,15.2616,3,0.00516847,10,0.00136399,-1.8164,0.440455,0.133952,79.8755,0.0893738,
2,1,0,1,0,5131.28,0.099679,0.0994115,16.0981,3,0.00595083,10,0.00160034,-1.79323,0.434946,0.135649,85.1233,0.09941148,
2,1,0,1,0,5131.33,0.109658,0.109363,17.0375,3,0.00677622,10,0.00186326,-1.76859,0.353329,0.166983,111.095,0.109363,
2,1,0,1,0,5131.38,0.119655,0.119304,18.3255,3,0.00765894,10,0.0021863,-1.73694,0.29966,0.19689,140.777,0.119304,
2,1,0,1,0,5131.43,0.129652,0.129384,19.8067,3,0.00861232,10,0.00256267,-1.70319,0.304944,0.193478,149.593,0.129384,
2,1,0,1,0,5131.48,0.139631,0.139336,21.2052,3,0.00963685,10,0.00295464,-1.67356,0.381243,0.154757,128.026,0.139336,
2,1,0,1,0,5131.53,0.149619,0.149283,22.3437,3,0.0107248,10,0.00333554,-1.65084,0.527114,0.11193,97.5661,0.1492828,
2,1,0,1,0,5131.58,0.159616,0.159308,22.8679,3,0.0118595,10,0.00364304,-1.64077,-3.01996,-0.0195367,-17.4039,0.159308,
2,1,0,1,0,5131.63,0.169595,0.169268,21.5284,3,0.0129778,10,0.00364407,-1.66699,-0.180918,-0.326114,-273.186,0.169268,
2,1,0,1,0,5131.68,0.179573,0.179288,17.6512,3,0.0139623,10,0.00316465,-1.75323,-0.0908868,-0.649159,-446.997,0.179288,
2,1,0,1,0,5131.73,0.18957,0.189265,13.7373,3,0.0147409,10,0.0026,-1.8621,-0.100965,-0.584362,-314.192,0.189265,
2,1,0,1,0,5131.78,0.199558,0.199257,11.5005,3,0.015364,10,0.00229156,-1.93928,-0.171989,-0.343046,-153.908,0.199257,
2,1,0,1,0,5131.83,0.209537,0.209209,10.3064,3,0.0159048,10,0.00215619,-1.98689,-0.248413,-0.237508,-95.6928,0.209209,
2,1,0,1,0,5131.88,0.219534,0.219233,9.58668,3,0.0164007,10,0.00210172,-2.01833,-0.374235,-0.157655,-58.9723,0.2192335,
2,1,0,1,0,5131.93,0.229531,0.229254,9.07537,3,0.0168669,10,0.00208057,-2.04214,-0.481166,-0.122619,-43.509,0.229254,
2,1,0,1,0,5131.98,0.23951,0.239216,8.72173,3,0.0173105,10,0.00208638,-2.0594,-0.677715,-0.0870572,-29.624,0.239216,
2,1,0,1,0,5132.03,0.249498,0.249138,8.43163,3,0.0177382,10,0.00210064,-2.07409,-0.753864,-0.0782635,-25.7726,0.2491381,
2,1,0,1,0,5132.08,0.259495,0.259218,8.21119,3,0.0181538,10,0.00212849,-2.08559,-0.817935,-0.0721329,-23.088,0.259218,
2,1,0,1,0,5132.13,0.269474,0.269188,8.00711,3,0.0185584,10,0.00215541,-2.09652,-1.08043,-0.0546078,-17.0924,0.2691876,
2,1,0,1,0,5132.18,0.279453,0.279155,7.85686,3,0.0189542,10,0.00219328,-2.10475,-1.59134,-0.0370758,-11.3606,0.279155,
2,1,0,1,0,5132.23,0.28945,0.289151,7.69497,3,0.019343,10,0.00222501,-2.11379,-1.68555,-0.0350033,-10.5302,0.289151,
2,1,0,1,0,5132.28,0.299438,0.299136,7.57599,3,0.0197239,10,0.00226625,-2.12056,-0.0523767,-1.12645,-316.885,0.2991364,
2,0,0,1,0,5132.32,0.291747,0.291436,-1.09348,3,0.0198196,10,-0.000318681,-2.96119,-0.00474625,-12.4309,363.996,0.291436,
2,0,0,1,0,5132.37,0.28175,0.281419,-2.939,3,0.0197085,10,-0.000827091,-2.5318,-0.0683324,-0.863427,97.9248,0.281419,
2,0,0,1,0,5132.42,0.27178,0.271473,-3.64432,3,0.019543,10,-0.000989333,-2.43838,-0.142871,-0.41296,58.769,0.271473,
2,0,0,1,0,5132.47,0.261783,0.261448,-4.13081,3,0.019348,10,-0.00107999,-2.38396,-0.240772,-0.245045,39.3412,0.2614477,
2,0,0,1,0,5132.52,0.251786,0.251507,-4.49242,3,0.0191321,10,-0.00112987,-2.34752,-0.289669,-0.203681,35.7906,0.251507,
2,0,0,1,0,5132.57,0.241807,0.241519,-4.8255,3,0.0188992,10,-0.00116545,-2.31646,-0.358254,-0.164688,30.989,0.241519,
2,0,0,1,0,5132.62,0.231824,0.231481,-5.12019,3,0.0186512,10,-0.00118522,-2.29071,-0.368778,-0.159988,31.9629,0.231481,
2,0,0,1,0,5132.67,0.221822,0.221512,-5.4001,3,0.0183883,10,-0.00119619,-2.2676,-0.425968,-0.138508,29.1102,0.221512,
2,0,0,1,0,5132.72,0.211844,0.211529,-5.6727,3,0.0181121,10,-0.00119994,-2.24621,-0.490726,-0.12023,26.6484,0.211529,
2,0,0,1,0,5132.77,0.201865,0.201564,-5.97808,3,0.0178216,10,-0.00120496,-2.22344,-0.490678,-0.120242,27.985,0.201564,
2,0,0,1,0,5132.82,0.191868,0.191546,-6.29398,3,0.0175149,10,-0.00120558,-2.20107,-0.39821,-0.148163,36.512,0.191546,
2,0,0,1,0,5132.87,0.18188,0.181558,-6.72632,3,0.0171907,10,-0.00122121,-2.17222,-0.304582,-0.193708,50.6592,0.181558,
2,0,0,1,0,5132.92,0.171901,0.171574,-7.24868,3,0.016843,10,-0.00124369,-2.13974,-0.266831,-0.221114,62.673,0.171574,
2,0,0,1,0,5132.97,0.161904,0.161549,-8.05482,3,0.0164617,10,-0.00130125,-2.09394,-0.190929,-0.309015,97.0707,0.161549,
2,0,0,1,0,5133.02,0.151907,0.151612,-9.28844,3,0.01603,10,-0.00140824,-2.03206,-0.138288,-0.426646,155.296,0.151612,
2,0,0,1,0,5133.07,0.141928,0.141649,-11.2941,3,0.0155196,10,-0.0015998,-1.94715,-0.105359,-0.559992,246.72,0.141649,
2,0,0,1,0,5133.12,0.13194,0.131653,-14.0365,3,0.0148897,10,-0.00184795,-1.85274,-0.109309,-0.539755,295.715,0.131653,
2,0,0,1,0,5133.17,0.121943,0.121652,-16.9874,3,0.0141131,10,-0.00206655,-1.76987,-0.137026,-0.430575,284.803,0.121652,
2,0,0,1,0,5133.22,0.111964,0.111672,-19.4666,3,0.0132,10,-0.00217387,-1.71071,-0.214777,-0.274703,208.63,0.111672,
2,0,0,1,0,5133.27,0.101985,0.101708,-21.1528,3,0.0121831,10,-0.00215141,-1.67463,-0.397865,-0.148292,122.165,0.101708,
2,0,0,1,0,5133.32,0.0919883,0.0916625,-21.8528,3,0.0111036,10,-0.00200309,-1.66049,-2.09791,-0.0281233,23.9869,0.0916625,
2,0,0,1,0,5133.37,0.0820004,0.0816976,-21.5285,3,0.0100167,10,-0.00175883,-1.66699,0.592582,0.0995642,-83.5224,0.08169765,
2,0,0,1,0,5133.42,0.0720215,0.0717172,-20.3689,3,0.0089697,10,-0.0014608,-1.69103,0.359028,0.164333,-130.733,0.0717172,
2,0,0,1,0,5133.47,0.0620245,0.061738,-19.1576,3,0.00798261,10,-0.00118275,-1.71766,0.405898,0.145357,-108.651,0.061738,
2,0,0,1,0,5133.52,0.0520275,0.0516954,-18.2163,3,0.00704937,10,-0.000941701,-1.73954,0.498356,0.118389,-84.2048,0.0516954,
2,0,0,1,0,5133.57,0.0420486,0.0417177,-17.4507,3,0.00615986,10,-0.000728003,-1.75819,0.553041,0.106683,-72.632,0.0417177,
2,0,0,1,0,5133.62,0.0320607,0.0317882,-16.6764,3,0.00530813,10,-0.000530112,-1.7779,0.483005,0.122152,-79.5195,0.0317882,
2,0,0,1,0,5133.67,0.0220637,0.0217474,-15.7754,3,0.00449623,10,-0.000343075,-1.80202,0.351296,0.16795,-103.249,0.0217474,
2,0,0,1,0,5133.72,0.0120848,0.011753,-14.6808,3,0.00373632,10,-0.000172543,-1.83325,0.296956,0.198683,-113.942,0.011753,
2,0,0,1,0,5133.77,0.00210598,0.00179944,-13.7596,3,0.00302938,10,-2.47595e-05,-1.8614,0.433178,0.136203,-72.8789,0.00179944,
2,0,0,1,0,5133.82,-0.00789103,-0.0082136,-13.015,3,0.00236165,10,0.0001069,-1.88556,0.592736,0.0995384,-50.6997,-0.0082136,
2,0,0,1,0,5133.87,-0.017879,-0.0182428,-12.7224,3,0.00172068,10,0.000232092,-1.89543,1.96497,0.0300259,-14.8852,-0.0182428,
2,0,0,1,0,5133.92,-0.0278578,-0.0282015,-12.6366,3,0.00108908,10,0.000356371,-1.89837,-11.9498,-0.00493732,2.44007,-0.0282015,
2,0,0,1,0,5133.97,-0.0378548,-0.0382241,-12.7773,3,0.000454114,10,0.000488402,-1.89356,-1.71574,-0.0343875,17.1317,-0.0382241,
2,0,0,1,0,5134.02,-0.0478519,-0.0481911,-13.0179,3,-0.000190584,10,0.000627345,-1.88546,-0.834544,-0.0706973,35.9778,-0.0481911,
2,0,0,1,0,5134.07,-0.0578126,-0.0581825,-13.3937,3,-0.000848124,10,0.000779276,-1.8731,-0.790614,-0.0746256,38.9737,-0.0581825,
2,0,0,1,0,5134.12,-0.0678187,-0.0681652,-13.8376,3,-0.00152842,10,0.000943241,-1.85894,-0.617905,-0.0954839,51.5904,-0.0681652,
2,0,0,1,0,5134.17,-0.0778157,-0.078186,-14.3981,3,-0.00223396,10,0.00112573,-1.84169,-0.563439,-0.104714,58.813,-0.078186,
2,0,0,1,0,5134.22,-0.0877945,-0.0881533,-15.0694,3,-0.00296873,10,0.00132841,-1.82191,-0.464371,-0.127054,74.7846,-0.0881533,
2,0,0,1,0,5134.27,-0.0977734,-0.0981366,-15.8567,3,-0.00374038,10,0.00155612,-1.79979,-0.43348,-0.136108,84.2524,-0.0981366,
2,0,0,1,1,5134.31,-0.0936874,-0.0940711,-5.32026,3,-0.00422818,10,0.000500483,-2.27407,-0.0105377,-5.59892,1134.58,-0.0940711,
2,1,0,1,1,5134.36,-0.0837086,-0.0840692,2.33879,3,-0.00427642,10,-0.00019662,-2.63101,0.00946591,6.23289,513.293,-0.0840692,
2,1,0,1,1,5134.41,-0.0737025,-0.0740545,6.15002,3,-0.00405409,10,-0.000455437,-2.21112,0.0505174,1.16791,277.951,-0.0740545,
2,1,0,1,1,5134.46,-0.0637236,-0.0640675,8.2315,3,-0.00368992,10,-0.000527371,-2.08452,0.125684,0.469433,150.48,-0.0640675,
2,1,0,1,1,5134.51,-0.0537448,-0.0541108,9.37647,3,-0.00324765,10,-0.000507368,-2.02796,0.257351,0.229259,83.8117,-0.0541108,
2,1,0,1,1,5134.56,-0.0437477,-0.0440856,10.0039,3,-0.00276115,10,-0.000441026,-1.99983,0.525932,0.112182,43.7764,-0.0440856,
2,1,0,1,1,5134.61,-0.0337507,-0.0341333,10.325,3,-0.00225169,10,-0.000352427,-1.98611,1.17236,0.050326,20.2875,-0.0341333,
2,1,0,1,1,5134.66,-0.0237809,-0.0241541,10.4524,3,-0.00173388,10,-0.000252469,-1.98078,2.48666,0.0237266,9.66497,-0.0241541,
2,1,0,1,1,5134.71,-0.0137839,-0.0141151,10.4564,3,-0.00121081,10,-0.000147593,-1.98062,-6.87007,-0.00858797,-3.50736,-0.01411505,
2,1,0,1,1,5134.76,-0.0037869,-0.00416014,10.4337,3,-0.000688396,10,-4.34055e-05,-1.98156,-5.25946,-0.0112179,-4.56498,-0.00416014,
2,1,0,1,1,5134.78,-2.55332e-05,-0.000382585,10.4123,3,-0.00049351,10,-3.9836e-06,-1.98245, , , ,-0.000382585,