Folder: Figs_alphaMnO2_OER_Tafel_sleope/Figure_codes/Fig_3-5/rawdata_trumpetplot_data/after 10th (part 95)

File: 20221101_1-115_003_TrumpetPlot_ParaChange_from10_every3_07_CV_C01_16.csv
mode,ox/red,error,control changes,counter inc.,time/s,control/V,Ewe/V,<I>/mA,cycle number,(Q-Qo)/C,I Range,P/W,log(|I|),Tafel slope mV/dec,alpha_eff,dI/d(E-IR),E-IR/V,
2,0,0,0,0,32687.1,2.44065e-05,-0.000325324,-2.69758,17,0.0000000E+000,10,8.77588e-07,-2.56902, , , ,-0.000325324,
2,1,0,1,0,32687.2,0.007288,0.00696804,1.3441,17,8.60614e-06,10,9.36572e-06,-2.87157,0.0150586,3.91803,187.745,0.006968041,
2,1,0,1,0,32687.4,0.0147816,0.0144397,2.12847,17,0.000236323,10,3.07345e-05,-2.67193,0.071643,0.823528,68.1885,0.0144397,
2,1,0,1,0,32687.5,0.0222712,0.0219625,2.4919,17,0.000529148,10,5.47283e-05,-2.60347,0.147783,0.399235,38.8824,0.0219625,
2,1,0,1,0,32687.6,0.0297648,0.0294273,2.77606,17,0.000860693,10,8.16918e-05,-2.55657,0.188949,0.312253,33.7603,0.0294273,
2,1,0,1,0,32687.7,0.0372518,0.0369213,3.03625,17,0.00122501,10,0.000112102,-2.51766,0.199592,0.295603,34.913,0.0369213,
2,1,0,1,0,32687.8,0.0447467,0.0444231,3.2801,17,0.00162146,10,0.000145712,-2.48411,0.20581,0.286672,36.7463,0.0444231,
2,1,0,1,0,32688,0.052235,0.0519205,3.51724,17,0.00204868,10,0.000182617,-2.4538,0.25266,0.233516,32.13,0.0519205,
2,1,0,1,0,32688.1,0.0597299,0.059421,3.76068,17,0.0025062,10,0.000223463,-2.42473,0.294764,0.20016,29.3646,0.059421,
2,1,0,1,0,32688.2,0.0672156,0.0668924,3.98416,17,0.00299128,10,0.00026651,-2.39966,0.313903,0.187956,29.1172,0.0668924,
2,1,0,1,0,32688.3,0.0747105,0.0743935,4.16498,17,0.00350224,10,0.000309847,-2.38039,0.40143,0.146974,23.9125,0.0743935,
2,1,0,1,0,32688.5,0.0821988,0.0819253,4.32589,17,0.00403486,10,0.0003544,-2.36392,0.50983,0.115725,19.553,0.0819253,
2,1,0,1,0,32688.6,0.0896937,0.0893348,4.4827,17,0.0045871,10,0.000400461,-2.34846,0.538309,0.109602,19.1833,0.0893348,
2,1,0,1,0,32688.7,0.0971794,0.0968801,4.68462,17,0.00516028,10,0.000453846,-2.32933,0.31541,0.187058,34.1598,0.0968801,
2,1,0,1,0,32688.8,0.104674,0.104377,4.98344,17,0.00576445,10,0.000520157,-2.30247,0.223545,0.263929,51.3995,0.104377,
2,1,0,1,0,32689,0.112163,0.111817,5.38125,17,0.00641338,10,0.000601714,-2.26912,0.234122,0.252005,52.9824,0.111817,
2,1,0,1,0,32689.1,0.119657,0.119343,5.78554,17,0.00711361,10,0.000690465,-2.23766,0.307664,0.191768,43.2365,0.119343,
2,1,0,1,0,32689.2,0.127143,0.126786,6.06158,17,0.00785572,10,0.000768523,-2.21741,0.472886,0.124766,29.4798,0.126786,
2,1,0,1,0,32689.3,0.134638,0.134352,6.23189,17,0.00862652,10,0.000837265,-2.20538,0.745705,0.0791197,19.2634,0.134352,
2,1,0,1,0,32689.5,0.142126,0.141803,6.28971,17,0.00941274,10,0.000891898,-2.20137,-1.95616,-0.0301612,-7.3976,0.141803,
2,1,0,1,0,32689.6,0.149621,0.149301,5.97491,17,0.010187,10,0.000892061,-2.22367,-0.165468,-0.356565,-82.7741,0.149301,
2,1,0,1,0,32689.7,0.157107,0.156779,5.10788,17,0.0108847,10,0.000800808,-2.29176,-0.0849207,-0.694766,-138.095,0.156779,
2,1,0,1,0,32689.8,0.164602,0.164267,4.13225,17,0.0114614,10,0.000678794,-2.38381,-0.0864483,-0.682489,-110.346,0.164267,
2,1,0,1,0,32690,0.17209,0.171774,3.4736,17,0.011935,10,0.000596674,-2.45922,-0.11859,-0.497513,-67.8735,0.1717739,
2,1,0,1,0,32690.1,0.179585,0.179252,3.09859,17,0.0123459,10,0.000555428,-2.50884,-0.173006,-0.341029,-41.309,0.179252,
2,1,0,1,0,32690.2,0.187072,0.186763,2.8785,17,0.0127193,10,0.000537596,-2.54083,-0.298947,-0.197359,-22.1312,0.186763,
2,1,0,1,0,32690.3,0.194566,0.194273,2.72746,17,0.0130705,10,0.000529873,-2.56424,-0.480781,-0.122717,-13.0908,0.194273,
2,1,0,1,0,32690.5,0.202055,0.20175,2.63126,17,0.0134071,10,0.000530856,-2.57984,-0.578177,-0.102045,-10.5137,0.20175,
2,1,0,1,0,32690.6,0.209549,0.209239,2.57524,17,0.0137345,10,0.00053884,-2.58918,-0.652537,-0.0904163,-9.08656,0.2092386,
2,1,0,1,0,32690.7,0.217036,0.216703,2.531,17,0.0140547,10,0.000548475,-2.59671,-0.870966,-0.0677409,-6.67953,0.216703,
2,1,0,1,0,32690.8,0.224529,0.224227,2.49003,17,0.0143701,10,0.000558332,-2.60379,-1.7809,-0.0331293,-3.22453,0.224227,
2,1,0,1,0,32691,0.232019,0.231739,2.45923,17,0.0146813,10,0.000569899,-2.6092,-6.55388,-0.0090023,-0.86673,0.231739,
2,1,0,1,0,32691.1,0.239513,0.239211,2.44103,17,0.0149896,10,0.00058392,-2.61243,-1.42556,-0.0413873,-3.94256,0.239211,
2,1,0,1,0,32691.2,0.247001,0.246704,2.4244,17,0.0152949,10,0.000598107,-2.6154,-1.38408,-0.0426277,-4.01737,0.246704,
2,1,0,1,0,32691.3,0.254493,0.25416,2.39874,17,0.015598,10,0.000609664,-2.62002,-3.22159,-0.018314,-1.71731,0.25416,
2,1,0,1,0,32691.5,0.261983,0.261701,2.3761,17,0.0158985,10,0.000621827,-2.62414,-1.61354,-0.0365657,-3.40439,0.261701,
2,1,0,1,0,32691.6,0.269477,0.269169,2.36813,17,0.016197,10,0.000637427,-2.62559,-1.95683,-0.0301508,-2.78457,0.269169,
2,1,0,1,0,32691.7,0.276965,0.27667,2.3494,17,0.0164931,10,0.000650007,-2.62904,-2.41707,-0.0244097,-2.23283,0.2766698,
2,1,0,1,0,32691.8,0.284457,0.284091,2.32735,17,0.016787,10,0.000661178,-2.63314,-8.27471,-0.00713016,-0.647741,0.284091,
2,1,0,1,0,32692,0.291947,0.291661,2.30524,17,0.0170782,10,0.000672347,-2.63728,-2.03276,-0.0290246,-2.61328,0.291661,
2,1,0,1,0,32692.1,0.29944,0.299137,2.2829,17,0.017367,10,0.000682902,-2.64151,-0.00658855,-8.95493,-594.325,0.299137,
2,0,0,1,0,32692.2,0.293742,0.293397,-0.536486,17,0.01741,10,-0.000157404,-3.27044,-0.00955701,-6.17348,105.785,0.293397,
2,0,0,1,0,32692.3,0.286254,0.285915,-0.928462,17,0.0173117,10,-0.000265461,-3.03224,-0.0660492,-0.893274,32.2969,0.285915,
2,0,0,1,0,32692.5,0.278761,0.278422,-1.11197,17,0.0171805,10,-0.000309596,-2.95391,-0.123523,-0.477643,20.8278,0.278422,
2,0,0,1,0,32692.6,0.271272,0.270969,-1.24851,17,0.0170303,10,-0.000338309,-2.90361,-0.19608,-0.300897,14.6247,0.270969,
2,0,0,1,0,32692.7,0.263778,0.263427,-1.35699,17,0.0168656,10,-0.000357468,-2.86742,-0.264685,-0.222907,11.704,0.2634275,
2,0,0,1,0,32692.8,0.25629,0.256005,-1.44138,17,0.0166892,10,-0.000369,-2.84122,-0.285227,-0.206853,11.55,0.256005,
2,0,0,1,0,32693,0.248797,0.248468,-1.51393,17,0.0165025,10,-0.000376163,-2.81989,-0.34132,-0.172858,10.2184,0.248468,
2,0,0,1,0,32693.1,0.241308,0.240987,-1.5811,17,0.0163068,10,-0.000381026,-2.80104,-0.50111,-0.117739,7.3013,0.240987,
2,0,0,1,0,32693.2,0.233814,0.23352,-1.65552,17,0.0161025,10,-0.000386596,-2.78107,-0.501672,-0.117607,7.56239,0.23352,
2,0,0,1,0,32693.3,0.226326,0.226003,-1.71661,17,0.0158901,10,-0.000387958,-2.76533,-0.391234,-0.150805,10.0925,0.226003,
2,0,0,1,0,32693.5,0.218834,0.218534,-1.77597,17,0.0156697,10,-0.00038811,-2.75056,-0.375896,-0.156958,10.893,0.218534,
2,0,0,1,0,32693.6,0.211344,0.211042,-1.83868,17,0.0154419,10,-0.000388038,-2.73549,-0.783282,-0.0753241,5.40755,0.211042,
2,0,0,1,0,32693.7,0.203856,0.203524,-1.90364,17,0.0152061,10,-0.000387438,-2.72041,-0.606389,-0.0972973,7.21975,0.203524,
2,0,0,1,0,32693.8,0.196362,0.196002,-1.96792,17,0.0149623,10,-0.000385715,-2.70599,-0.512265,-0.115175,8.84235,0.196002,
2,0,0,1,0,32694,0.18887,0.188534,-2.03414,17,0.0147098,10,-0.000383505,-2.69162,-0.367804,-0.160411,12.7948,0.188534,
2,0,0,1,0,32694.1,0.18138,0.181066,-2.11866,17,0.0144478,10,-0.000383618,-2.67394,-0.433292,-0.136167,11.2994,0.181066,
2,0,0,1,0,32694.2,0.173892,0.173512,-2.22609,17,0.0141745,10,-0.000386254,-2.65246,-0.323678,-0.18228,15.8044,0.173512,
2,0,0,1,0,32694.3,0.166398,0.166068,-2.35527,17,0.0138868,10,-0.000391135,-2.62796,-0.283996,-0.207749,19.0888,0.166068,
2,0,0,1,0,32694.5,0.158905,0.15856,-2.52501,17,0.0135803,10,-0.000400364,-2.59774,-0.186946,-0.315599,31.2352,0.15856,
2,0,0,1,0,32694.6,0.151417,0.151057,-2.80519,17,0.0132461,10,-0.000423743,-2.55204,-0.140454,-0.420066,46.1709,0.151057,
2,0,0,1,0,32694.7,0.143927,0.143558,-3.26469,17,0.0128674,10,-0.000468673,-2.48616,-0.097143,-0.607352,77.3586,0.1435582,
2,0,0,1,0,32694.8,0.136435,0.136062,-3.94869,17,0.012417,10,-0.000537267,-2.40355,-0.0871645,-0.676881,104.15,0.136062,
2,0,0,1,0,32695,0.128941,0.128588,-4.75419,17,0.0118717,10,-0.000611333,-2.32292,-0.102084,-0.577954,107.066,0.128588,
2,0,0,1,0,32695.1,0.121453,0.121137,-5.47045,17,0.0112293,10,-0.000662675,-2.26198,-0.151253,-0.390075,83.3012,0.121137,
2,0,0,1,0,32695.2,0.113963,0.113627,-6.00759,17,0.0105084,10,-0.000682625,-2.2213,-0.26046,-0.226522,53.011,0.113627,
2,0,0,1,0,32695.3,0.106471,0.106153,-6.30714,17,0.00973471,10,-0.000669519,-2.20017,-0.609128,-0.0968597,23.8059,0.106153,
2,0,0,1,0,32695.5,0.0989825,0.0986047,-6.34215,17,0.00894044,10,-0.000625366,-2.19776,1.79991,0.0327794,-8.10622,0.0986047,
2,0,0,1,0,32695.6,0.0914889,0.0911429,-6.16111,17,0.00815564,10,-0.000561541,-2.21034,0.415868,0.141872,-34.1223,0.0911429,
2,0,0,1,0,32695.7,0.0839993,0.0836697,-5.89466,17,0.00740126,10,-0.000493205,-2.22954,0.35865,0.164506,-37.8069,0.0836697,
2,0,0,1,0,32695.8,0.076507,0.076194,-5.67404,17,0.00667768,10,-0.000432328,-2.24611,0.519858,0.113493,-25.1143,0.076194,
2,0,0,1,0,32696,0.0690187,0.0686824,-5.50818,17,0.00597795,10,-0.000378314,-2.25899,0.712541,0.0828023,-17.8225,0.0686824,
2,0,0,1,0,32696.1,0.0615251,0.0611756,-5.37616,17,0.00529534,10,-0.00032889,-2.26953,0.653556,0.0902754,-18.9602,0.0611756,
2,0,0,1,0,32696.2,0.0540355,0.0537073,-5.24157,17,0.00463045,10,-0.000281511,-2.28054,0.585991,0.100684,-20.5662,0.0537073,
2,0,0,1,0,32696.3,0.0465432,0.0462216,-5.08965,17,0.00398313,10,-0.000235252,-2.29331,0.622166,0.09483,-18.8124,0.04622161,
2,0,0,1,0,32696.5,0.0390549,0.0387225,-4.9182,17,0.00335624,10,-0.000190445,-2.30819,0.48992,0.120428,-23.1074,0.0387225,
2,0,0,1,0,32696.6,0.0315613,0.0311845,-4.72674,17,0.002751,10,-0.000147401,-2.32544,0.40516,0.145621,-26.8973,0.0311845,
2,0,0,1,0,32696.7,0.0240717,0.0237103,-4.52984,17,0.00217085,10,-0.000107404,-2.34392,0.361531,0.163195,-28.8515,0.0237103,
2,0,0,1,0,32696.8,0.0165781,0.0162191,-4.34514,17,0.00161479,10,-7.04743e-05,-2.362,0.480494,0.12279,-20.8133,0.0162191,
2,0,0,1,0,32697,0.00909108,0.0087306,-4.19922,17,0.00107987,10,-3.66617e-05,-2.37683,0.673364,0.0876198,-14.3604,0.0087306,
2,0,0,1,0,32697.1,0.00159616,0.00118206,-4.12641,17,0.00055979,10,-4.87766e-06,-2.38443, , , ,0.00118206,
2,0,0,1,0,32697.1,0.000199195,-0.000185986,-4.09654,17,0.000463509,10,7.61899e-07,-2.38758, , , ,-0.000185986,

File: 20221101_1-115_003_TrumpetPlot_ParaChange_from10_every3_07_CV_C01_17.csv
mode,ox/red,error,control changes,counter inc.,time/s,control/V,Ewe/V,<I>/mA,cycle number,(Q-Qo)/C,I Range,P/W,log(|I|),Tafel slope mV/dec,alpha_eff,dI/d(E-IR),E-IR/V,
2,0,0,0,0,34657.2,2.44065e-05,-0.000306236,-2.71476,18,0.0000000E+000,10,8.31357e-07,-2.56627, , , ,-0.000306236,
2,1,0,1,0,34657.4,0.007288,0.00697558,1.062,18,-1.9951e-05,10,7.40803e-06,-2.97388,0.0111565,5.28838,196.269,0.00697558,
2,1,0,1,0,34657.5,0.0147816,0.014447,1.91001,18,0.000177088,10,2.75938e-05,-2.71897,0.0624539,0.944696,70.0166,0.014447,
2,1,0,1,0,34657.6,0.0222712,0.0219111,2.31347,18,0.00044454,10,5.06909e-05,-2.63574,0.122132,0.483082,43.4217,0.0219111,
2,1,0,1,0,34657.7,0.0297648,0.0294552,2.60655,18,0.000753838,10,7.67764e-05,-2.58393,0.15911,0.370811,37.602,0.0294552,
2,1,0,1,0,34657.9,0.0372518,0.0368829,2.8617,18,0.00109727,10,0.000105548,-2.54338,0.193027,0.305657,34.2325,0.0368829,
2,1,0,1,0,34658,0.0447467,0.0444468,3.1207,18,0.00147334,10,0.000138705,-2.50575,0.22959,0.25698,31.313,0.0444468,
2,1,0,1,0,34658.1,0.052235,0.0519329,3.36851,18,0.00188031,10,0.000174937,-2.47256,0.240919,0.244896,32.1628,0.0519329,
2,1,0,1,0,34658.2,0.0597299,0.0593969,3.60406,18,0.00231756,10,0.00021407,-2.44321,0.256586,0.229942,32.2651,0.0593969,
2,1,0,1,0,34658.4,0.0672156,0.0669517,3.8111,18,0.00278224,10,0.00025516,-2.41895,0.295345,0.199767,29.7128,0.0669517,
2,1,0,1,0,34658.5,0.0747105,0.0744302,4.00079,18,0.0032727,10,0.000297779,-2.39785,0.419726,0.140568,21.9668,0.0744302,
2,1,0,1,0,34658.6,0.0821988,0.0818868,4.17241,18,0.00378499,10,0.000341665,-2.37961,0.512627,0.115093,18.7089,0.0818868,
2,1,0,1,0,34658.7,0.0896937,0.0893645,4.32279,18,0.00431692,10,0.000386304,-2.36424,0.442977,0.13319,22.4426,0.0893645,
2,1,0,1,0,34658.9,0.0971794,0.0968532,4.49981,18,0.00486901,10,0.000435822,-2.34681,0.329639,0.178983,31.5138,0.0968532,
2,1,0,1,0,34659,0.104674,0.104365,4.78372,18,0.00544977,10,0.000499252,-2.32023,0.23543,0.250605,46.8415,0.104365,
2,1,0,1,0,34659.1,0.112163,0.111843,5.16386,18,0.00607196,10,0.000577539,-2.28703,0.234165,0.251959,50.705,0.111843,
2,1,0,1,0,34659.2,0.119658,0.119343,5.53511,18,0.00674238,10,0.000660578,-2.25687,0.295589,0.199602,43.045,0.119343,
2,1,0,1,0,34659.4,0.127143,0.126808,5.80051,18,0.00745303,10,0.000735549,-2.23653,0.431617,0.136695,30.9591,0.126808,
2,1,0,1,0,34659.5,0.134638,0.134338,5.97541,18,0.0081918,10,0.000802723,-2.22363,0.783558,0.0752975,17.5834,0.134338,
2,1,0,1,0,34659.6,0.142126,0.141791,6.05794,18,0.00894654,10,0.000858958,-2.21768,-2.38568,-0.0247309,-5.83329,0.141791,
2,1,0,1,0,34659.7,0.149621,0.14926,5.81189,18,0.00969444,10,0.000867483,-2.23568,-0.202601,-0.291212,-65.7522,0.14926,
2,1,0,1,0,34659.9,0.157107,0.156811,5.0581,18,0.0103788,10,0.000793164,-2.29601,-0.0951915,-0.619803,-122.145,0.156811,
2,1,0,1,0,34660,0.164602,0.164298,4.16926,18,0.0109554,10,0.000685001,-2.37994,-0.0908327,-0.649546,-105.902,0.164298,
2,1,0,1,0,34660.1,0.17209,0.171765,3.53425,18,0.0114351,10,0.000607062,-2.4517,-0.119743,-0.492722,-68.1273,0.1717654,
2,1,0,1,0,34660.2,0.179585,0.179261,3.14884,18,0.0118524,10,0.000564464,-2.50185,-0.177015,-0.333304,-40.9848,0.179261,
2,1,0,1,0,34660.4,0.187072,0.186783,2.90515,18,0.0122308,10,0.000542631,-2.53683,-0.279345,-0.211208,-23.9422,0.186783,
2,1,0,1,0,34660.5,0.194566,0.19426,2.75151,18,0.0125854,10,0.000534507,-2.56043,-0.377096,-0.156459,-16.8342,0.19426,
2,1,0,1,0,34660.6,0.202055,0.20171,2.65271,18,0.0129241,10,0.000535079,-2.57631,-0.496666,-0.118792,-12.2769,0.20171,
2,1,0,1,0,34660.7,0.209549,0.209248,2.5898,18,0.0132526,10,0.000541911,-2.58673,-0.747443,-0.0789358,-7.94337,0.2092479,
2,1,0,1,0,34660.9,0.217036,0.216741,2.52467,18,0.0135731,10,0.0005472,-2.5978,-1.14102,-0.0517079,-5.10818,0.216741,
2,1,0,1,0,34661,0.22453,0.224232,2.48636,18,0.0138885,10,0.000557521,-2.60444,-0.954216,-0.0618309,-6.01787,0.224232,
2,1,0,1,0,34661.1,0.232019,0.231695,2.45967,18,0.0141994,10,0.000569894,-2.60912,-1.33877,-0.0440703,-4.23064,0.231695,
2,1,0,1,0,34661.2,0.239513,0.239189,2.43687,18,0.0145071,10,0.000582871,-2.61317,-3.03037,-0.0194696,-1.85037,0.239189,
2,1,0,1,0,34661.4,0.247001,0.246688,2.41492,18,0.0148116,10,0.000595731,-2.6171,-4.6647,-0.0126482,-1.18987,0.246688,
2,1,0,1,0,34661.5,0.254493,0.25418,2.39382,18,0.0151138,10,0.000608463,-2.62091,-1.76008,-0.0335212,-3.13697,0.25418,
2,1,0,1,0,34661.6,0.261983,0.261719,2.37544,18,0.0154133,10,0.000621697,-2.62426,-1.59774,-0.0369272,-3.42476,0.261719,
2,1,0,1,0,34661.7,0.269477,0.269163,2.35644,18,0.0157109,10,0.000634265,-2.62774,-6.83912,-0.00862684,-0.793512,0.269163,
2,1,0,1,0,34661.9,0.276965,0.276656,2.33844,18,0.016006,10,0.000646945,-2.63107,-11.8023,-0.00499903,-0.45667,0.276656,
2,1,0,1,0,34662,0.284457,0.284153,2.31697,18,0.0162988,10,0.000658374,-2.63508,-3.18651,-0.0185155,-1.6774,0.284153,
2,1,0,1,0,34662.1,0.291947,0.291652,2.30285,18,0.016589,10,0.000671631,-2.63773,-0.92337,-0.0638964,-5.73464,0.291652,
2,1,0,1,0,34662.2,0.29944,0.299161,2.28233,18,0.016877,10,0.000682784,-2.64162,-0.00770527,-7.6571,-527.021,0.299161,
2,0,0,1,0,34662.3,0.293742,0.293428,-0.391948,18,0.0169345,10,-0.000115008,-3.40677,-0.00528881,-11.1556,116.638,0.293428,
2,0,0,1,0,34662.5,0.286254,0.285881,-0.828366,18,0.016851,10,-0.000236814,-3.08178,-0.0540473,-1.09164,35.1993,0.285881,
2,0,0,1,0,34662.6,0.278761,0.27848,-1.03003,18,0.0167315,10,-0.000286843,-2.98715,-0.121058,-0.48737,19.6275,0.27848,
2,0,0,1,0,34662.7,0.271272,0.270962,-1.17248,18,0.0165914,10,-0.000317697,-2.9309,-0.163183,-0.361557,16.4775,0.270962,
2,0,0,1,0,34662.8,0.263778,0.263489,-1.2824,18,0.0164359,10,-0.000337897,-2.89198,-0.199416,-0.295864,14.7692,0.2634885,
2,0,0,1,0,34663,0.25629,0.255991,-1.37482,18,0.016268,10,-0.000351943,-2.86175,-0.286776,-0.205736,11.007,0.255991,
2,0,0,1,0,34663.1,0.248797,0.248427,-1.44729,18,0.0160894,10,-0.000359546,-2.83944,-0.371237,-0.158928,9.01549,0.248427,
2,0,0,1,0,34663.2,0.241308,0.240965,-1.52477,18,0.0159014,10,-0.000367415,-2.8168,-0.442851,-0.133228,7.92627,0.240965,
2,0,0,1,0,34663.3,0.233814,0.233485,-1.59366,18,0.0157044,10,-0.000372095,-2.7976,-0.362522,-0.162749,10.1176,0.233485,
2,0,0,1,0,34663.5,0.226326,0.226023,-1.65794,18,0.0154993,10,-0.000374733,-2.78043,-0.375787,-0.157004,10.1563,0.226023,
2,0,0,1,0,34663.6,0.218834,0.21853,-1.7243,18,0.0152861,10,-0.000376811,-2.76339,-0.490856,-0.120198,8.0843,0.2185296,
2,0,0,1,0,34663.7,0.211344,0.211013,-1.78322,18,0.0150653,10,-0.000376283,-2.74879,-0.751178,-0.0785433,5.45866,0.2110128,
2,0,0,1,0,34663.8,0.203856,0.203547,-1.85305,18,0.0148366,10,-0.000377182,-2.73211,-0.550227,-0.107228,7.71678,0.203547,
2,0,0,1,0,34664,0.196362,0.196055,-1.90445,18,0.0146,10,-0.000373376,-2.72023,-0.486756,-0.121211,9.0344,0.196055,
2,0,0,1,0,34664.1,0.18887,0.188509,-1.9749,18,0.0143548,10,-0.000372285,-2.70446,-0.494265,-0.119369,9.25679,0.1885086,
2,0,0,1,0,34664.2,0.18138,0.181065,-2.06453,18,0.0141006,10,-0.000373814,-2.68518,-0.42563,-0.138618,11.1393,0.181065,
2,0,0,1,0,34664.3,0.173892,0.173543,-2.15918,18,0.0138356,10,-0.000374712,-2.66571,-0.338043,-0.174534,14.6684,0.173543,
2,0,0,1,0,34664.5,0.166398,0.166059,-2.27315,18,0.0135572,10,-0.000377478,-2.64337,-0.308908,-0.190995,16.9604,0.166059,
2,0,0,1,0,34664.6,0.158905,0.158557,-2.43095,18,0.0132615,10,-0.000385445,-2.61422,-0.226939,-0.259981,24.7513,0.158557,
2,0,0,1,0,34664.7,0.151417,0.151094,-2.68161,18,0.012941,10,-0.000405177,-2.5716,-0.154468,-0.381956,40.1014,0.151094,
2,0,0,1,0,34664.8,0.143927,0.14362,-3.08374,18,0.012581,10,-0.000442888,-2.51092,-0.101707,-0.580097,69.8218,0.14362,
2,0,0,1,0,34665,0.136435,0.136104,-3.69215,18,0.0121576,10,-0.000502518,-2.43272,-0.087655,-0.673094,97.1686,0.136104,
2,0,0,1,0,34665.1,0.128941,0.128593,-4.43606,18,0.0116479,10,-0.000570448,-2.353,-0.104128,-0.566609,97.9587,0.1285935,
2,0,0,1,0,34665.2,0.121453,0.121166,-5.13244,18,0.0110475,10,-0.000621876,-2.28968,-0.145492,-0.40552,81.009,0.121166,
2,0,0,1,0,34665.3,0.113963,0.113665,-5.65993,18,0.0103702,10,-0.000643338,-2.24719,-0.222658,-0.264981,58.4192,0.113665,
2,0,0,1,0,34665.5,0.106471,0.106134,-5.99104,18,0.00963804,10,-0.000635851,-2.2225,-0.435519,-0.13547,31.6708,0.106134,
2,0,0,1,0,34665.6,0.0989825,0.0986914,-6.08843,18,0.0088791,10,-0.000600876,-2.21549,9.57652,0.0061609,-1.46329,0.0986914,
2,0,0,1,0,34665.7,0.0914889,0.0911584,-5.98614,18,0.00812131,10,-0.000545687,-2.22285,0.529594,0.111406,-25.9831,0.0911584,
2,0,0,1,0,34665.8,0.0839993,0.0836743,-5.76946,18,0.00738608,10,-0.000482756,-2.23886,0.433336,0.136153,-30.5922,0.0836743,
2,0,0,1,0,34666,0.076507,0.076202,-5.57022,18,0.00667666,10,-0.000424462,-2.25413,0.635567,0.0928305,-20.1881,0.076202,
2,0,0,1,0,34666.1,0.0690187,0.0686997,-5.42586,18,0.00598836,10,-0.000372755,-2.26553,0.710682,0.0830189,-17.6143,0.0686997,
2,0,0,1,0,34666.2,0.0615251,0.0611516,-5.30541,18,0.00531547,10,-0.000324434,-2.27528,0.646922,0.0912011,-18.8964,0.0611516,
2,0,0,1,0,34666.3,0.0540355,0.0537178,-5.18767,18,0.00465852,10,-0.00027867,-2.28503,0.745827,0.0791068,-15.9908,0.0537178,
2,0,0,1,0,34666.5,0.0465432,0.046208,-5.04255,18,0.00401753,10,-0.000233007,-2.29735,0.710215,0.0830734,-16.3553,0.046208,
2,0,0,1,0,34666.6,0.0390549,0.0387077,-4.8893,18,0.00339536,10,-0.000189254,-2.31075,0.483657,0.121987,-23.2925,0.0387077,
2,0,0,1,0,34666.7,0.0315613,0.0311922,-4.71635,18,0.0027929,10,-0.000147114,-2.32639,0.402203,0.146692,-27.0011,0.0311922,
2,0,0,1,0,34666.8,0.0240717,0.0237373,-4.52936,18,0.0022137,10,-0.000107515,-2.34396,0.429034,0.137518,-24.3141,0.0237373,
2,0,0,1,0,34667,0.0165781,0.0162847,-4.35413,18,0.0016572,10,-7.09055e-05,-2.3611,0.537011,0.109867,-18.6892,0.0162847,
2,0,0,1,0,34667.1,0.00909108,0.00877204,-4.19838,18,0.00112131,10,-3.68284e-05,-2.37692,0.575461,0.102527,-16.8381,0.00877204,
2,0,0,1,0,34667.2,0.00159616,0.00121533,-4.13337,18,0.000600414,10,-5.02341e-06,-2.3837, , , ,0.00121533,
2,0,0,1,0,34667.2,0.000199195,-0.000208891,-4.10948,18,0.000504052,10,8.58433e-07,-2.38621, , , ,-0.000208891,