Folder: Figs_alphaMnO2_OER_Tafel_sleope/Figure_codes/Fig_3-5/rawdata_trumpetplot_data/after 10th (part 155)

File: 20221101_1-115_003_TrumpetPlot_ParaChange_from10_every3_10_CV_C01_31.csv
mode,ox/red,error,control changes,counter inc.,time/s,control/V,Ewe/V,<I>/mA,cycle number,(Q-Qo)/C,I Range,P/W,log(|I|),Tafel slope mV/dec,alpha_eff,dI/d(E-IR),E-IR/V,
2,1,0,0,0,62264.6,-2.44065e-05,-0.000268062,5.00794,32,0.0000000E+000,10,-1.34244e-06,-2.30034, , , ,-0.000268062,
2,1,0,1,0,62264.6,0.00977853,0.00949337,7.07142,32,0.000304298,10,6.71316e-05,-2.15049,0.123234,0.478764,131.776,0.00949337,
2,1,0,1,0,62264.7,0.0197755,0.0194396,8.10764,32,0.000685826,10,0.000157609,-2.09111,0.225926,0.261147,82.5786,0.0194396,
2,1,0,1,0,62264.7,0.0297726,0.0294379,8.82406,32,0.00110988,10,0.000259762,-2.05433,0.336635,0.175264,60.272,0.0294379,
2,1,0,1,0,62264.8,0.0397514,0.0393874,9.39932,32,0.00156477,10,0.000370215,-2.0269,0.372339,0.158458,58.1113,0.0393874,
2,1,0,1,0,62264.8,0.0497393,0.0494023,9.95339,32,0.00204751,10,0.000491721,-2.00203,0.414053,0.142494,55.3095,0.0494023,
2,1,0,1,0,62264.9,0.0597364,0.0593902,10.5004,32,0.00255867,10,0.000623621,-1.97879,0.429194,0.137467,56.3015,0.0593902,
2,1,0,1,0,62264.9,0.0697152,0.0693497,11.0616,32,0.00309659,10,0.000767117,-1.95618,0.463052,0.127415,55.0289,0.0693497,
2,1,0,1,0,62265,0.0796941,0.079366,11.6379,32,0.00366296,10,0.000923651,-1.93413,0.475952,0.123962,56.281,0.079366,
2,1,0,1,0,62265,0.0896911,0.0893235,12.1821,32,0.00425875,10,0.00108815,-1.91428,0.520941,0.113257,53.877,0.0893235,
2,1,0,1,0,62265.1,0.099679,0.09932,12.7338,32,0.00488027,10,0.00126472,-1.89504,0.56573,0.10429,51.7653,0.09932,
2,1,0,1,0,62265.1,0.109658,0.109266,13.2742,32,0.00552861,10,0.00145042,-1.87699,0.520892,0.113267,58.7185,0.109266,
2,1,0,1,0,62265.2,0.119655,0.11928,13.9586,32,0.00620881,10,0.00166498,-1.85516,0.437753,0.134779,73.3933,0.11928,
2,1,0,1,0,62265.2,0.129652,0.129292,14.7487,32,0.00692634,10,0.00190689,-1.83125,0.418629,0.140936,81.1558,0.129292,
2,1,0,1,0,62265.3,0.139631,0.139275,15.55,32,0.00768289,10,0.00216571,-1.80827,0.484277,0.121831,73.9136,0.139275,
2,1,0,1,0,62265.3,0.149619,0.149291,16.2073,32,0.00847597,10,0.00241959,-1.79029,0.678594,0.0869445,54.9745,0.149291,
2,1,0,1,0,62265.4,0.159616,0.159269,16.57,32,0.00929723,10,0.00263908,-1.78068,4.47125,0.0131954,8.52503,0.159269,
2,1,0,1,0,62265.4,0.169595,0.169249,16.3102,32,0.0101206,10,0.00276049,-1.78754,-0.573863,-0.102812,-65.3833,0.169249,
2,1,0,1,0,62265.5,0.179573,0.179232,15.271,32,0.0109115,10,0.00273704,-1.81613,-0.251301,-0.234778,-139.824,0.179232,
2,1,0,1,0,62265.5,0.18957,0.189224,13.7264,32,0.0116373,10,0.00259737,-1.86244,-0.198018,-0.297953,-159.664,0.189224,
2,1,0,1,0,62265.6,0.199558,0.199221,12.2195,32,0.0122836,10,0.00243438,-1.91295,-0.205381,-0.287271,-136.929,0.199221,
2,1,0,1,0,62265.6,0.209537,0.209187,10.9936,32,0.0128611,10,0.00229972,-1.95886,-0.232257,-0.254029,-109.106,0.209187,
2,1,0,1,0,62265.7,0.219534,0.219183,10.0788,32,0.0133866,10,0.00220911,-1.99659,-0.295328,-0.199778,-78.5678,0.219183,
2,1,0,1,0,62265.7,0.229531,0.229143,9.38117,32,0.0138723,10,0.00214963,-2.02774,-0.364425,-0.161899,-59.354,0.229143,
2,1,0,1,0,62265.8,0.23951,0.239157,8.87735,32,0.0143274,10,0.00212308,-2.05172,-0.482625,-0.122248,-42.3441,0.239157,
2,1,0,1,0,62265.8,0.249498,0.24917,8.47533,32,0.0147599,10,0.0021118,-2.07184,-0.579587,-0.101797,-33.7087,0.2491702,
2,1,0,1,0,62265.9,0.259495,0.259155,8.17453,32,0.0151758,10,0.00211847,-2.08754,-0.627422,-0.0940356,-29.9705,0.259155,
2,1,0,1,0,62265.9,0.269474,0.2691,7.91591,32,0.0155769,10,0.00213017,-2.1015,-0.834705,-0.0706837,-21.8581,0.2691001,
2,1,0,1,0,62266,0.279453,0.279111,7.71427,32,0.0159667,10,0.00215314,-2.11271,-0.903105,-0.0653302,-19.6495,0.279111,
2,1,0,1,0,62266,0.28945,0.289121,7.52781,32,0.0163477,10,0.00217645,-2.12333,-1.13642,-0.0519175,-15.2707,0.289121,
2,1,0,1,0,62266.1,0.299438,0.299115,7.37984,32,0.0167195,10,0.00220742,-2.13195,-0.0818943,-0.720441,-201.341,0.299115,
2,1,0,1,0,62266.1,0.291747,0.291408,1.84949,32,0.0169059,10,0.000538957,-2.73295,0.0108345,5.44557,385.134,0.291408,
2,0,0,1,0,62266.2,0.28175,0.281417,-0.742495,32,0.0169251,10,-0.000208951,-3.12931,-0.00849651,-6.94403,178.164,0.281417,
2,0,0,1,0,62266.2,0.27178,0.271469,-2.09899,32,0.0168512,10,-0.000569812,-2.67799,-0.0453328,-1.30148,105.538,0.271469,
2,0,0,1,0,62266.3,0.261783,0.261462,-2.94691,32,0.0167236,10,-0.000770503,-2.53063,-0.0987071,-0.597728,68.5752,0.261462,
2,0,0,1,0,62266.3,0.251786,0.251432,-3.54099,32,0.0165606,10,-0.000890319,-2.45088,-0.159776,-0.369266,50.9393,0.251432,
2,0,0,1,0,62266.4,0.241807,0.24142,-3.98936,32,0.0163721,10,-0.000963114,-2.3991,-0.219476,-0.268822,41.938,0.24142,
2,0,0,1,0,62266.4,0.231824,0.231501,-4.36873,32,0.0161632,10,-0.00101137,-2.35964,-0.288298,-0.204649,34.8372,0.231501,
2,0,0,1,0,62266.5,0.221822,0.22147,-4.68036,32,0.0159367,10,-0.00103656,-2.32972,-0.37104,-0.159012,29.0527,0.22147,
2,0,0,1,0,62266.5,0.211843,0.211476,-4.97066,32,0.0156958,10,-0.00105118,-2.30359,-0.466929,-0.126357,24.4675,0.2114763,
2,0,0,1,0,62266.6,0.201865,0.201561,-5.22559,32,0.0154413,10,-0.00105328,-2.28186,-0.499389,-0.118144,24.1345,0.201561,
2,0,0,1,0,62266.6,0.191868,0.191451,-5.48776,32,0.0151734,10,-0.00105064,-2.26061,-0.485698,-0.121475,26.0048,0.191451,
2,0,0,1,0,62266.7,0.18188,0.181503,-5.74966,32,0.0148932,10,-0.00104358,-2.24036,-0.437543,-0.134844,30.2414,0.181503,
2,0,0,1,0,62266.7,0.171901,0.171547,-6.02873,32,0.0145995,10,-0.00103421,-2.21977,-0.447046,-0.131977,31.0487,0.171547,
2,0,0,1,0,62266.8,0.161904,0.161573,-6.36054,32,0.0142899,10,-0.00102769,-2.19651,-0.404345,-0.145915,36.2394,0.161573,
2,0,0,1,0,62266.8,0.151907,0.151558,-6.79568,32,0.0139615,10,-0.00102994,-2.16777,-0.311683,-0.189295,50.2512,0.151558,
2,0,0,1,0,62266.9,0.141928,0.141564,-7.45973,32,0.0136069,10,-0.00105603,-2.12728,-0.201685,-0.292536,85.2529,0.141564,
2,0,0,1,0,62266.9,0.13194,0.131612,-8.51736,32,0.0132102,10,-0.00112099,-2.06969,-0.152007,-0.38814,129.041,0.1316123,
2,0,0,1,0,62267,0.121943,0.121591,-9.99502,32,0.0127485,10,-0.00121531,-2.00022,-0.150267,-0.392634,152.964,0.121591,
2,0,0,1,0,62267,0.111964,0.111606,-11.5759,32,0.0122102,10,-0.00129194,-1.93644,-0.172356,-0.342315,154.577,0.111606,
2,0,0,1,0,62267.1,0.101985,0.101688,-13.0309,32,0.0115952,10,-0.00132509,-1.88502,-0.224838,-0.262411,133.344,0.101688,
2,0,0,1,0,62267.1,0.0919883,0.0916339,-14.2022,32,0.0109128,10,-0.0013014,-1.84764,-0.312734,-0.188659,104.536,0.0916339,
2,0,0,1,0,62267.2,0.0820004,0.0816666,-15.0083,32,0.0101819,10,-0.00122568,-1.82367,-0.593626,-0.0993892,58.1745,0.0816666,
2,0,0,1,0,62267.2,0.0720215,0.0716989,-15.3491,32,0.00942284,10,-0.00110051,-1.81392,-2.57533,-0.0229097,13.7211,0.0716989,
2,0,0,1,0,62267.3,0.0620245,0.0616763,-15.3616,32,0.00865401,10,-0.000947446,-1.81356,3.03238,0.0194567,-11.6618,0.0616763,
2,0,0,1,0,62267.3,0.0520275,0.0516356,-15.2357,32,0.00788889,10,-0.000786704,-1.81714,2.14351,0.027525,-16.358,0.0516356,
2,0,0,1,0,62267.4,0.0420486,0.0416819,-15.0521,32,0.00713301,10,-0.000627401,-1.8224,1.97514,0.0298713,-17.5588,0.0416819,
2,0,0,1,0,62267.4,0.0320607,0.0316971,-14.8446,32,0.00638685,10,-0.000470531,-1.82843,1.3406,0.0440103,-25.4757,0.0316971,
2,0,0,1,0,62267.5,0.0220637,0.0217162,-14.5488,32,0.00565182,10,-0.000315943,-1.83717,1.00991,0.0584209,-33.1663,0.0217162,
2,0,0,1,0,62267.5,0.0120848,0.0117005,-14.1678,32,0.00493513,10,-0.00016577,-1.8487,0.705946,0.0835758,-46.1853,0.0117005,
2,0,0,1,0,62267.6,0.00210598,0.00171789,-13.7137,32,0.00424026,10,-2.35587e-05,-1.86284,0.695946,0.0847767,-45.2949,0.001717887,
2,0,0,1,0,62267.6,-0.00789103,-0.00826652,-13.1889,32,0.0035679,10,0.000109026,-1.87979,0.666169,0.0885661,-45.6153,-0.00826652,
2,0,0,1,0,62267.7,-0.017879,-0.0182889,-12.7814,32,0.00292018,10,0.000233758,-1.89342,0.843291,0.069964,-34.9078,-0.0182889,
2,0,0,1,0,62267.7,-0.0278578,-0.0282535,-12.4927,32,0.00229022,10,0.000352964,-1.90334,1.28326,0.0459766,-22.4264,-0.02825355,
2,0,0,1,0,62267.8,-0.0378549,-0.038218,-12.3455,32,0.00166986,10,0.000471819,-1.90849,3.459,0.017057,-8.21618,-0.03821801,
2,0,0,1,0,62267.8,-0.0478519,-0.0482189,-12.3131,32,0.00105388,10,0.000593724,-1.90963,-4.29121,-0.013749,6.61059,-0.0482189,
2,0,0,1,0,62267.9,-0.0578126,-0.0582233,-12.3962,32,0.000438802,10,0.000721746,-1.90671,-2.22292,-0.0265416,12.8472,-0.0582233,
2,0,0,1,0,62267.9,-0.0678187,-0.0682328,-12.5735,32,-0.000185085,10,0.000857928,-1.90054,-1.19841,-0.049232,24.1546,-0.0682328,
2,0,0,1,0,62268,-0.0778157,-0.0782294,-12.8195,32,-0.000819673,10,0.00100286,-1.89213,-1.08771,-0.0542424,27.1458,-0.0782294,
2,0,0,1,0,62268,-0.0877945,-0.0882145,-13.1634,32,-0.00146766,10,0.0011612,-1.88063,-0.814455,-0.0724411,37.2273,-0.0882145,
2,0,0,1,0,62268.1,-0.0977734,-0.0981921,-13.5842,32,-0.00213474,10,0.00133386,-1.86697,-0.655873,-0.0899565,47.694,-0.0981921,
2,0,0,1,1,62268.1,-0.0936874,-0.0941006,-7.59168,32,-0.00260586,10,0.000714381,-2.11966,-0.0264088,-2.2341,663.656,-0.0941006,
2,0,0,1,1,62268.1,-0.0837086,-0.0841291,-2.51045,32,-0.00284685,10,0.000211202,-2.60025,-0.0137706,-4.28449,408.202,-0.0841291,
2,1,0,1,1,62268.2,-0.0737025,-0.074103,0.88793,32,-0.00288198,10,-6.57983e-05,-3.05162,0.00575443,10.253,286.472,-0.074103,
2,1,0,1,1,62268.2,-0.0637236,-0.0641788,3.31354,32,-0.00277383,10,-0.000212659,-2.47971,0.0361508,1.63205,209.595,-0.0641788,
2,1,0,1,1,62268.3,-0.0537447,-0.0541256,5.13457,32,-0.00256062,10,-0.000277911,-2.2895,0.0760006,0.776309,154.856,-0.0541256,
2,1,0,1,1,62268.3,-0.0437477,-0.0441646,6.47874,32,-0.00226829,10,-0.000286131,-2.18851,0.132184,0.446348,112.855,-0.0441646,
2,1,0,1,1,62268.4,-0.0337507,-0.034109,7.48537,32,-0.00191768,10,-0.000255319,-2.12579,0.202121,0.291904,85.1671,-0.034109,
2,1,0,1,1,62268.4,-0.0237809,-0.0241879,8.19816,32,-0.00152612,10,-0.000198297,-2.08628,0.308272,0.191389,61.2004,-0.02418795,
2,1,0,1,1,62268.5,-0.0137839,-0.0141801,8.70162,32,-0.00110281,10,-0.00012339,-2.0604,0.51651,0.114228,38.7584,-0.01418012,
2,1,0,1,1,62268.5,-0.0037869,-0.00421654,9.03667,32,-0.000658703,10,-3.81034e-05,-2.04399,0.737219,0.0800305,28.23,-0.00421654,
2,1,0,1,1,62268.6,-2.55332e-05,-0.000401673,9.11671,32,-0.000488769,10,-3.66193e-06,-2.04016, , , ,-0.000401673,

File: 20221101_1-115_003_TrumpetPlot_ParaChange_from10_every3_10_CV_C01_32.csv
mode,ox/red,error,control changes,counter inc.,time/s,control/V,Ewe/V,<I>/mA,cycle number,(Q-Qo)/C,I Range,P/W,log(|I|),Tafel slope mV/dec,alpha_eff,dI/d(E-IR),E-IR/V,
2,1,0,0,0,64234.7,-2.44065e-05,-0.000248974,5.07791,33,0.0000000E+000,10,-1.26427e-06,-2.29432, , , ,-0.000248974,
2,1,0,1,0,64234.7,0.00977853,0.00946994,7.22616,33,0.000310733,10,6.84313e-05,-2.14109,0.122845,0.48028,135.108,0.00946994,
2,1,0,1,0,64234.8,0.0197755,0.0194274,8.271,33,0.000700318,10,0.000160684,-2.08244,0.231451,0.254913,82.1925,0.0194274,
2,1,0,1,0,64234.8,0.0297726,0.0294787,8.97476,33,0.00113246,10,0.000264564,-2.04698,0.340373,0.173339,60.7131,0.0294787,
2,1,0,1,0,64234.9,0.0397514,0.0394097,9.5545,33,0.00159517,10,0.00037654,-2.01979,0.378313,0.155956,58.1557,0.0394097,
2,1,0,1,0,64234.9,0.0497393,0.0494353,10.1083,33,0.00208578,10,0.000499709,-1.99532,0.417444,0.141336,55.7143,0.0494353,
2,1,0,1,0,64235,0.0597364,0.0594171,10.6623,33,0.00260485,10,0.000633524,-1.97215,0.41377,0.142591,59.2914,0.05941711,
2,1,0,1,0,64235,0.0697152,0.0693561,11.2278,33,0.00315114,10,0.000778719,-1.9497,0.458035,0.128811,56.4798,0.0693561,
2,1,0,1,0,64235.1,0.0796941,0.0793486,11.8178,33,0.00372633,10,0.000937724,-1.92746,0.46659,0.126449,58.3175,0.0793486,
2,1,0,1,0,64235.1,0.0896911,0.0893096,12.363,33,0.00433117,10,0.00110413,-1.90788,0.502607,0.117388,56.6729,0.0893096,
2,1,0,1,0,64235.2,0.099679,0.0993813,12.9194,33,0.00496217,10,0.00128395,-1.88876,0.570767,0.10337,52.0845,0.0993813,
2,1,0,1,0,64235.2,0.109658,0.109306,13.4787,33,0.00562046,10,0.00147331,-1.87035,0.501381,0.117675,61.9454,0.109306,
2,1,0,1,0,64235.3,0.119655,0.119284,14.1986,33,0.00631187,10,0.00169367,-1.84776,0.430006,0.137208,76.021,0.119284,
2,1,0,1,0,64235.3,0.129652,0.129296,15.0287,33,0.00704246,10,0.00194315,-1.82308,0.401879,0.14681,86.1121,0.129296,
2,1,0,1,0,64235.4,0.139631,0.139259,15.8303,33,0.00781311,10,0.0022045,-1.80051,0.501394,0.117672,72.6982,0.139259,
2,1,0,1,0,64235.4,0.149619,0.149284,16.4759,33,0.00862006,10,0.00245958,-1.78315,0.723915,0.0815013,52.3558,0.149284,
2,1,0,1,0,64235.5,0.159616,0.159304,16.7493,33,0.00945282,10,0.00266822,-1.776,-9.80285,-0.00601866,-3.93218,0.159304,
2,1,0,1,0,64235.5,0.169595,0.169261,16.3466,33,0.0102819,10,0.00276684,-1.78657,-0.451803,-0.130588,-83.1997,0.169261,
2,1,0,1,0,64235.6,0.179573,0.179233,15.1261,33,0.0110698,10,0.00271109,-1.82027,-0.227317,-0.259549,-153.137,0.179233,
2,1,0,1,0,64235.6,0.18957,0.189255,13.4893,33,0.0117858,10,0.00255291,-1.87001,-0.189899,-0.310691,-163.618,0.189255,
2,1,0,1,0,64235.7,0.199558,0.199242,11.9878,33,0.01242,10,0.00238847,-1.92126,-0.206132,-0.286224,-133.872,0.199242,
2,1,0,1,0,64235.7,0.209537,0.209195,10.8131,33,0.0129871,10,0.00226205,-1.96605,-0.240068,-0.245764,-103.766,0.209195,
2,1,0,1,0,64235.8,0.219534,0.219245,9.93736,33,0.0135046,10,0.00217871,-2.00273,-0.313757,-0.188044,-72.9772,0.219245,
2,1,0,1,0,64235.8,0.229531,0.229212,9.29049,33,0.0139847,10,0.00212949,-2.03196,-0.37161,-0.158768,-57.5842,0.229212,
2,1,0,1,0,64235.9,0.23951,0.23918,8.80459,33,0.0144356,10,0.00210588,-2.05529,-0.484673,-0.121732,-41.8501,0.23918,
2,1,0,1,0,64235.9,0.249498,0.249194,8.42359,33,0.0148651,10,0.00209911,-2.0745,-0.591414,-0.0997609,-32.8055,0.249194,
2,1,0,1,0,64236,0.259495,0.259147,8.1307,33,0.0152786,10,0.00210704,-2.08987,-0.690176,-0.0854855,-27.1008,0.259147,
2,1,0,1,0,64236,0.269474,0.269117,7.88416,33,0.0156777,10,0.00212176,-2.10324,-0.856283,-0.0689025,-21.1998,0.269117,
2,1,0,1,0,64236.1,0.279453,0.279116,7.67854,33,0.0160658,10,0.00214321,-2.11472,-0.950952,-0.0620431,-18.5972,0.279116,
2,1,0,1,0,64236.1,0.28945,0.289112,7.50165,33,0.0164451,10,0.00216882,-2.12484,-1.08167,-0.0545454,-15.9601,0.289112,
2,1,0,1,0,64236.2,0.299438,0.29916,7.34737,33,0.0168154,10,0.00219804,-2.13387,-0.0754359,-0.782121,-217.356,0.29916,
2,1,0,1,0,64236.2,0.291747,0.291396,1.63132,33,0.0169944,10,0.00047536,-2.78746,0.00944384,6.24746,383.32,0.291396,
2,0,0,1,0,64236.3,0.28175,0.281437,-0.955999,33,0.0170028,10,-0.000269054,-3.01954,-0.0114373,-5.15856,176.642,0.281437,
2,0,0,1,0,64236.3,0.27178,0.271449,-2.27682,33,0.016919,10,-0.000618041,-2.64267,-0.0507939,-1.16156,102.727,0.271449,
2,0,0,1,0,64236.4,0.261783,0.261465,-3.1121,33,0.0167827,10,-0.000813706,-2.50695,-0.106233,-0.555381,67.1313,0.261465,
2,0,0,1,0,64236.4,0.251786,0.251443,-3.68011,33,0.0166121,10,-0.000925339,-2.43414,-0.167115,-0.35305,50.7959,0.251443,
2,0,0,1,0,64236.5,0.241807,0.241495,-4.12765,33,0.0164166,10,-0.000996807,-2.3843,-0.238948,-0.246916,39.7627,0.241495,
2,0,0,1,0,64236.5,0.231824,0.231455,-4.49109,33,0.0162013,10,-0.00103949,-2.34765,-0.299722,-0.196849,34.5167,0.2314554,
2,0,0,1,0,64236.6,0.221822,0.221519,-4.80415,33,0.0159688,10,-0.00106421,-2.31838,-0.373299,-0.15805,29.5583,0.221519,
2,0,0,1,0,64236.6,0.211843,0.211493,-5.07579,33,0.0157223,10,-0.00107349,-2.2945,-0.468719,-0.125875,24.9523,0.211493,
2,0,0,1,0,64236.7,0.201865,0.201551,-5.33706,33,0.0154624,10,-0.00107569,-2.2727,-0.512758,-0.115064,23.958,0.201551,
2,0,0,1,0,64236.7,0.191868,0.191512,-5.58647,33,0.0151891,10,-0.00106987,-2.25286,-0.494822,-0.119235,26.0382,0.191512,
2,0,0,1,0,64236.8,0.18188,0.181549,-5.86338,33,0.0149037,10,-0.00106449,-2.23185,-0.452851,-0.130286,29.7369,0.181549,
2,0,0,1,0,64236.8,0.171901,0.171568,-6.13499,33,0.0146046,10,-0.00105257,-2.21219,-0.455394,-0.129558,31.0595,0.1715681,
2,0,0,1,0,64236.9,0.161904,0.161547,-6.48316,33,0.0142896,10,-0.00104734,-2.18821,-0.387946,-0.152083,38.4187,0.161547,
2,0,0,1,0,64236.9,0.151907,0.15153,-6.91962,33,0.013955,10,-0.00104853,-2.15992,-0.296496,-0.198991,53.883,0.15153,
2,0,0,1,0,64237,0.141928,0.141606,-7.63837,33,0.0135929,10,-0.00108164,-2.117,-0.197857,-0.298196,88.8699,0.141606,
2,0,0,1,0,64237,0.13194,0.131617,-8.76409,33,0.0131858,10,-0.00115351,-2.05729,-0.143493,-0.411171,140.755,0.131617,
2,0,0,1,0,64237.1,0.121943,0.121624,-10.3219,33,0.0127096,10,-0.00125538,-1.98624,-0.148266,-0.397933,160.101,0.121624,
2,0,0,1,0,64237.1,0.111964,0.11166,-11.957,33,0.0121534,10,-0.00133512,-1.92238,-0.175194,-0.33677,157.163,0.11166,
2,0,0,1,0,64237.2,0.101985,0.101636,-13.4277,33,0.0115187,10,-0.00136473,-1.872,-0.23375,-0.252406,132.109,0.101636,
2,0,0,1,0,64237.2,0.0919883,0.0916487,-14.5703,33,0.0108171,10,-0.00133535,-1.83653,-0.345633,-0.170701,97.0467,0.0916487,
2,0,0,1,0,64237.3,0.0820004,0.0817064,-15.302,33,0.0100694,10,-0.00125027,-1.81525,-0.729877,-0.0808355,48.2262,0.0817064,
2,0,0,1,0,64237.3,0.0720215,0.0716781,-15.552,33,0.00929794,10,-0.00111474,-1.80821,-6.72073,-0.00877881,5.32708,0.0716781,
2,0,0,1,0,64237.4,0.0620245,0.0616364,-15.4951,33,0.00852106,10,-0.000955063,-1.80981,2.14728,0.0274766,-16.6062,0.0616364,
2,0,0,1,0,64237.4,0.0520275,0.0516755,-15.3196,33,0.00775058,10,-0.00079165,-1.81475,1.70878,0.0345275,-20.6423,0.0516755,
2,0,0,1,0,64237.5,0.0420486,0.041732,-15.1193,33,0.00699103,10,-0.00063096,-1.82047,1.66287,0.0354808,-20.9366,0.041732,
2,0,0,1,0,64237.5,0.0320607,0.0316945,-14.8756,33,0.00624238,10,-0.000471474,-1.82753,1.17801,0.0500845,-29.0646,0.03169452,
2,0,0,1,0,64237.6,0.0220637,0.0217309,-14.5588,33,0.00550644,10,-0.000316375,-1.83688,0.878647,0.0671487,-38.1255,0.0217309,
2,0,0,1,0,64237.6,0.0120848,0.0117291,-14.1314,33,0.00479039,10,-0.000165749,-1.84981,0.663578,0.088912,-49.0351,0.0117291,
2,0,0,1,0,64237.7,0.00210598,0.00173611,-13.6748,33,0.00409762,10,-2.3741e-05,-1.86408,0.690473,0.0854486,-45.4833,0.00173611,
2,0,0,1,0,64237.7,-0.00789103,-0.00828734,-13.1401,33,0.0034277,10,0.000108897,-1.8814,0.684367,0.0862111,-44.2626,-0.00828734,
2,0,0,1,0,64237.8,-0.017879,-0.0182618,-12.7607,33,0.00278191,10,0.000233033,-1.89413,0.941076,0.0626942,-31.2,-0.0182618,
2,0,0,1,0,64237.8,-0.0278578,-0.0282301,-12.492,33,0.00215264,10,0.000352651,-1.90337,1.44847,0.0407326,-19.8653,-0.0282301,
2,0,0,1,0,64237.9,-0.0378548,-0.0382761,-12.3668,33,0.00153172,10,0.000473353,-1.90774,3.61113,0.0163384,-7.88376,-0.0382761,
2,0,0,1,0,64237.9,-0.0478519,-0.0482189,-12.3639,33,0.000913753,10,0.000596175,-1.90784,-3.50373,-0.0168392,8.13023,-0.0482189,
2,0,0,1,0,64238,-0.0578126,-0.0582111,-12.4741,33,0.00029564,10,0.000726131,-1.90399,-2.02131,-0.029189,14.2071,-0.0582111,
2,0,0,1,0,64238,-0.0678187,-0.0682233,-12.6554,33,-0.000332301,10,0.000863396,-1.89772,-1.23829,-0.0476462,23.538,-0.06822329,
2,0,0,1,0,64238.1,-0.0778157,-0.0781947,-12.9162,33,-0.000971455,10,0.00100997,-1.88887,-1.00115,-0.0589324,29.715,-0.0781947,
2,0,0,1,0,64238.1,-0.0877945,-0.0881493,-13.2608,33,-0.00162451,10,0.00116893,-1.87743,-0.786086,-0.0750554,38.8693,-0.0881493,
2,0,0,1,0,64238.2,-0.0977734,-0.0981522,-13.6786,33,-0.0022965,10,0.00134258,-1.86396,-0.659674,-0.0894382,47.7675,-0.0981522,
2,0,0,1,1,64238.2,-0.0936874,-0.0940783,-7.3346,33,-0.00276402,10,0.000690027,-2.13462,-0.0246122,-2.39718,686.602,-0.0940783,
2,0,0,1,1,64238.3,-0.0837086,-0.0841638,-2.11139,33,-0.00298797,10,0.000177703,-2.67543,-0.0112368,-5.2506,417.047,-0.0841638,
2,1,0,1,1,64238.3,-0.0737025,-0.074084,1.32607,33,-0.00300208,10,-9.82404e-05,-2.87743,0.00960924,6.13992,289.876,-0.074084,
2,1,0,1,1,64238.4,-0.0637236,-0.0641374,3.76393,33,-0.00287194,10,-0.000241409,-2.42436,0.0416736,1.41576,206.219,-0.0641374,
2,1,0,1,1,64238.4,-0.0537448,-0.0541108,5.55293,33,-0.00263698,10,-0.000300474,-2.25548,0.0834772,0.70678,152.94,-0.0541108,
2,1,0,1,1,64238.5,-0.0437477,-0.0441221,6.88306,33,-0.00232408,10,-0.000303695,-2.16222,0.141052,0.418285,112.128,-0.0441221,
2,1,0,1,1,64238.5,-0.0337507,-0.0341559,7.8383,33,-0.00195456,10,-0.000267724,-2.10578,0.218496,0.270028,82.617,-0.0341559,
2,1,0,1,1,64238.6,-0.0237809,-0.0241524,8.52591,33,-0.00154613,10,-0.000205921,-2.06926,0.332156,0.177627,58.9816,-0.0241524,
2,1,0,1,1,64238.6,-0.0137839,-0.0141767,8.9763,33,-0.00110772,10,-0.000127254,-2.0469,0.560416,0.105279,36.9033,-0.01417665,
2,1,0,1,1,64238.7,-0.0037869,-0.00417749,9.28611,33,-0.000650507,10,-3.87927e-05,-2.03217,0.912159,0.0646817,23.4184,-0.004177493,
2,1,0,1,1,64238.7,-2.55332e-05,-0.000401673,9.3584,33,-0.000476151,10,-3.75901e-06,-2.0288, , , ,-0.000401673,