Folder: Figs_alphaMnO2_OER_Tafel_sleope/Figure_codes/Fig_3-5/rawdata_trumpetplot_data/after 10th (part 120)

File: 20221101_1-115_003_TrumpetPlot_ParaChange_from10_every3_08_CV_C01_31.csv
mode,ox/red,error,control changes,counter inc.,time/s,control/V,Ewe/V,<I>/mA,cycle number,(Q-Qo)/C,I Range,P/W,log(|I|),Tafel slope mV/dec,alpha_eff,dI/d(E-IR),E-IR/V,
2,0,0,0,0,62249.1,2.44065e-05,-0.000382585,-3.96265,32,0.0000000E+000,10,1.51605e-06,-2.40201, , , ,-0.000382585,
2,1,0,1,0,62249.2,0.00729419,0.00696024,0.220093,32,-0.000121899,10,1.5319e-06,-3.65739,0.0188167,3.13551,298.156,0.00696024,
2,1,0,1,0,62249.2,0.0147816,0.0144326,1.68001,32,-2.28687e-05,10,2.42468e-05,-2.77469,0.0284071,2.07695,133.413,0.0144326,
2,1,0,1,0,62249.3,0.0222707,0.0219223,2.43559,32,0.000174213,10,5.33938e-05,-2.6134,0.0758544,0.777806,73.535,0.0219223,
2,1,0,1,0,62249.4,0.0297581,0.0294373,2.91972,32,0.000426937,10,8.59485e-05,-2.53466,0.120422,0.489942,55.6307,0.0294373,
2,1,0,1,0,62249.5,0.0372544,0.0368943,3.2909,32,0.000719341,10,0.000121415,-2.48268,0.160304,0.368051,47.2414,0.0368943,
2,1,0,1,0,62249.6,0.0447507,0.0443908,3.61726,32,0.00104445,10,0.000160573,-2.44162,0.202951,0.29071,41.0816,0.0443908,
2,1,0,1,0,62249.7,0.0522381,0.0518683,3.92363,32,0.00139874,10,0.000203512,-2.40631,0.237209,0.248726,38.0517,0.0518683,
2,1,0,1,0,62249.8,0.0597273,0.0593846,4.20663,32,0.00178053,10,0.000249809,-2.37607,0.256053,0.230421,37.8332,0.0593846,
2,1,0,1,0,62249.9,0.0672147,0.0668825,4.47187,32,0.00218802,10,0.00029909,-2.34951,0.298653,0.197554,34.4772,0.0668825,
2,1,0,1,0,62250,0.0747038,0.0743565,4.72037,32,0.00261938,10,0.00035099,-2.32602,0.355789,0.165829,30.5181,0.0743565,
2,1,0,1,0,62250.1,0.0822055,0.0818749,4.93216,32,0.00307331,10,0.00040382,-2.30696,0.394623,0.14951,28.7737,0.0818749,
2,1,0,1,0,62250.2,0.0896946,0.0893598,5.12224,32,0.00354512,10,0.000457722,-2.29054,0.48031,0.122837,24.576,0.0893598,
2,1,0,1,0,62250.3,0.097182,0.0968727,5.3305,32,0.00403514,10,0.00051638,-2.27323,0.401621,0.146905,30.5457,0.0968727,
2,1,0,1,0,62250.4,0.104671,0.104345,5.59293,32,0.00454647,10,0.000583593,-2.25236,0.284547,0.207347,45.2987,0.104345,
2,1,0,1,0,62250.5,0.112159,0.111851,5.95029,32,0.00508717,10,0.000665547,-2.22546,0.264601,0.222977,51.8116,0.111851,
2,1,0,1,0,62250.6,0.119655,0.119303,6.35934,32,0.00566499,10,0.000758692,-2.19659,0.292641,0.201612,49.9849,0.119303,
2,1,0,1,0,62250.6,0.127149,0.126782,6.71272,32,0.0062791,10,0.000851052,-2.1731,0.361743,0.163099,42.7199,0.1267819,
2,1,0,1,0,62250.7,0.134639,0.134284,6.96444,32,0.00692147,10,0.00093521,-2.15711,0.612343,0.0963513,26.2075,0.134284,
2,1,0,1,0,62250.8,0.142126,0.141811,7.11856,32,0.00758293,10,0.00100949,-2.14761,1.51613,0.038915,10.8046,0.141811,
2,1,0,1,0,62250.9,0.149615,0.149253,7.06863,32,0.00825039,10,0.00105502,-2.15066,-0.569301,-0.103636,-28.5285,0.149253,
2,1,0,1,0,62251,0.157103,0.156746,6.62263,32,0.00889545,10,0.00103807,-2.17897,-0.169576,-0.347926,-89.6982,0.156746,
2,1,0,1,0,62251.1,0.164606,0.16422,5.82601,32,0.00948173,10,0.000956747,-2.23463,-0.114942,-0.5133,-116.58,0.16422,
2,1,0,1,0,62251.2,0.172095,0.171742,5.0194,32,0.00998895,10,0.00086204,-2.29935,-0.121819,-0.484324,-95.0089,0.171742,
2,1,0,1,0,62251.3,0.179582,0.179212,4.4061,32,0.0104295,10,0.000789626,-2.35595,-0.151757,-0.388779,-67.0885,0.179212,
2,1,0,1,0,62251.4,0.18707,0.186748,3.99649,32,0.0108227,10,0.000746339,-2.39832,-0.201491,-0.292817,-45.6896,0.186748,
2,1,0,1,0,62251.5,0.194559,0.194216,3.71837,32,0.0111835,10,0.000722168,-2.42965,-0.279127,-0.211373,-30.659,0.194216,
2,1,0,1,0,62251.6,0.202062,0.201726,3.51469,32,0.0115231,10,0.000709003,-2.45411,-0.365949,-0.161225,-22.1248,0.201726,
2,1,0,1,0,62251.7,0.20955,0.209206,3.38092,32,0.0118466,10,0.000707307,-2.47097,-0.427551,-0.137995,-18.2251,0.209206,
2,1,0,1,0,62251.8,0.217039,0.216689,3.2828,32,0.0121591,10,0.000711347,-2.48376,-0.694621,-0.0849384,-10.874,0.216689,
2,1,0,1,0,62251.9,0.224526,0.22419,3.20041,32,0.0124635,10,0.0007175,-2.49479,-0.83526,-0.0706367,-8.84008,0.22419,
2,1,0,1,0,62252,0.232016,0.231676,3.14658,32,0.0127616,10,0.000728986,-2.50216,-1.10407,-0.0534385,-6.55869,0.231676,
2,1,0,1,0,62252.1,0.23951,0.239146,3.10519,32,0.0130553,10,0.000742594,-2.50791,-1.55615,-0.0379141,-4.58629,0.239146,
2,1,0,1,0,62252.1,0.247006,0.246633,3.06177,32,0.013345,10,0.000755132,-2.51403,-2.20923,-0.0267061,-3.19223,0.2466325,
2,1,0,1,0,62252.2,0.254494,0.254127,3.02826,32,0.0136312,10,0.000769561,-2.51881,-1.40277,-0.0420596,-4.97165,0.254127,
2,1,0,1,0,62252.3,0.261983,0.261657,3.00308,32,0.0139145,10,0.000785775,-2.52243,-1.56307,-0.0377461,-4.42637,0.261657,
2,1,0,1,0,62252.4,0.26947,0.269133,2.97579,32,0.0141953,10,0.000800882,-2.5264,-5.79399,-0.010183,-1.18344,0.269133,
2,1,0,1,0,62252.5,0.276959,0.276602,2.95025,32,0.0144739,10,0.000816046,-2.53014,-1.75582,-0.0336026,-3.87435,0.276602,
2,1,0,1,0,62252.6,0.284461,0.284118,2.93229,32,0.0147507,10,0.000833114,-2.53279,-2.14877,-0.0274575,-3.13692,0.284118,
2,1,0,1,0,62252.7,0.29195,0.291615,2.90403,32,0.0150247,10,0.000846859,-2.537,-2.64678,-0.0222912,-2.52568,0.291615,
2,1,0,1,0,62252.8,0.299438,0.299084,2.87587,32,0.0152964,10,0.000860127,-2.54123,-0.0386304,-1.52729,-161.108,0.299084,
2,1,0,1,0,62252.9,0.29424,0.293899,0.0689329,32,0.0153925,10,2.02593e-05,-4.16157,0.0125403,4.70485,214.778,0.293899,
2,0,0,1,0,62253,0.286753,0.286401,-0.840303,32,0.0153476,10,-0.000240664,-3.07556,-0.0255233,-2.31161,73.877,0.286401,
2,0,0,1,0,62253.1,0.279264,0.278913,-1.2298,32,0.0152476,10,-0.000343008,-2.91016,-0.0773167,-0.763095,36.4412,0.2789129,
2,0,0,1,0,62253.2,0.271776,0.271452,-1.45993,32,0.0151201,10,-0.0003963,-2.83567,-0.117991,-0.500038,28.4095,0.271452,
2,0,0,1,0,62253.3,0.26428,0.263892,-1.62696,32,0.0149741,10,-0.000429341,-2.78862,-0.174061,-0.338961,21.4603,0.263892,
2,0,0,1,0,62253.4,0.256786,0.256465,-1.75688,32,0.0148143,10,-0.000450576,-2.75526,-0.296535,-0.198965,13.6391,0.256465,
2,0,0,1,0,62253.4,0.249296,0.248873,-1.87204,32,0.0146434,10,-0.0004659,-2.72768,-0.328584,-0.179558,13.1089,0.248873,
2,0,0,1,0,62253.5,0.241809,0.241434,-1.96227,32,0.0144628,10,-0.00047376,-2.70724,-0.35189,-0.167666,12.8654,0.241434,
2,0,0,1,0,62253.6,0.23432,0.233992,-2.0499,32,0.0142738,10,-0.000479659,-2.68827,-0.501966,-0.117538,9.42784,0.233992,
2,0,0,1,0,62253.7,0.226833,0.226517,-2.13526,32,0.0140769,10,-0.000483673,-2.67055,-0.452209,-0.130471,10.8663,0.226517,
2,0,0,1,0,62253.8,0.219329,0.218959,-2.21469,32,0.0138721,10,-0.000484927,-2.65469,-0.407286,-0.144861,12.494,0.218959,
2,0,0,1,0,62253.9,0.21184,0.211445,-2.28129,32,0.0136606,10,-0.000482367,-2.64182,-0.714274,-0.0826013,7.36288,0.211445,
2,0,0,1,0,62254,0.204353,0.203999,-2.3666,32,0.0134421,10,-0.000482785,-2.62587,-0.74437,-0.0792616,7.31128,0.203999,
2,0,0,1,0,62254.1,0.196863,0.19648,-2.43653,32,0.0132166,10,-0.000478729,-2.61323,-0.454634,-0.129775,12.3439,0.19648,
2,0,0,1,0,62254.2,0.189376,0.189006,-2.50725,32,0.012984,10,-0.000473885,-2.6008,-0.624039,-0.0945453,9.28858,0.189006,
2,0,0,1,0,62254.3,0.18188,0.181552,-2.59995,32,0.0127435,10,-0.000472026,-2.58503,-0.5151,-0.114541,11.6176,0.181552,
2,0,0,1,0,62254.4,0.174385,0.173989,-2.69757,32,0.0124945,10,-0.000469347,-2.56903,-0.366255,-0.16109,16.9596,0.173989,
2,0,0,1,0,62254.5,0.166896,0.166489,-2.80978,32,0.0122358,10,-0.000467796,-2.55133,-0.387698,-0.15218,16.6921,0.1664886,
2,0,0,1,0,62254.6,0.159409,0.159058,-2.96297,32,0.0119652,10,-0.000471283,-2.52827,-0.311574,-0.189361,21.8647,0.159058,
2,0,0,1,0,62254.7,0.151919,0.151567,-3.15997,32,0.0116786,10,-0.000478948,-2.50032,-0.207894,-0.283798,35.0335,0.151567,
2,0,0,1,0,62254.8,0.144425,0.144087,-3.46149,32,0.0113681,10,-0.000498754,-2.46074,-0.155621,-0.379126,51.4149,0.144087,
2,0,0,1,0,62254.8,0.136929,0.13656,-3.95639,32,0.0110208,10,-0.000540283,-2.4027,-0.115489,-0.510869,78.9546,0.13656,
2,0,0,1,0,62254.9,0.129441,0.129067,-4.63552,32,0.0106189,10,-0.000598292,-2.3339,-0.107871,-0.546948,98.7811,0.129067,
2,0,0,1,0,62255,0.121952,0.121596,-5.35775,32,0.0101503,10,-0.000651479,-2.27102,-0.128807,-0.458051,95.6552,0.121596,
2,0,0,1,0,62255.1,0.114465,0.114064,-6.02903,32,0.00961558,10,-0.000687695,-2.21975,-0.168771,-0.349587,82.1883,0.114064,
2,0,0,1,0,62255.2,0.106976,0.106644,-6.58127,32,0.00902343,10,-0.000701851,-2.18169,-0.232876,-0.253354,65.0174,0.106644,
2,0,0,1,0,62255.3,0.0994721,0.0991448,-6.96461,32,0.00838543,10,-0.000690505,-2.1571,-0.417463,-0.14133,38.3754,0.0991448,
2,0,0,1,0,62255.4,0.0919847,0.0916074,-7.1307,32,0.00772282,10,-0.000653225,-2.14687,-2.18303,-0.0270267,7.52019,0.0916074,
2,0,0,1,0,62255.5,0.0844974,0.0841964,-7.10531,32,0.00705418,10,-0.000598242,-2.14842,1.18952,0.0495998,-13.7417,0.0841964,
2,0,0,1,0,62255.6,0.0770082,0.0766255,-6.96229,32,0.00639472,10,-0.000533489,-2.15725,0.798845,0.0738566,-20.06,0.0766255,
2,0,0,1,0,62255.7,0.0695208,0.0691614,-6.80942,32,0.00574923,10,-0.000470949,-2.16689,0.78714,0.0749549,-19.9451,0.0691614,
2,0,0,1,0,62255.8,0.0620245,0.0616841,-6.69742,32,0.00511535,10,-0.000413125,-2.17409,0.954903,0.0617864,-16.145,0.0616841,
2,0,0,1,0,62255.9,0.0545282,0.0541693,-6.58211,32,0.00449235,10,-0.000356548,-2.18163,1.12117,0.0526235,-13.519,0.0541693,
2,0,0,1,0,62256,0.0470408,0.046667,-6.45154,32,0.00388129,10,-0.000301074,-2.19034,0.753533,0.0782979,-19.7133,0.046667,
2,0,0,1,0,62256.1,0.0395516,0.0391725,-6.31368,32,0.00328321,10,-0.000247322,-2.19972,0.658492,0.0895987,-22.0401,0.0391725,
2,0,0,1,0,62256.2,0.0320643,0.0317189,-6.13414,32,0.00269985,10,-0.000194568,-2.21225,0.586483,0.1006,-24.0804,0.0317189,
2,0,0,1,0,62256.3,0.0245751,0.0242438,-5.93373,32,0.00213369,10,-0.000143856,-2.22667,0.470043,0.12552,-29.0872,0.0242438,
2,0,0,1,0,62256.3,0.0170735,0.0167333,-5.72932,32,0.00158564,10,-9.58703e-05,-2.2419,0.466313,0.126525,-28.2892,0.0167333,
2,0,0,1,0,62256.4,0.00958429,0.00919243,-5.53836,32,0.00105776,10,-5.0911e-05,-2.25662,0.583986,0.10103,-21.8176,0.00919243,
2,0,0,1,0,62256.5,0.0020969,0.00166623,-5.40251,32,0.000546624,10,-9.00184e-06,-2.2674,0.789363,0.0747438,-15.6996,0.00166623,
2,0,0,1,0,62256.6,0.000199195,-0.000220343,-5.35143,32,0.000418907,10,1.17915e-06,-2.27153, , , ,-0.0002203433,

File: 20221101_1-115_003_TrumpetPlot_ParaChange_from10_every3_08_CV_C01_32.csv
mode,ox/red,error,control changes,counter inc.,time/s,control/V,Ewe/V,<I>/mA,cycle number,(Q-Qo)/C,I Range,P/W,log(|I|),Tafel slope mV/dec,alpha_eff,dI/d(E-IR),E-IR/V,
2,0,0,0,0,64219.2,2.44065e-05,-0.000287149,-3.95057,33,0.0000000E+000,10,1.1344e-06,-2.40334, , , ,-0.0002871489,
2,1,0,1,0,64219.3,0.0072942,0.00691013,0.371343,33,-0.000109884,10,2.56603e-06,-3.43022,0.00846923,6.96639,291.968,0.00691013,
2,1,0,1,0,64219.4,0.0147816,0.0143941,1.81288,33,2.76473e-06,10,2.60946e-05,-2.74163,0.0319928,1.84416,128.001,0.0143941,
2,1,0,1,0,64219.5,0.0222707,0.0219745,2.54051,33,0.00021082,10,5.58263e-05,-2.59508,0.0804564,0.733316,72.2743,0.0219745,
2,1,0,1,0,64219.6,0.0297581,0.0294267,3.00228,33,0.000472293,10,8.83471e-05,-2.52255,0.129954,0.454008,53.0628,0.0294267,
2,1,0,1,0,64219.7,0.0372544,0.0369344,3.3601,33,0.000772025,10,0.000124104,-2.47365,0.175719,0.335764,44.048,0.0369344,
2,1,0,1,0,64219.8,0.0447507,0.0444426,3.6889,33,0.00110368,10,0.000163944,-2.4331,0.214673,0.274836,39.5172,0.0444426,
2,1,0,1,0,64219.8,0.0522381,0.0519225,3.98703,33,0.00146405,10,0.000207016,-2.39935,0.221307,0.266598,41.4883,0.0519225,
2,1,0,1,0,64219.9,0.0597273,0.0594112,4.26942,33,0.00185173,10,0.000253651,-2.36963,0.265767,0.221999,36.9603,0.0594112,
2,1,0,1,0,64220,0.0672147,0.0669374,4.5388,33,0.002265,10,0.000303815,-2.34306,0.317782,0.185662,32.8256,0.0669374,
2,1,0,1,0,64220.1,0.0747038,0.0744186,4.77804,33,0.002702,10,0.000355575,-2.32075,0.353908,0.16671,31.0752,0.07441856,
2,1,0,1,0,64220.2,0.0822055,0.0818616,4.9854,33,0.00316135,10,0.000408113,-2.3023,0.413684,0.142621,27.7654,0.0818616,
2,1,0,1,0,64220.3,0.0896946,0.089412,5.1814,33,0.00363846,10,0.000463279,-2.28555,0.525386,0.112298,22.7105,0.089412,
2,1,0,1,0,64220.4,0.097182,0.0968547,5.38218,33,0.00413372,10,0.000521289,-2.26904,0.380041,0.155246,32.6333,0.0968547,
2,1,0,1,0,64220.5,0.104671,0.104341,5.65909,33,0.00465074,10,0.000590477,-2.24725,0.286436,0.20598,45.5119,0.104341,
2,1,0,1,0,64220.6,0.112159,0.111853,6.03084,33,0.00519843,10,0.000674565,-2.21962,0.273229,0.215936,50.8447,0.111853,
2,1,0,1,0,64220.7,0.119655,0.119359,6.45071,33,0.00578416,10,0.000769949,-2.19039,0.272564,0.216463,54.4186,0.119359,
2,1,0,1,0,64220.8,0.127149,0.126831,6.80027,33,0.00640682,10,0.000862482,-2.16747,0.373588,0.157928,41.8996,0.126831,
2,1,0,1,0,64220.9,0.134639,0.134303,7.04638,33,0.00705715,10,0.000946347,-2.15203,0.706137,0.0835531,22.9795,0.134303,
2,1,0,1,0,64221,0.142126,0.141835,7.18613,33,0.0077253,10,0.00101924,-2.1435,1.96429,0.0300363,8.40844,0.141835,
2,1,0,1,0,64221.1,0.149615,0.149266,7.08594,33,0.00839685,10,0.00105769,-2.1496,-0.438487,-0.134554,-37.1446,0.149266,
2,1,0,1,0,64221.2,0.157103,0.156812,6.57299,33,0.00904096,10,0.00103072,-2.18224,-0.155825,-0.378629,-96.9668,0.156812,
2,1,0,1,0,64221.2,0.164606,0.164306,5.75048,33,0.00962111,10,0.000944838,-2.2403,-0.114645,-0.514633,-115.235,0.164306,
2,1,0,1,0,64221.3,0.172095,0.171763,4.93984,33,0.0101208,10,0.000848481,-2.30629,-0.125774,-0.469094,-90.6105,0.171763,
2,1,0,1,0,64221.4,0.179582,0.179214,4.35711,33,0.0105556,10,0.000780854,-2.3608,-0.149825,-0.393793,-67.1709,0.179214,
2,1,0,1,0,64221.5,0.18707,0.18674,3.97081,33,0.0109451,10,0.000741508,-2.40112,-0.213292,-0.276616,-42.831,0.18674,
2,1,0,1,0,64221.6,0.194559,0.19421,3.6932,33,0.0113037,10,0.000717254,-2.4326,-0.297155,-0.198549,-28.6278,0.19421,
2,1,0,1,0,64221.7,0.202062,0.201726,3.49877,33,0.0116416,10,0.000705792,-2.45608,-0.360099,-0.163844,-22.3918,0.201726,
2,1,0,1,0,64221.8,0.20955,0.209231,3.37372,33,0.0119639,10,0.000705885,-2.47189,-0.439842,-0.134139,-17.6454,0.209231,
2,1,0,1,0,64221.9,0.217039,0.216698,3.26808,33,0.0122752,10,0.000708185,-2.48571,-0.864775,-0.0682259,-8.70838,0.2166978,
2,1,0,1,0,64222,0.224526,0.224198,3.19042,33,0.0125787,10,0.000715287,-2.49615,-0.681681,-0.0865508,-10.795,0.224198,
2,1,0,1,0,64222.1,0.232016,0.231665,3.13944,33,0.0128759,10,0.000727297,-2.50315,-1.06215,-0.0555478,-6.80393,0.231665,
2,1,0,1,0,64222.2,0.23951,0.239174,3.09211,33,0.0131688,10,0.000739554,-2.50974,-2.52992,-0.0233209,-2.81612,0.2391741,
2,1,0,1,0,64222.3,0.247006,0.246652,3.05511,33,0.013458,10,0.000753549,-2.51497,-1.34663,-0.043813,-5.21986,0.246652,
2,1,0,1,0,64222.4,0.254494,0.254183,3.02577,33,0.0137436,10,0.000769097,-2.51916,-1.28592,-0.0458816,-5.41686,0.254183,
2,1,0,1,0,64222.5,0.261983,0.261644,2.99926,33,0.0140266,10,0.000784738,-2.52299,-2.30464,-0.0256006,-2.99568,0.261644,
2,1,0,1,0,64222.6,0.26947,0.269126,2.97195,33,0.0143072,10,0.00079983,-2.52696,-2.00455,-0.0294331,-3.41747,0.269126,
2,1,0,1,0,64222.7,0.276959,0.276647,2.95317,33,0.0145856,10,0.000816986,-2.52971,-3.011,-0.0195948,-2.25628,0.276647,
2,1,0,1,0,64222.7,0.284461,0.284159,2.92754,33,0.0148623,10,0.000831888,-2.5335,-6.72032,-0.00877934,-1.00278,0.284159,
2,1,0,1,0,64222.8,0.29195,0.291656,2.89992,33,0.0151361,10,0.000845781,-2.53761,-2.35038,-0.0251023,-2.8431,0.291656,
2,1,0,1,0,64222.9,0.299438,0.29911,2.88117,33,0.0154077,10,0.000861787,-2.54043,-0.0348073,-1.69505,-177.904,0.29911,
2,1,0,1,0,64223,0.29424,0.293935,-0.00146784,33,0.015499,10,-4.3145e-07,-5.83332,0.025278,2.33405,216.501,0.293935,
2,0,0,1,0,64223.1,0.286753,0.286389,-0.894888,33,0.0154479,10,-0.000256286,-3.04823,-0.029552,-1.99648,68.5901,0.286389,
2,0,0,1,0,64223.2,0.279264,0.278905,-1.27905,33,0.0153431,10,-0.000356734,-2.89311,-0.0814958,-0.723964,35.9407,0.278905,
2,0,0,1,0,64223.3,0.271776,0.271429,-1.49463,33,0.0152116,10,-0.000405686,-2.82547,-0.121135,-0.487058,28.4764,0.271429,
2,0,0,1,0,64223.4,0.26428,0.263959,-1.65772,33,0.0150622,10,-0.00043757,-2.78049,-0.19711,-0.299326,19.3832,0.263959,
2,0,0,1,0,64223.5,0.256786,0.256473,-1.79311,33,0.0148993,10,-0.000459884,-2.74639,-0.288148,-0.204756,14.2867,0.256473,
2,0,0,1,0,64223.6,0.249296,0.248912,-1.90084,33,0.0147256,10,-0.000473142,-2.72105,-0.325889,-0.181043,13.3978,0.2489121,
2,0,0,1,0,64223.7,0.241809,0.241476,-1.98591,33,0.0145425,10,-0.000479549,-2.70204,-0.400842,-0.14719,11.4342,0.241476,
2,0,0,1,0,64223.8,0.23432,0.234004,-2.07758,33,0.014351,10,-0.000486161,-2.68244,-0.513651,-0.114864,9.33162,0.234004,
2,0,0,1,0,64223.9,0.226833,0.226521,-2.15639,33,0.0141516,10,-0.000488467,-2.66627,-0.393891,-0.149788,12.6149,0.226521,
2,0,0,1,0,64223.9,0.219329,0.219004,-2.2366,33,0.0139445,10,-0.000489824,-2.65041,-0.484104,-0.121875,10.6356,0.219004,
2,0,0,1,0,64224,0.21184,0.21152,-2.31113,33,0.0137308,10,-0.000488849,-2.63618,-0.644894,-0.0914879,8.24288,0.2115197,
2,0,0,1,0,64224.1,0.204353,0.204021,-2.38567,33,0.01351,10,-0.000486727,-2.62239,-0.581067,-0.101537,9.46106,0.204021,
2,0,0,1,0,64224.2,0.196863,0.19653,-2.45202,33,0.0132823,10,-0.000481896,-2.61048,-0.574094,-0.102771,9.86127,0.19653,
2,0,0,1,0,64224.3,0.189376,0.18902,-2.5396,33,0.0130473,10,-0.000480034,-2.59523,-0.646828,-0.0912143,9.04618,0.1890195,
2,0,0,1,0,64224.4,0.18188,0.181562,-2.62583,33,0.0128045,10,-0.000476752,-2.58073,-0.399278,-0.147767,15.1511,0.181562,
2,0,0,1,0,64224.5,0.174385,0.174023,-2.71908,33,0.012553,10,-0.000473182,-2.56558,-0.440728,-0.133869,14.2369,0.174023,
2,0,0,1,0,64224.6,0.166896,0.166549,-2.8425,33,0.0122918,10,-0.000473414,-2.5463,-0.421654,-0.139925,15.5012,0.166549,
2,0,0,1,0,64224.7,0.159409,0.159077,-2.99148,33,0.0120182,10,-0.000475877,-2.52411,-0.290815,-0.202878,23.6762,0.159077,
2,0,0,1,0,64224.8,0.151919,0.151567,-3.19463,33,0.011728,10,-0.0004842,-2.49558,-0.210545,-0.280225,35.0622,0.151567,
2,0,0,1,0,64224.9,0.144425,0.144121,-3.52586,33,0.0114131,10,-0.000508151,-2.45274,-0.154741,-0.381282,52.5577,0.144121,
2,0,0,1,0,64225,0.136929,0.136612,-4.04321,33,0.0110594,10,-0.000552349,-2.39327,-0.111072,-0.531185,83.8883,0.136612,
2,0,0,1,0,64225.1,0.129441,0.129086,-4.73787,33,0.0106485,10,-0.000611592,-2.32442,-0.107121,-0.550777,101.844,0.129086,
2,0,0,1,0,64225.2,0.121952,0.121617,-5.48668,33,0.0101687,10,-0.000667272,-2.26069,-0.136783,-0.431341,92.1755,0.121617,
2,0,0,1,0,64225.3,0.114465,0.114129,-6.1645,33,0.00962203,10,-0.000703548,-2.2101,-0.175884,-0.335448,80.5215,0.114129,
2,0,0,1,0,64225.4,0.106976,0.10667,-6.69867,33,0.00901806,10,-0.000714549,-2.17401,-0.24033,-0.245496,64.1271,0.10667,
2,0,0,1,0,64225.4,0.0994721,0.0991629,-7.06365,33,0.00836975,10,-0.000700452,-2.15097,-0.51815,-0.113867,31.3442,0.0991629,
2,0,0,1,0,64225.5,0.0919847,0.0916585,-7.19842,33,0.0076998,10,-0.000659796,-2.14276,-5.25123,-0.0112355,3.15296,0.0916585,
2,0,0,1,0,64225.6,0.0844974,0.0841937,-7.12559,33,0.00702744,10,-0.000599929,-2.14718,1.04967,0.0562081,-15.6149,0.0841937,
2,0,0,1,0,64225.7,0.0770082,0.0766235,-6.96635,33,0.00636677,10,-0.000533786,-2.15699,0.663189,0.0889641,-24.1876,0.0766235,
2,0,0,1,0,64225.8,0.0695208,0.0691907,-6.82272,33,0.00572099,10,-0.000472069,-2.16604,0.80471,0.0733183,-19.514,0.0691907,
2,0,0,1,0,64225.9,0.0620245,0.0616818,-6.70115,33,0.00508687,10,-0.000413339,-2.17385,1.05629,0.0558557,-14.6088,0.0616818,
2,0,0,1,0,64226,0.0545282,0.0541771,-6.57751,33,0.00446375,10,-0.000356351,-2.18194,0.929544,0.063472,-16.2998,0.0541771,
2,0,0,1,0,64226.1,0.0470408,0.0466564,-6.44809,33,0.00385292,10,-0.000300845,-2.19057,0.756649,0.0779754,-19.6122,0.0466564,
2,0,0,1,0,64226.2,0.0395516,0.0392038,-6.30029,33,0.00325554,10,-0.000246996,-2.20064,0.750165,0.0786494,-19.3239,0.03920383,
2,0,0,1,0,64226.3,0.0320643,0.0317165,-6.11552,33,0.0026734,10,-0.000193963,-2.21357,0.509787,0.115735,-27.6169,0.0317165,
2,0,0,1,0,64226.4,0.0245751,0.0241882,-5.91696,33,0.00210919,10,-0.000143121,-2.2279,0.457623,0.128927,-29.7462,0.0241882,
2,0,0,1,0,64226.5,0.0170735,0.0167653,-5.70488,33,0.00156339,10,-9.56442e-05,-2.24375,0.525601,0.112253,-24.9953,0.0167653,
2,0,0,1,0,64226.6,0.00958429,0.00927287,-5.50535,33,0.00103775,10,-5.10504e-05,-2.25922,0.547167,0.107828,-23.1912,0.00927287,
2,0,0,1,0,64226.7,0.0020969,0.00171975,-5.39531,33,0.000528368,10,-9.27856e-06,-2.26798,0.835397,0.0706251,-14.794,0.001719746,
2,0,0,1,0,64226.7,0.000199195,-0.000208891,-5.33833,33,0.000400935,10,1.11513e-06,-2.27259, , , ,-0.0002088909,