Folder: Figs_alphaMnO2_OER_Tafel_sleope/Figure_codes/Fig_3-5/rawdata_trumpetplot_data/after 10th (part 157)

File: 20221101_1-115_003_TrumpetPlot_ParaChange_from10_every3_11_CV_C01_0.csv
mode,ox/red,error,control changes,counter inc.,time/s,control/V,Ewe/V,<I>/mA,cycle number,(Q-Qo)/C,I Range,P/W,log(|I|),Tafel slope mV/dec,alpha_eff,dI/d(E-IR),E-IR/V,
2,1,0,0,0,1194.52,2.44065e-05,-0.000287149,10.4854,1,0.0000000E+000,10,-3.01089e-06,-1.97941, , , ,-0.0002871489,
2,1,0,1,0,1194.55,0.0101427,0.0097496,15.5832,1,0.000338612,10,0.00015193,-1.80734,0.11068,0.533066,321.316,0.0097496,
2,1,0,1,0,1194.57,0.0205441,0.0201914,17.9866,1,0.000778606,10,0.000363174,-1.74505,0.248575,0.237353,166.179,0.02019142,
2,1,0,1,0,1194.6,0.0309482,0.0306757,19.3506,1,0.00126542,10,0.000593594,-1.7133,0.410272,0.143807,108.523,0.0306757,
2,1,0,1,0,1194.62,0.0413439,0.0410061,20.378,1,0.00178224,10,0.000835622,-1.69084,0.499325,0.118159,93.9101,0.0410061,
2,1,0,1,0,1194.65,0.0517425,0.0514055,21.4054,1,0.0023254,10,0.00110035,-1.66948,0.457508,0.128959,107.873,0.0514055,
2,1,0,1,0,1194.68,0.0621438,0.061823,22.6491,1,0.00289792,10,0.00140023,-1.64495,0.387291,0.15234,134.801,0.061823,
2,1,0,1,0,1194.7,0.0725479,0.0722118,24.1589,1,0.00350626,10,0.00174456,-1.61692,0.369542,0.159657,150.474,0.07221178,
2,1,0,1,0,1194.73,0.0829437,0.0825698,25.7884,1,0.00415516,10,0.00212934,-1.58858,0.347327,0.169869,171.012,0.0825698,
2,1,0,1,0,1194.75,0.0933422,0.0930116,27.599,1,0.00484955,10,0.00256703,-1.55911,0.367946,0.16035,172.738,0.0930116,
2,1,0,1,0,1194.78,0.103749,0.103428,29.4006,1,0.00559057,10,0.00304085,-1.53164,0.386614,0.152607,175.08,0.103428,
2,1,0,1,0,1194.81,0.114148,0.113856,31.2514,1,0.00637893,10,0.00355816,-1.50513,0.390182,0.151211,184.382,0.113856,
2,1,0,1,0,1194.83,0.124543,0.124216,33.3058,1,0.00721758,10,0.00413712,-1.47748,0.357623,0.164978,214.53,0.124216,
2,1,0,1,0,1194.86,0.134942,0.134575,35.7667,1,0.00811483,10,0.00481331,-1.44652,0.317373,0.185901,259.631,0.134575,
2,1,0,1,0,1194.88,0.145349,0.145003,38.5564,1,0.00908077,10,0.00559081,-1.4139,0.326157,0.180895,271.953,0.145003,
2,1,0,1,0,1194.91,0.155747,0.155434,41.2752,1,0.010119,10,0.00641555,-1.38431,0.376533,0.156693,252.261,0.155434,
2,1,0,1,0,1194.94,0.166143,0.165813,43.6323,1,0.0112245,10,0.0072348,-1.36019,0.519063,0.113666,193.428,0.165813,
2,1,0,1,0,1194.96,0.176542,0.176187,45.0296,1,0.0123808,10,0.00793362,-1.3465,2.37814,0.0248093,43.4905,0.176187,
2,1,0,1,0,1194.99,0.186949,0.186624,44.0115,1,0.0135454,10,0.00821362,-1.35643,-0.367488,-0.16055,-274.523,0.186624,
2,1,0,1,0,1195.01,0.197347,0.197045,39.1307,1,0.0146344,10,0.0077105,-1.40748,-0.139971,-0.421515,-641.053,0.197045,
2,1,0,1,0,1195.04,0.207743,0.207471,31.6215,1,0.0155554,10,0.00656054,-1.50002,-0.0996803,-0.591892,-729.884,0.207471,
2,1,0,1,0,1195.07,0.218141,0.217835,24.932,1,0.0162851,10,0.00543106,-1.60324,-0.111306,-0.530069,-517.712,0.217835,
2,1,0,1,0,1195.09,0.228548,0.228238,20.7768,1,0.0168735,10,0.00474205,-1.68242,-0.163956,-0.359853,-292.778,0.228238,
2,1,0,1,0,1195.12,0.238947,0.238632,18.5471,1,0.0173812,10,0.00442593,-1.73172,-0.278907,-0.21154,-153.349,0.238632,
2,1,0,1,0,1195.14,0.249343,0.249038,17.3105,1,0.0178458,10,0.00431097,-1.76169,-0.440486,-0.133943,-90.5949,0.249038,
2,1,0,1,0,1195.17,0.259741,0.259451,16.5313,1,0.0182851,10,0.00428907,-1.78169,-0.60557,-0.0974289,-62.8977,0.259451,
2,1,0,1,0,1195.2,0.270148,0.269841,15.9763,1,0.0187074,10,0.00431105,-1.79652,-0.825122,-0.0715046,-44.6115,0.269841,
2,1,0,1,0,1195.22,0.280547,0.280245,15.5397,1,0.0191168,10,0.00435493,-1.80856,-0.90826,-0.0649594,-39.3756,0.280245,
2,1,0,1,0,1195.25,0.290942,0.290634,15.1514,1,0.0195155,10,0.00440352,-1.81955,-0.949932,-0.0621097,-36.7045,0.290634,
2,1,0,1,0,1195.27,0.300012,0.299823,14.8454,1,0.019856,10,0.004451,-1.82841,0.000775076,76.1216,35485.6,0.299823,
2,1,0,1,0,1195.29,0.290704,0.290407,-0.217731,1,0.0199865,10,-6.32308e-05,-3.66208,0.0666864,0.884738,827.017,0.290407,
2,0,0,1,0,1195.32,0.280305,0.279998,-5.20811,1,0.0199039,10,-0.00145826,-2.28332,-0.0416019,-1.41821,279.134,0.279998,
2,0,0,1,0,1195.35,0.269909,0.269596,-7.15917,1,0.0197397,10,-0.00193008,-2.14514,-0.125114,-0.471568,130.933,0.269596,
2,0,0,1,0,1195.37,0.2595,0.259252,-8.23604,1,0.0195384,10,-0.00213521,-2.08428,-0.221685,-0.266143,85.2928,0.259252,
2,0,0,1,0,1195.4,0.249104,0.248763,-8.99794,1,0.019314,10,-0.00223836,-2.04586,-0.32203,-0.183213,64.2127,0.248763,
2,0,0,1,0,1195.42,0.238705,0.238362,-9.62846,1,0.0190716,10,-0.00229505,-2.01644,-0.388175,-0.151993,57.1397,0.238362,
2,0,0,1,0,1195.45,0.22831,0.228018,-10.197,1,0.0188137,10,-0.0023251,-1.99153,-0.426828,-0.138229,55.0689,0.228018,
2,0,0,1,0,1195.48,0.2179,0.217581,-10.7887,1,0.0185409,10,-0.00234742,-1.96703,-0.457958,-0.128833,54.1054,0.2175808,
2,0,0,1,0,1195.5,0.207504,0.207206,-11.346,1,0.0182533,10,-0.00235096,-1.94516,-0.455838,-0.129432,57.4261,0.207206,
2,0,0,1,0,1195.53,0.197106,0.196825,-12.006,1,0.0179497,10,-0.00236309,-1.9206,-0.401955,-0.146783,68.8311,0.196825,
2,0,0,1,0,1195.55,0.18671,0.186379,-12.7891,1,0.0176277,10,-0.00238363,-1.89316,-0.340066,-0.173496,86.5624,0.186379,
2,0,0,1,0,1195.58,0.1763,0.176002,-13.7972,1,0.0172827,10,-0.00242833,-1.86021,-0.281898,-0.209295,112.805,0.176002,
2,0,0,1,0,1195.61,0.165905,0.165599,-15.2097,1,0.0169065,10,-0.0025187,-1.81788,-0.218624,-0.26987,160.475,0.1655986,
2,0,0,1,0,1195.63,0.155506,0.155207,-17.2554,1,0.016486,10,-0.00267815,-1.76307,-0.166935,-0.35343,238.336,0.155207,
2,0,0,1,0,1195.66,0.145105,0.14482,-20.1829,1,0.0160011,10,-0.00292289,-1.69502,-0.138764,-0.425183,335.804,0.14482,
2,0,0,1,0,1195.68,0.134701,0.134415,-24.2092,1,0.0154255,10,-0.00325408,-1.61602,-0.130422,-0.452377,427.464,0.134415,
2,0,0,1,0,1195.71,0.124305,0.124034,-28.8652,1,0.0147358,10,-0.00358026,-1.53963,-0.146774,-0.40198,451.961,0.124034,
2,0,0,1,0,1195.74,0.113906,0.113669,-33.4845,1,0.0139247,10,-0.00380616,-1.47516,-0.181453,-0.325154,424.394,0.113669,
2,0,0,1,0,1195.76,0.103505,0.103288,-37.4665,1,0.013,10,-0.00386984,-1.42636,-0.250383,-0.235639,344.126,0.103288,
2,0,0,1,0,1195.79,0.0931008,0.092825,-40.5292,1,0.0119833,10,-0.00376212,-1.39223,-0.392741,-0.150226,237.226,0.09282501,
2,0,0,1,0,1195.81,0.0827051,0.0824044,-42.2557,1,0.0109038,10,-0.00348206,-1.37411,-1.05973,-0.0556747,91.6192,0.0824044,
2,0,0,1,0,1195.84,0.0723065,0.0720198,-42.4231,1,0.00979954,10,-0.0030553,-1.3724,1.65525,0.0356441,-58.9268,0.0720198,
2,0,0,1,0,1195.87,0.0618996,0.06156,-41.185,1,0.00871026,10,-0.00253535,-1.38526,0.571549,0.103228,-165.808,0.06156,
2,0,0,1,0,1195.89,0.0515011,0.0511882,-39.2644,1,0.00766427,10,-0.00200987,-1.406,0.473852,0.124511,-190.675,0.0511882,
2,0,0,1,0,1195.92,0.0411053,0.0407972,-37.3154,1,0.00666934,10,-0.00152236,-1.42811,0.465427,0.126765,-184.655,0.0407972,
2,0,0,1,0,1195.94,0.0307068,0.0303851,-35.4523,1,0.00572322,10,-0.00107722,-1.45036,0.446723,0.132073,-182.85,0.0303851,
2,0,0,1,0,1195.97,0.0202999,0.0199422,-33.4437,1,0.00482707,10,-0.000666942,-1.47569,0.361498,0.16321,-212.696,0.0199422,
2,0,0,1,0,1196,0.00990136,0.00963719,-31.0103,1,0.0039889,10,-0.000298853,-1.50849,0.288331,0.204626,-247.433,0.00963719,
2,0,0,1,0,1196.02,-0.000494411,-0.000877796,-28.5035,1,0.00321631,10,2.50203e-05,-1.5451,0.298004,0.197984,-220.188,-0.000877796,
2,0,0,1,0,1196.05,-0.010893,-0.0112284,-26.4661,1,0.00250359,10,0.000297172,-1.57731,0.393076,0.150098,-155.262,-0.0112284,
2,0,0,1,0,1196.07,-0.0212998,-0.0216787,-25.2372,1,0.00183334,10,0.000547111,-1.59796,0.701703,0.0840812,-82.8719,-0.0216787,
2,0,0,1,0,1196.1,-0.0316984,-0.0320347,-24.6598,1,0.00118604,10,0.000789968,-1.60801,1.91424,0.0308216,-29.6833,-0.0320347,
2,0,0,1,0,1196.13,-0.0420942,-0.0424627,-24.572,1,0.000546807,10,0.00104339,-1.60956,-6.34935,-0.00929229,8.92105,-0.0424627,
2,0,0,1,0,1196.15,-0.0524927,-0.0528346,-24.8165,1,-9.48436e-05,10,0.00131117,-1.60526,-1.64615,-0.0358413,34.7325,-0.0528346,
2,0,0,1,0,1196.18,-0.0628996,-0.0632361,-25.2874,1,-0.00074571,10,0.00159908,-1.5971,-1.11057,-0.0531258,52.402,-0.0632361,
2,0,0,1,0,1196.2,-0.0732982,-0.0736196,-25.8847,1,-0.00141056,10,0.00190562,-1.58696,-0.897995,-0.0657019,66.4061,-0.0736196,
2,0,0,1,0,1196.23,-0.0836939,-0.0840667,-26.6472,1,-0.00209325,10,0.00224014,-1.57435,-0.762839,-0.0773427,80.4428,-0.0840667,
2,0,0,1,0,1196.26,-0.0940925,-0.0944354,-27.5457,1,-0.00279743,10,0.00260128,-1.55995,-0.686326,-0.085965,92.3901,-0.0944354,
2,0,0,1,1,1196.28,-0.0978574,-0.0982942,-22.1482,1,-0.00334884,10,0.00217704,-1.65466,-0.020946,-2.81677,2320.59,-0.0982942,
2,0,0,1,1,1196.3,-0.0874588,-0.0878916,-4.57854,1,-0.00366933,10,0.000402415,-2.33927,-0.00670501,-8.79939,1226.31,-0.0878916,
2,1,0,1,1,1196.33,-0.077052,-0.0774455,5.32744,1,-0.00364775,10,-0.000412587,-2.27348,0.0148146,3.98255,740.937,-0.0774455,
2,1,0,1,1,1196.35,-0.0666562,-0.0670748,11.5411,1,-0.00342208,10,-0.000774115,-1.93775,0.0553636,1.06568,472.891,-0.0670748,
2,1,0,1,1,1196.38,-0.0562576,-0.0566446,15.5264,1,-0.00306585,10,-0.000879486,-1.80893,0.118873,0.496328,299.045,-0.0566446,
2,1,0,1,1,1196.41,-0.0458563,-0.046242,18.0069,1,-0.00262712,10,-0.000832676,-1.74456,0.221887,0.265901,186.27,-0.04624201,
2,1,0,1,1,1196.43,-0.0354522,-0.0358203,19.5162,1,-0.00213748,10,-0.000699076,-1.70961,0.40373,0.146137,111.096,-0.0358203,
2,1,0,1,1,1196.46,-0.0250564,-0.025404,20.3639,1,-0.00161777,10,-0.000517324,-1.69114,0.84182,0.0700863,55.6359,-0.02540395,
2,1,0,1,1,1196.48,-0.0146579,-0.0150257,20.7639,1,-0.00108238,10,-0.000311993,-1.68269,2.06353,0.0285917,23.1378,-0.0150257,
2,1,0,1,1,1196.51,-0.00425653,-0.00462103,20.8462,1,-0.000540976,10,-9.63309e-05,-1.68097,-25.4837,-0.00231521,-1.88404,-0.00462103,
2,1,0,1,1,1196.52,-7.54729e-05,-0.000382585,20.8362,1,-0.000322069,10,-7.97164e-06,-1.68118, , , ,-0.000382585,

File: 20221101_1-115_003_TrumpetPlot_ParaChange_from10_every3_11_CV_C01_1.csv
mode,ox/red,error,control changes,counter inc.,time/s,control/V,Ewe/V,<I>/mA,cycle number,(Q-Qo)/C,I Range,P/W,log(|I|),Tafel slope mV/dec,alpha_eff,dI/d(E-IR),E-IR/V,
2,1,0,1,0,3164.65,2.44065e-05,-0.000344411,10.2972,2,0.0000000E+000,10,-3.54646e-06,-1.98728, , , ,-0.000344411,
2,1,0,1,0,3164.68,0.0101427,0.00979626,15.1488,2,0.000330504,10,0.000148402,-1.81962,0.11243,0.524773,307.941,0.00979626,
2,1,0,1,0,3164.7,0.0205441,0.0202413,17.5495,2,0.000758898,10,0.000355225,-1.75573,0.231675,0.254667,173.886,0.0202413,
2,1,0,1,0,3164.73,0.0309482,0.0305834,19.0121,2,0.00123544,10,0.000581453,-1.72097,0.363577,0.162277,120.259,0.0305834,
2,1,0,1,0,3164.75,0.0413439,0.0410369,20.1784,2,0.00174519,10,0.000828057,-1.69511,0.433449,0.136118,107.183,0.0410369,
2,1,0,1,0,3164.78,0.0517425,0.0513833,21.3463,2,0.0022849,10,0.00109684,-1.67068,0.413832,0.14257,118.833,0.0513833,
2,1,0,1,0,3164.81,0.0621438,0.0617912,22.6817,2,0.00285685,10,0.00140153,-1.64432,0.38428,0.153534,135.861,0.0617912,
2,1,0,1,0,3164.83,0.0725479,0.0721895,24.1531,2,0.00346566,10,0.0017436,-1.61703,0.378602,0.155836,146.899,0.0721895,
2,1,0,1,0,3164.86,0.0829437,0.0826016,25.7553,2,0.00411415,10,0.00212743,-1.58913,0.367858,0.160388,161.24,0.0826016,
2,1,0,1,0,3164.88,0.0933422,0.0929947,27.4199,2,0.00480566,10,0.00254991,-1.56193,0.393285,0.150018,160.434,0.09299469,
2,1,0,1,0,3164.91,0.103749,0.103383,29.0587,2,0.00553993,10,0.00300419,-1.53672,0.424899,0.138856,157.509,0.103383,
2,1,0,1,0,3164.94,0.114148,0.113831,30.7533,2,0.00631752,10,0.00350067,-1.51211,0.411361,0.143426,172.22,0.1138306,
2,1,0,1,0,3164.96,0.124543,0.124236,32.6952,2,0.00714196,10,0.00406194,-1.48552,0.371967,0.158616,202.439,0.124236,
2,1,0,1,0,3164.99,0.134942,0.134604,34.9846,2,0.00802148,10,0.00470907,-1.45612,0.344744,0.171142,233.849,0.134604,
2,1,0,1,0,3165.01,0.145349,0.145036,37.5322,2,0.00896438,10,0.00544354,-1.4256,0.357543,0.165015,241.57,0.145036,
2,1,0,1,0,3165.04,0.155747,0.155418,39.9558,2,0.00997219,10,0.00620984,-1.39842,0.418293,0.14105,219.728,0.155418,
2,1,0,1,0,3165.07,0.166143,0.165781,41.9451,2,0.0110384,10,0.0069537,-1.37732,0.629947,0.0936587,153.145,0.165781,
2,1,0,1,0,3165.09,0.176542,0.176239,42.8848,2,0.0121449,10,0.00755796,-1.3677,-26.0813,-0.00226215,-3.77691,0.176239,
2,1,0,1,0,3165.12,0.186949,0.186615,41.3798,2,0.0132472,10,0.00772209,-1.38321,-0.303828,-0.194189,-312.135,0.186615,
2,1,0,1,0,3165.14,0.197347,0.197041,36.3491,2,0.0142641,10,0.00716226,-1.43951,-0.13468,-0.438076,-618.916,0.197041,
2,1,0,1,0,3165.17,0.207743,0.207488,29.491,2,0.0151194,10,0.00611903,-1.53031,-0.106679,-0.553063,-636.639,0.207488,
2,1,0,1,0,3165.2,0.218141,0.21781,23.8082,2,0.0158072,10,0.00518565,-1.62327,-0.128525,-0.459053,-428.62,0.21781,
2,1,0,1,0,3165.22,0.228548,0.22823,20.3753,2,0.0163771,10,0.00465027,-1.6909,-0.189931,-0.31064,-247.479,0.22823,
2,1,0,1,0,3165.25,0.238947,0.238618,18.4188,2,0.0168788,10,0.00439506,-1.73474,-0.302331,-0.19515,-140.467,0.238618,
2,1,0,1,0,3165.27,0.249343,0.249017,17.2594,2,0.0173415,10,0.00429787,-1.76298,-0.445831,-0.132337,-89.3475,0.249017,
2,1,0,1,0,3165.3,0.259741,0.259416,16.511,2,0.01778,10,0.00428322,-1.78223,-0.622867,-0.0947232,-61.062,0.259416,
2,1,0,1,0,3165.33,0.270148,0.269858,15.9614,2,0.0182017,10,0.00430731,-1.79693,-0.782333,-0.0754155,-46.9475,0.269858,
2,1,0,1,0,3165.35,0.280547,0.280229,15.498,2,0.0186103,10,0.00434299,-1.80972,-0.87379,-0.067522,-40.8529,0.280229,
2,1,0,1,0,3165.38,0.290942,0.290613,15.1124,2,0.019008,10,0.00439187,-1.82067,-1.05347,-0.0560054,-33.0292,0.290613,
2,1,0,0,0,3165.4,0.300012,0.299727,14.813,2,0.0193476,10,0.00443986,-1.82936,0.000898968,65.6308,30921.6,0.299727,
2,1,0,1,0,3165.42,0.290704,0.290431,0.462999,2,0.0194882,10,0.000134469,-3.33442,0.019926,2.96096,804.559,0.290431,
2,0,0,1,0,3165.45,0.280305,0.279992,-4.57391,2,0.0194233,10,-0.00128066,-2.33971,-0.0348023,-1.69529,290.366,0.279992,
2,0,0,1,0,3165.48,0.269909,0.2696,-6.65572,2,0.0192741,10,-0.00179438,-2.17681,-0.10653,-0.553837,142.56,0.2696,
2,0,0,1,0,3165.5,0.2595,0.259224,-7.79644,2,0.0190849,10,-0.00202102,-2.1081,-0.194561,-0.303247,92.1754,0.259224,
2,0,0,1,0,3165.53,0.249104,0.248788,-8.61466,2,0.0188709,10,-0.00214322,-2.06476,-0.288822,-0.204278,68.5669,0.248788,
2,0,0,1,0,3165.55,0.238705,0.238426,-9.27341,2,0.0186382,10,-0.00221102,-2.03276,-0.35707,-0.165234,59.7587,0.238426,
2,0,0,1,0,3165.58,0.22831,0.227938,-9.83955,2,0.0183894,10,-0.00224281,-2.00702,-0.409704,-0.144006,55.4058,0.227938,
2,0,0,1,0,3165.61,0.2179,0.217621,-10.4177,2,0.0181258,10,-0.00226711,-1.98223,-0.440203,-0.134029,54.4243,0.217621,
2,0,0,1,0,3165.63,0.207504,0.207212,-10.9737,2,0.0178478,10,-0.00227388,-1.95965,-0.460782,-0.128043,54.853,0.207212,
2,0,0,1,0,3165.66,0.197106,0.196802,-11.566,2,0.0175546,10,-0.00227622,-1.93682,-0.438072,-0.134681,60.9029,0.196802,
2,0,0,1,0,3165.68,0.18671,0.186356,-12.2617,2,0.0172448,10,-0.00228504,-1.91145,-0.380397,-0.155101,74.3473,0.186356,
2,0,0,1,0,3165.71,0.1763,0.175968,-13.1558,2,0.0169147,10,-0.002315,-1.88088,-0.309451,-0.19066,97.9229,0.175968,
2,0,0,1,0,3165.74,0.165905,0.165603,-14.3562,2,0.016558,10,-0.00237743,-1.84296,-0.242948,-0.242851,136.154,0.165603,
2,0,0,1,0,3165.76,0.155506,0.155179,-16.0767,2,0.0161637,10,-0.00249477,-1.7938,-0.185001,-0.318918,200.557,0.155179,
2,0,0,1,0,3165.79,0.145105,0.144809,-18.5974,2,0.0157146,10,-0.00269308,-1.73055,-0.145959,-0.404223,294.069,0.144809,
2,0,0,1,0,3165.81,0.134701,0.134399,-22.1619,2,0.0151867,10,-0.00297854,-1.65439,-0.132566,-0.445062,384.74,0.134399,
2,0,0,1,0,3165.84,0.124305,0.124016,-26.4436,2,0.0145555,10,-0.00327942,-1.57768,-0.140959,-0.418562,431.936,0.124016,
2,0,0,1,0,3165.87,0.113906,0.113641,-30.8084,2,0.0138101,10,-0.00350109,-1.51133,-0.17085,-0.345332,414.872,0.1136408,
2,0,0,1,0,3165.89,0.103505,0.103242,-34.7686,2,0.0129554,10,-0.0035896,-1.45881,-0.237894,-0.24801,335.749,0.103242,
2,0,0,1,0,3165.92,0.0931008,0.0928674,-37.8096,2,0.0120099,10,-0.00351128,-1.4224,-0.352944,-0.167166,246.325,0.0928674,
2,0,0,1,0,3165.94,0.0827051,0.082398,-39.7861,2,0.010998,10,-0.0032783,-1.40027,-0.726295,-0.0812342,125.97,0.082398,
2,0,0,1,0,3165.97,0.0723065,0.0719711,-40.4292,2,0.00995213,10,-0.00290973,-1.3933,20.6816,0.00285278,-4.49298,0.0719711,
2,0,0,1,0,3166,0.0618996,0.0616257,-39.7531,2,0.00890758,10,-0.00244982,-1.40063,0.781173,0.0755274,-116.98,0.0616257,
2,0,0,1,0,3166.02,0.0515011,0.0511701,-38.2439,2,0.00789318,10,-0.00195695,-1.41744,0.553556,0.106584,-159.028,0.0511701,
2,0,0,1,0,3166.05,0.0411053,0.0407622,-36.6111,2,0.0069203,10,-0.00149235,-1.43639,0.557748,0.105783,-151.233,0.0407622,
2,0,0,1,0,3166.07,0.0307068,0.0304116,-35.0622,2,0.00598851,10,-0.0010663,-1.45516,0.5313,0.111048,-151.927,0.0304116,
2,0,0,1,0,3166.1,0.0202999,0.0199762,-33.4147,2,0.00509818,10,-0.000667497,-1.47606,0.438668,0.134498,-175.214,0.0199762,
2,0,0,1,0,3166.13,0.00990136,0.00957887,-31.4312,2,0.00425465,10,-0.000301076,-1.50264,0.351125,0.168031,-206.027,0.00957887,
2,0,0,1,0,3166.15,-0.000494411,-0.000867191,-29.2281,2,0.00346634,10,2.53464e-05,-1.5342,0.320715,0.183964,-209.614,-0.000867191,
2,0,0,1,0,3166.18,-0.010893,-0.0112571,-27.1445,2,0.00273495,10,0.000305568,-1.56632,0.362614,0.162708,-172.463,-0.0112571,
2,0,0,1,0,3166.2,-0.0212998,-0.0216671,-25.6764,2,0.00205,10,0.000556333,-1.59047,0.544444,0.108367,-108.73,-0.0216671,
2,0,0,1,0,3166.23,-0.0316984,-0.0320739,-24.8719,2,0.00139431,10,0.000797738,-1.60429,1.16691,0.0505609,-49.1082,-0.0320739,
2,0,0,1,0,3166.26,-0.0420942,-0.0424468,-24.5886,2,0.000752385,10,0.00104371,-1.60927,4.84803,0.0121699,-11.6847,-0.0424468,
2,0,0,1,0,3166.28,-0.0524927,-0.0528314,-24.653,2,0.000112909,10,0.00130245,-1.60813,-2.53264,-0.0232958,22.4406,-0.0528314,
2,0,0,1,0,3166.31,-0.0628996,-0.0632308,-25.0158,2,-0.00053223,10,0.00158177,-1.60178,-1.29182,-0.045672,44.5743,-0.0632308,
2,0,0,1,0,3166.33,-0.0732982,-0.0736387,-25.5375,2,-0.00118895,10,0.00188054,-1.59282,-0.973631,-0.0605979,60.398,-0.0736387,
2,0,0,1,0,3166.36,-0.0836939,-0.0840837,-26.2363,2,-0.00186175,10,0.00220605,-1.5811,-0.822968,-0.0716917,73.419,-0.0840837,
2,0,0,1,0,3166.39,-0.0940925,-0.0944523,-27.0913,2,-0.00255469,10,0.00255884,-1.56717,-0.691751,-0.0852907,90.1851,-0.0944523,
2,0,0,1,1,3166.41,-0.0978574,-0.098238,-21.9557,2,-0.00309738,10,0.00215689,-1.65845,-0.0217844,-2.70836,2225.38,-0.098238,
2,0,0,1,1,3166.43,-0.0874588,-0.0878874,-5.46856,2,-0.00342886,10,0.000480618,-2.26213,-0.00963173,-6.12559,1155.62,-0.0878874,
2,1,0,1,1,3166.46,-0.077052,-0.0774434,4.03492,2,-0.00343673,10,-0.000312478,-2.39417,0.0106532,5.53825,724.314,-0.0774434,
2,1,0,1,1,3166.48,-0.0666562,-0.0671066,10.1222,2,-0.00324703,10,-0.000679266,-1.99472,0.0483665,1.21985,472.768,-0.0671066,
2,1,0,1,1,3166.51,-0.0562576,-0.0566679,14.1456,2,-0.00292754,10,-0.0008016,-1.84938,0.104018,0.567209,311.658,-0.0566679,
2,1,0,1,1,3166.54,-0.0458563,-0.0462272,16.7672,2,-0.00252277,10,-0.000775099,-1.77554,0.191343,0.308347,201.22,-0.0462272,
2,1,0,1,1,3166.56,-0.0354522,-0.0358479,18.4485,2,-0.00206324,10,-0.000661338,-1.73404,0.330167,0.178697,128.212,-0.0358479,
2,1,0,1,1,3166.59,-0.0250564,-0.0253774,19.4302,2,-0.00156964,10,-0.00049309,-1.71152,0.658543,0.0895918,67.8671,-0.0253774,
2,1,0,1,1,3166.61,-0.0146579,-0.0149738,19.9548,2,-0.00105669,10,-0.000298799,-1.69995,1.32567,0.0445057,34.6635,-0.0149738,
2,1,0,1,1,3166.64,-0.00425653,-0.00462952,20.1827,2,-0.000534308,10,-9.34363e-05,-1.69502,3.86131,0.0152798,12.0287,-0.00462952,
2,1,0,0,1,3166.65,-7.54729e-05,-0.000287149,20.1996,2,-0.000322127,10,-5.80028e-06,-1.69466, , , ,-0.0002871489,