Folder: Figs_alphaMnO2_OER_Tafel_sleope/Figure_codes/Fig_3-5/rawdata_trumpetplot_data/after 10th (part 198)

File: 20221101_1-115_003_TrumpetPlot_ParaChange_from10_every3_13_CV_C01_12.csv
mode,ox/red,error,control changes,counter inc.,time/s,control/V,Ewe/V,<I>/mA,cycle number,(Q-Qo)/C,I Range,P/W,log(|I|),Tafel slope mV/dec,alpha_eff,dI/d(E-IR),E-IR/V,
2,1,0,1,0,24839.4,2.44065e-05,-0.000325324,21.3451,13,0.0000000E+000,10,-6.94405e-06,-1.6707, , , ,-0.000325324,
2,1,0,1,0,24839.4,0.0122624,0.0118577,25.6476,13,0.000360575,10,0.000304121,-1.59095,0.226046,0.261009,259.546,0.0118577,
2,1,0,1,0,24839.5,0.0250636,0.0247077,28.4935,13,0.000795189,10,0.000704008,-1.54525,0.330089,0.178739,198.275,0.0247077,
2,1,0,1,0,24839.5,0.0378704,0.0374962,30.8347,13,0.00127052,10,0.00115618,-1.51096,0.421599,0.139944,168.091,0.0374962,
2,1,0,1,0,24839.5,0.0506632,0.0503303,32.9068,13,0.00178069,10,0.00165621,-1.48271,0.471848,0.12504,160.445,0.0503303,
2,1,0,1,0,24839.5,0.0634672,0.0630976,34.9341,13,0.00232361,10,0.00220426,-1.45675,0.499328,0.118159,161.075,0.0630976,
2,1,0,1,0,24839.5,0.0762629,0.0758744,37.0244,13,0.00289957,10,0.0028092,-1.43151,0.508928,0.11593,167.573,0.0758744,
2,1,0,1,0,24839.5,0.0890668,0.0886714,39.2283,13,0.0035098,10,0.00347843,-1.4064,0.516316,0.114271,174.952,0.0886714,
2,1,0,1,0,24839.5,0.10186,0.101428,41.5079,13,0.00415581,10,0.00421007,-1.38187,0.523013,0.112808,182.773,0.1014281,
2,1,0,1,0,24839.6,0.114666,0.114306,43.8943,13,0.00483922,10,0.00501737,-1.35759,0.543113,0.108633,186.023,0.114306,
2,1,0,1,0,24839.6,0.127462,0.127045,46.3041,13,0.00556068,10,0.00588272,-1.33438,0.522951,0.112821,204.184,0.127045,
2,1,0,1,0,24839.6,0.140263,0.139885,49.0692,13,0.006324,10,0.00686403,-1.30919,0.514312,0.114716,219.76,0.1398848,
2,1,0,1,0,24839.6,0.153064,0.152757,51.9551,13,0.00713248,10,0.00793651,-1.28437,0.532445,0.11081,224.586,0.152757,
2,1,0,1,0,24839.6,0.165866,0.165517,54.7581,13,0.00798683,10,0.00906339,-1.26155,0.613428,0.0961807,205.271,0.165517,
2,1,0,1,0,24839.6,0.178667,0.178286,57.1516,13,0.00888294,10,0.0101894,-1.24297,0.818147,0.0721142,160.516,0.178286,
2,1,0,1,0,24839.7,0.191463,0.191125,58.7407,13,0.00981172,10,0.0112268,-1.23106,1.76207,0.0334833,76.5226,0.191125,
2,1,0,1,0,24839.7,0.204269,0.203879,58.905,13,0.0107553,10,0.0120095,-1.22985,-2.29577,-0.0256995,-58.8473,0.203879,
2,1,0,1,0,24839.7,0.217062,0.216747,57.2046,13,0.0116866,10,0.0123989,-1.24257,-0.640827,-0.0920686,-204.731,0.2167473,
2,1,0,1,0,24839.7,0.229866,0.229557,53.7846,13,0.0125762,10,0.0123466,-1.26934,-0.388538,-0.151851,-317.739,0.229557,
2,1,0,1,0,24839.7,0.242662,0.242328,49.281,13,0.013401,10,0.0119421,-1.30732,-0.308842,-0.191036,-366.962,0.2423275,
2,1,0,1,0,24839.7,0.255466,0.255139,44.6163,13,0.0141514,10,0.0113834,-1.35051,-0.296136,-0.199233,-347.195,0.255139,
2,1,0,1,0,24839.8,0.268259,0.267934,40.4594,13,0.0148309,10,0.0108404,-1.39298,-0.315301,-0.187123,-296.087,0.2679342,
2,1,0,1,0,24839.8,0.281065,0.28074,37.0654,13,0.01545,10,0.0104057,-1.43103,-0.361152,-0.163366,-236.818,0.28074,
2,1,0,1,0,24839.8,0.293861,0.29349,34.3878,13,0.0160205,10,0.0100925,-1.4636,-0.424992,-0.138826,-186.922,0.29349,
2,1,0,1,0,24839.8,0.298983,0.298861,30.7502,13,0.0163217,10,0.00919004,-1.51215,0.0310875,1.89787,1933.32,0.298861,
2,1,0,1,0,24839.8,0.286187,0.285925,12.7628,13,0.0166485,10,0.00364921,-1.89405,0.0293806,2.00813,986.209,0.285925,
2,1,0,1,0,24839.8,0.273386,0.273106,2.98589,13,0.0167672,10,0.000815464,-2.52493,0.011095,5.3177,610.561,0.2731058,
2,0,0,1,0,24839.8,0.260585,0.260327,-3.36284,13,0.0167601,10,-0.000875437,-2.47329,-0.0122681,-4.80922,407.193,0.260327,
2,0,0,1,0,24839.9,0.247783,0.247472,-7.77093,13,0.0166685,10,-0.00192308,-2.10953,-0.0586219,-1.00645,293.512,0.247472,
2,0,0,1,0,24839.9,0.234982,0.234663,-11,13,0.0165168,10,-0.00258129,-1.95861,-0.113741,-0.518724,219.451,0.234663,
2,0,0,1,0,24839.9,0.222187,0.221867,-13.4721,13,0.01632,10,-0.00298902,-1.87056,-0.177975,-0.331507,173.141,0.221867,
2,0,0,1,0,24839.9,0.20938,0.209093,-15.4734,13,0.0160876,10,-0.00323538,-1.81041,-0.247241,-0.238634,143.676,0.209093,
2,0,0,1,0,24839.9,0.196587,0.196281,-17.1715,13,0.0158258,10,-0.00337046,-1.76519,-0.316741,-0.186272,124.698,0.196281,
2,0,0,1,0,24839.9,0.183783,0.183455,-18.7235,13,0.0155383,10,-0.00343491,-1.72761,-0.364008,-0.162084,118.371,0.183455,
2,0,0,1,0,24840,0.170987,0.170654,-20.2472,13,0.0152264,10,-0.00345525,-1.69364,-0.379407,-0.155506,122.918,0.170654,
2,0,0,1,0,24840,0.158183,0.157839,-21.9346,13,0.0148892,10,-0.00346212,-1.65887,-0.346081,-0.170481,146.175,0.157839,
2,0,0,1,0,24840,0.145385,0.145097,-24.054,13,0.0145218,10,-0.00349015,-1.61881,-0.285226,-0.206854,194.926,0.145097,
2,0,0,1,0,24840,0.132584,0.132288,-27.0177,13,0.0141141,10,-0.00357413,-1.56835,-0.228983,-0.257661,272.774,0.132288,
2,0,0,1,0,24840,0.119782,0.119527,-31.0935,13,0.0136504,10,-0.00371651,-1.50733,-0.19925,-0.29611,359.969,0.119527,
2,0,0,1,0,24840,0.106987,0.106696,-36.0259,13,0.0131134,10,-0.00384382,-1.44339,-0.210418,-0.280394,393.579,0.1066962,
2,0,0,1,0,24840.1,0.0941801,0.0939353,-40.9601,13,0.0124963,10,-0.00384759,-1.38764,-0.251453,-0.234636,374.428,0.0939353,
2,0,0,1,0,24840.1,0.0813844,0.08115,-45.5122,13,0.0118033,10,-0.00369332,-1.34187,-0.319822,-0.184477,326.711,0.08115,
2,0,0,1,0,24840.1,0.0685832,0.0683604,-49.2441,13,0.0110435,10,-0.00336634,-1.30765,-0.442536,-0.133322,255.583,0.0683604,
2,0,0,1,0,24840.1,0.0557876,0.0554796,-52.0527,13,0.0102315,10,-0.00288786,-1.28356,-0.670777,-0.0879577,178.196,0.0554796,
2,0,0,1,0,24840.1,0.0429808,0.0427463,-53.8311,13,0.00938288,10,-0.00230108,-1.26897,-1.20865,-0.0488148,102.333,0.0427463,
2,0,0,1,0,24840.1,0.030188,0.0298994,-54.7574,13,0.00851319,10,-0.00163721,-1.26156,-2.61702,-0.0225447,48.1107,0.0298994,
2,0,0,1,0,24840.1,0.017384,0.01706,-55.1118,13,0.00763346,10,-0.000940209,-1.25876,-11.4559,-0.00515018,11.067,0.01706,
2,0,0,1,0,24840.2,0.00458834,0.00425669,-55.0349,13,0.00675168,10,-0.000234267,-1.25936,7.18438,0.00821226,-17.6331,0.00425669,
2,0,0,1,0,24840.2,-0.00821564,-0.00857847,-54.6141,13,0.00587357,10,0.000468505,-1.2627,2.37475,0.0248447,-52.9067,-0.00857847,
2,0,0,1,0,24840.2,-0.0210196,-0.0213617,-53.7248,13,0.00500631,10,0.00114765,-1.26983,1.39733,0.0422233,-88.4245,-0.0213617,
2,0,0,1,0,24840.2,-0.0338153,-0.0341905,-52.4212,13,0.00415689,10,0.00179231,-1.28049,1.09323,0.0539684,-110.336,-0.0341905,
2,0,0,1,0,24840.2,-0.0466193,-0.0469493,-50.932,13,0.00333015,10,0.00239122,-1.29301,1.01144,0.0583325,-115.963,-0.0469493,
2,0,0,1,0,24840.2,-0.0594121,-0.0597972,-49.5259,13,0.00252679,10,0.00296151,-1.30517,1.18264,0.0498884,-96.5315,-0.0597972,
2,0,0,1,0,24840.3,-0.0722189,-0.0725783,-48.4673,13,0.00174326,10,0.00351767,-1.31455,1.62613,0.0362824,-68.7044,-0.0725783,
2,0,0,1,0,24840.3,-0.0850146,-0.0854071,-47.8095,13,0.000973681,10,0.00408327,-1.32049,3.06125,0.0192731,-35.993,-0.0854071,
2,0,0,1,0,24840.3,-0.0978158,-0.0981638,-47.5585,13,0.000211318,10,0.00466852,-1.32277,28.6321,0.00206063,-3.82781,-0.0981638,
2,0,0,1,0,24840.3,-0.110611,-0.110975,-47.6716,13,-0.000550137,10,0.00529034,-1.32174,-4.60433,-0.012814,23.8675,-0.110975,
2,0,0,1,0,24840.3,-0.123418,-0.123758,-48.1454,13,-0.00131651,10,0.00595836,-1.31745,-2.29433,-0.0257156,48.3604,-0.123758,
2,0,0,1,0,24840.3,-0.136214,-0.136582,-48.8817,13,-0.0020926,10,0.00667637,-1.31085,-1.76165,-0.0334912,63.9226,-0.136582,
2,0,0,1,0,24840.4,-0.149015,-0.149386,-49.8013,13,-0.00288206,10,0.00743959,-1.30276,-1.51711,-0.0388898,75.582,-0.149386,
2,0,0,1,0,24840.4,-0.161816,-0.162183,-50.777,13,-0.00368669,10,0.00823515,-1.29433,-1.54262,-0.0382465,75.7725,-0.162183,
2,0,0,1,0,24840.4,-0.174615,-0.174931,-51.7119,13,-0.00450687,10,0.00904601,-1.28641,-1.63931,-0.0359907,72.6363,-0.174931,
2,0,0,1,0,24840.4,-0.187419,-0.187728,-52.6048,13,-0.00534168,10,0.0098754,-1.27897,-1.85433,-0.0318174,65.3136,-0.187728,
2,0,0,1,0,24840.4,-0.199647,-0.199941,-53.3763,13,-0.00615275,10,0.0106721,-1.27265,0.241635,0.24417,-492.798,-0.199941,
2,0,0,1,1,24840.4,-0.192535,-0.192963,-39.2114,13,-0.00661553,10,0.00756636,-1.40659,-0.0623318,-0.946548,1482.69,-0.192963,
2,0,0,1,1,24840.4,-0.179739,-0.180141,-24.9694,13,-0.0071196,10,0.00449801,-1.60259,-0.0624884,-0.944175,920.601,-0.180141,
2,0,0,1,1,24840.5,-0.166932,-0.167319,-14.7579,13,-0.00743304,10,0.00246928,-1.83098,-0.0471298,-1.25186,710.435,-0.167319,
2,0,0,1,1,24840.5,-0.154139,-0.154557,-6.60257,13,-0.007601,10,0.00102048,-2.18029,-0.0237442,-2.48482,581.236,-0.154557,
2,0,0,1,1,24840.5,-0.141335,-0.141778,0.270246,13,-0.00764933,10,-3.83151e-05,-3.56824,0.281001,0.209964,498.556,-0.141778,
2,1,0,1,1,24840.5,-0.12854,-0.128993,6.20188,13,-0.00759577,10,-0.000799999,-2.20748,0.0301941,1.95403,433.456,-0.128993,
2,1,0,1,1,24840.5,-0.115736,-0.116223,11.4832,13,-0.00745302,10,-0.00133461,-1.93994,0.0660681,0.893018,391.028,-0.1162225,
2,1,0,1,1,24840.5,-0.102932,-0.103388,16.2179,13,-0.00723035,10,-0.00167674,-1.79001,0.105753,0.557904,349.346,-0.1033884,
2,1,0,1,1,24840.6,-0.0901361,-0.0905363,20.4503,13,-0.00693586,10,-0.00185149,-1.6893,0.148398,0.397579,315.668,-0.0905363,
2,1,0,1,1,24840.6,-0.0773322,-0.0777425,24.2823,13,-0.00657703,10,-0.00188776,-1.61471,0.197753,0.298353,281.683,-0.07774245,
2,1,0,1,1,24840.6,-0.0645393,-0.0649539,27.7042,13,-0.00616025,10,-0.0017995,-1.55745,0.250666,0.235373,253.871,-0.0649539,
2,1,0,1,1,24840.6,-0.0517325,-0.052157,30.7905,13,-0.00569144,10,-0.00160594,-1.51158,0.31294,0.188535,226.002,-0.052157,
2,1,0,1,1,24840.6,-0.0389369,-0.0393175,33.4928,13,-0.00517646,10,-0.00131686,-1.47505,0.38931,0.15155,197.743,-0.0393175,
2,1,0,1,1,24840.6,-0.0261357,-0.0265396,35.8378,13,-0.00462095,10,-0.000951122,-1.44566,0.482789,0.122206,170.73,-0.0265396,
2,1,0,1,1,24840.7,-0.01334,-0.0137321,37.8404,13,-0.00403068,10,-0.000519626,-1.42204,0.612077,0.0963931,142.214,-0.01373205,
2,1,0,1,1,24840.7,-0.000774628,-0.00115244,39.4686,13,-0.00342307,10,-4.54853e-05,-1.40375, , , ,-0.00115244,
2,1,0,0,1,24840.7,-0.000125413,-0.000401673,39.5566,13,-0.00339148,10,-1.58888e-05,-1.40278, , , ,-0.000401673,

File: 20221101_1-115_003_TrumpetPlot_ParaChange_from10_every3_13_CV_C01_13.csv
mode,ox/red,error,control changes,counter inc.,time/s,control/V,Ewe/V,<I>/mA,cycle number,(Q-Qo)/C,I Range,P/W,log(|I|),Tafel slope mV/dec,alpha_eff,dI/d(E-IR),E-IR/V,
2,1,0,1,0,26809.6,2.44065e-05,-0.000306236,21.4665,14,0.0000000E+000,10,-6.57383e-06,-1.66824, , , ,-0.000306236,
2,1,0,1,0,26809.6,0.0122624,0.01188,25.7909,14,0.000362465,10,0.000306395,-1.58853,0.224779,0.26248,262.356,0.01188,
2,1,0,1,0,26809.6,0.0250636,0.0247342,28.6593,14,0.000799492,10,0.000708864,-1.54273,0.328574,0.179564,200.334,0.0247342,
2,1,0,1,0,26809.6,0.0378704,0.0375397,31.0201,14,0.00127769,10,0.00116449,-1.50836,0.417339,0.141372,170.849,0.0375397,
2,1,0,1,0,26809.6,0.0506632,0.0503218,33.1137,14,0.00179112,10,0.00166634,-1.47999,0.474427,0.12436,160.603,0.0503218,
2,1,0,1,0,26809.6,0.0634672,0.0631018,35.1455,14,0.00233743,10,0.00221775,-1.45413,0.503686,0.117136,160.678,0.0631018,
2,1,0,1,0,26809.6,0.0762628,0.0759062,37.2348,14,0.00291674,10,0.00282636,-1.42905,0.51386,0.114817,166.887,0.0759062,
2,1,0,1,0,26809.7,0.0890668,0.0887053,39.4218,14,0.00353019,10,0.00349693,-1.40426,0.52145,0.113146,174.094,0.0887053,
2,1,0,1,0,26809.7,0.10186,0.101482,41.6913,14,0.00417927,10,0.00423093,-1.37995,0.529212,0.111487,181.433,0.101482,
2,1,0,1,0,26809.7,0.114666,0.114298,44.0635,14,0.00486553,10,0.00503639,-1.35592,0.543886,0.108479,186.496,0.114298,
2,1,0,1,0,26809.7,0.127462,0.127027,46.4587,14,0.0055897,10,0.00590153,-1.33293,0.53195,0.110913,201.41,0.127027,
2,1,0,1,0,26809.7,0.140263,0.139877,49.1983,14,0.0063553,10,0.00688173,-1.30805,0.520332,0.113389,217.777,0.139877,
2,1,0,1,0,26809.7,0.153064,0.152738,52.0423,14,0.00716549,10,0.00794883,-1.28364,0.539177,0.109426,222.186,0.152738,
2,1,0,1,0,26809.8,0.165866,0.16551,54.8371,14,0.00802117,10,0.00907606,-1.26093,0.610941,0.0965724,206.452,0.16551,
2,1,0,1,0,26809.8,0.178667,0.178315,57.2647,14,0.00891886,10,0.0102112,-1.24211,0.8016,0.0736028,164.194,0.178315,
2,1,0,1,0,26809.8,0.191463,0.191155,58.9202,14,0.00984997,10,0.0112629,-1.22974,1.60685,0.0367178,84.1934,0.191155,
2,1,0,1,0,26809.8,0.204269,0.203951,59.226,14,0.0107975,10,0.0120792,-1.22749,-3.08162,-0.0191457,-44.0915,0.203951,
2,1,0,1,0,26809.8,0.217062,0.216782,57.7578,14,0.0117357,10,0.0125209,-1.23839,-0.719709,-0.0819776,-184.087,0.216782,
2,1,0,1,0,26809.8,0.229866,0.22953,54.6186,14,0.0126365,10,0.0125366,-1.26266,-0.42426,-0.139066,-295.501,0.2295305,
2,1,0,1,0,26809.9,0.242662,0.242329,50.3391,14,0.0134767,10,0.0121986,-1.29809,-0.325219,-0.181416,-355.879,0.242329,
2,1,0,1,0,26809.9,0.255466,0.25514,45.7388,14,0.0142448,10,0.0116698,-1.33972,-0.301275,-0.195834,-349.692,0.25514,
2,1,0,1,0,26809.9,0.268259,0.267993,41.4926,14,0.0149416,10,0.0111197,-1.38203,-0.312734,-0.188659,-306.017,0.2679925,
2,1,0,1,0,26809.9,0.281065,0.280803,37.9434,14,0.0155759,10,0.0106546,-1.42086,-0.350399,-0.168379,-249.769,0.280803,
2,1,0,1,0,26809.9,0.293861,0.293566,35.0845,14,0.016159,10,0.0102996,-1.45488,-0.405151,-0.145625,-200.039,0.293566,
2,1,0,1,0,26809.9,0.298983,0.298814,31.3884,14,0.016466,10,0.0093793,-1.50323,0.0323783,1.82221,1903.8,0.298814,
2,1,0,1,0,26809.9,0.286187,0.285975,13.4041,14,0.0168035,10,0.00383324,-1.87276,0.0305474,1.93142,997.735,0.285975,
2,1,0,1,0,26810,0.273386,0.273069,3.44719,14,0.0169311,10,0.00094132,-2.46253,0.00738005,7.99453,623.632,0.273069,
2,0,0,1,0,26810,0.260585,0.260338,-3.09479,14,0.0169299,10,-0.000805692,-2.50937,-0.0080561,-7.32365,423.75,0.260338,
2,0,0,1,0,26810,0.247783,0.247409,-7.66856,14,0.0168414,10,-0.00189727,-2.11529,-0.0558747,-1.05593,302.37,0.247409,
2,0,0,1,0,26810,0.234982,0.234715,-11.0225,14,0.0166903,10,-0.00258714,-1.95772,-0.109254,-0.540026,228.59,0.234715,
2,0,0,1,0,26810,0.222187,0.221849,-13.5944,14,0.0164923,10,-0.0030159,-1.86664,-0.171749,-0.343525,180.905,0.221849,
2,0,0,1,0,26810,0.20938,0.209064,-15.6695,14,0.0162575,10,-0.00327592,-1.80495,-0.243915,-0.241888,147.353,0.2090636,
2,0,0,1,0,26810.1,0.196587,0.19626,-17.4171,14,0.0159922,10,-0.00341829,-1.75902,-0.311329,-0.18951,128.573,0.19626,
2,0,0,1,0,26810.1,0.183783,0.183472,-19.0047,14,0.0157004,10,-0.00348683,-1.72114,-0.363191,-0.162449,120.336,0.183472,
2,0,0,1,0,26810.1,0.170987,0.170664,-20.5289,14,0.0153841,10,-0.00350354,-1.68763,-0.384041,-0.15363,123.156,0.170664,
2,0,0,1,0,26810.1,0.158183,0.157924,-22.2174,14,0.0150422,10,-0.00350867,-1.65331,-0.352992,-0.167143,145.149,0.157924,
2,0,0,1,0,26810.1,0.145385,0.145067,-24.2912,14,0.0146707,10,-0.00352385,-1.61455,-0.297364,-0.19841,188.772,0.145067,
2,0,0,1,0,26810.1,0.132584,0.132249,-27.1644,14,0.0142599,10,-0.00359246,-1.566,-0.236916,-0.249034,265.027,0.132249,
2,0,0,1,0,26810.2,0.119783,0.119473,-31.1339,14,0.0137947,10,-0.00371966,-1.50677,-0.204532,-0.288463,351.143,0.119473,
2,0,0,1,0,26810.2,0.106987,0.106714,-35.9684,14,0.013258,10,-0.00383834,-1.44408,-0.212806,-0.277248,388.625,0.106714,
2,0,0,1,0,26810.2,0.0941801,0.0939819,-40.8676,14,0.0126422,10,-0.00384082,-1.38862,-0.251676,-0.234428,373.221,0.0939819,
2,0,0,1,0,26810.2,0.0813844,0.0811234,-45.4122,14,0.0119509,10,-0.003684,-1.34283,-0.317888,-0.1856,328.038,0.0811234,
2,0,0,1,0,26810.2,0.0685832,0.0683869,-49.1813,14,0.0111924,10,-0.00336335,-1.3082,-0.435034,-0.135622,259.684,0.0683869,
2,0,0,1,0,26810.2,0.0557876,0.055556,-52.0758,14,0.0103808,10,-0.00289312,-1.28336,-0.642465,-0.0918338,186.131,0.055556,
2,0,0,1,0,26810.2,0.0429808,0.0426964,-53.9607,14,0.00953091,10,-0.00230393,-1.26792,-1.10473,-0.0534069,112.256,0.0426964,
2,0,0,1,0,26810.3,0.030188,0.0298761,-55.0186,14,0.00865797,10,-0.00164374,-1.25949,-2.18851,-0.026959,57.8118,0.0298761,
2,0,0,1,0,26810.3,0.017384,0.0170717,-55.4852,14,0.00777306,10,-0.000947226,-1.25582,-6.74127,-0.00875206,18.9365,0.0170717,
2,0,0,1,0,26810.3,0.00458834,0.00426624,-55.4917,14,0.00688452,10,-0.000236741,-1.25577,9.60439,0.00614303,-13.2999,0.004266236,
2,0,0,1,0,26810.3,-0.00821564,-0.00857953,-55.1321,14,0.0059986,10,0.000473008,-1.2586,2.61999,0.0225192,-48.4068,-0.00857953,
2,0,0,1,0,26810.3,-0.0210196,-0.0213935,-54.2932,14,0.00512264,10,0.00116152,-1.26525,1.48266,0.0397933,-84.2154,-0.0213935,
2,0,0,1,0,26810.3,-0.0338153,-0.0341947,-53.0337,14,0.00426374,10,0.00181347,-1.27545,1.13149,0.0521435,-107.849,-0.0341947,
2,0,0,1,0,26810.4,-0.0466193,-0.047014,-51.5676,14,0.00342698,10,0.0024244,-1.28762,1.03131,0.0572089,-115.14,-0.047014,
2,0,0,1,0,26810.4,-0.0594121,-0.0597834,-50.1454,14,0.00261355,10,0.00299786,-1.29977,1.16161,0.0507915,-99.4999,-0.0597834,
2,0,0,1,0,26810.4,-0.0722189,-0.0726196,-49.052,14,0.00182045,10,0.00356214,-1.30934,1.54332,0.0382292,-73.2441,-0.0726196,
2,0,0,1,0,26810.4,-0.0850146,-0.0853551,-48.3133,14,0.00104217,10,0.00412379,-1.31593,2.7004,0.0218486,-41.2372,-0.0853551,
2,0,0,1,0,26810.4,-0.0978158,-0.0982263,-47.9966,14,0.000272222,10,0.00471453,-1.31879,12.0136,0.0049111,-9.20747,-0.0982263,
2,0,0,1,0,26810.4,-0.110611,-0.110923,-48.0334,14,-0.000495613,10,0.00532799,-1.31846,-6.28495,-0.0093875,17.6197,-0.1109226,
2,0,0,1,0,26810.5,-0.123418,-0.123768,-48.4206,14,-0.0012671,10,0.00599294,-1.31497,-2.66109,-0.0221713,41.9434,-0.123768,
2,0,0,1,0,26810.5,-0.136214,-0.136502,-49.0797,14,-0.00204703,10,0.00669946,-1.3091,-1.96941,-0.0299582,57.4166,-0.136502,
2,0,0,1,0,26810.5,-0.149015,-0.149361,-49.9248,14,-0.00283904,10,0.00745684,-1.30168,-1.65357,-0.0356803,69.5142,-0.149361,
2,0,0,1,0,26810.5,-0.161816,-0.162146,-50.8269,14,-0.00364507,10,0.00824136,-1.29391,-1.66442,-0.0354478,70.2983,-0.162146,
2,0,0,1,0,26810.5,-0.174615,-0.174926,-51.6912,14,-0.00446544,10,0.0090421,-1.28658,-1.77296,-0.0332777,67.1342,-0.174926,
2,0,0,1,0,26810.5,-0.187419,-0.187768,-52.5078,14,-0.00529936,10,0.0098593,-1.27978,-2.01386,-0.029297,60.0339,-0.187768,
2,0,0,1,0,26810.6,-0.199647,-0.200041,-53.2246,14,-0.00610848,10,0.0106471,-1.27389,0.241899,0.243903,-491.092,-0.200041,
2,0,0,1,1,26810.6,-0.192535,-0.193001,-39.2114,14,-0.00657055,10,0.00756786,-1.40659,-0.0628378,-0.938925,1470.42,-0.193001,
2,0,0,1,1,26810.6,-0.179739,-0.180136,-25.0952,14,-0.00707573,10,0.00452055,-1.60041,-0.0633082,-0.931949,913.359,-0.1801364,
2,0,0,1,1,26810.6,-0.166932,-0.1673,-14.9671,14,-0.00739174,10,0.00250399,-1.82486,-0.0482415,-1.22301,704.309,-0.1673,
2,0,0,1,1,26810.6,-0.154139,-0.154547,-6.86981,14,-0.00756348,10,0.00106171,-2.16306,-0.0250809,-2.35239,578.384,-0.154547,
2,0,0,1,1,26810.6,-0.141335,-0.141767,-0.0379463,14,-0.00761641,10,5.37952e-06,-4.42083,-0.336483,-0.175343,496.341,-0.141767,
2,1,0,1,1,26810.6,-0.12854,-0.128964,5.87793,14,-0.00756796,10,-0.000758043,-2.23078,0.0283686,2.07976,432.41,-0.128964,
2,1,0,1,1,26810.7,-0.115736,-0.116229,11.1483,14,-0.0074306,10,-0.00129575,-1.95279,0.0641937,0.919093,390.086,-0.116229,
2,1,0,1,1,26810.7,-0.102932,-0.103432,15.8866,14,-0.00721332,10,-0.00164318,-1.79897,0.10288,0.573483,351.599,-0.103432,
2,1,0,1,1,26810.7,-0.0901362,-0.0905787,20.1399,14,-0.00692398,10,-0.00182424,-1.69594,0.145633,0.405128,316.652,-0.09057869,
2,1,0,1,1,26810.7,-0.0773322,-0.0777446,24.0002,14,-0.00656989,10,-0.00186589,-1.61978,0.192884,0.305883,285.423,-0.0777446,
2,1,0,1,1,26810.7,-0.0645393,-0.0649359,27.4873,14,-0.00615713,10,-0.00178491,-1.56087,0.244112,0.241693,258.521,-0.06493593,
2,1,0,1,1,26810.7,-0.0517325,-0.0520923,30.62,14,-0.00569153,10,-0.00159506,-1.514,0.304776,0.193585,230.78,-0.0520923,
2,1,0,1,1,26810.8,-0.0389369,-0.0393419,33.3894,14,-0.00517871,10,-0.00131361,-1.47639,0.377821,0.156159,203.14,-0.0393419,
2,1,0,1,1,26810.8,-0.0261357,-0.0265248,35.8158,14,-0.00462427,10,-0.000950006,-1.44593,0.466436,0.126491,176.565,-0.0265248,
2,1,0,1,1,26810.8,-0.01334,-0.0137458,37.8856,14,-0.00403389,10,-0.00052077,-1.42153,0.587722,0.100388,148.287,-0.0137458,
2,1,0,1,1,26810.8,-0.000774628,-0.00121129,39.5998,14,-0.00342494,10,-4.7967e-05,-1.40231, , , ,-0.00121129,
2,1,0,0,1,26810.8,-0.000125413,-0.000516197,39.6933,14,-0.00339323,10,-2.04896e-05,-1.40128, , , ,-0.000516197,