Folder: Figs_alphaMnO2_OER_Tafel_sleope/Figure_codes/Fig_3-5/rawdata_trumpetplot_data/after 10th (part 136)

File: 20221101_1-115_003_TrumpetPlot_ParaChange_from10_every3_09_CV_C01_28.csv
mode,ox/red,error,control changes,counter inc.,time/s,control/V,Ewe/V,<I>/mA,cycle number,(Q-Qo)/C,I Range,P/W,log(|I|),Tafel slope mV/dec,alpha_eff,dI/d(E-IR),E-IR/V,
2,0,0,0,0,56346.2,2.44065e-05,-0.000306236,-5.25252,29,0.0000000E+000,10,1.60851e-06,-2.27963, , , ,-0.000306236,
2,1,0,1,0,56346.3,0.00978761,0.0094309,0.54096,29,-0.000154947,10,5.10174e-06,-3.26683,0.00380037,15.5248,281.71,0.0094309,
2,1,0,1,0,56346.4,0.0197755,0.0193985,2.41525,29,5.75353e-06,10,4.68522e-05,-2.61704,0.0453079,1.3022,121.354,0.0193985,
2,1,0,1,0,56346.5,0.0297635,0.0293997,3.37083,29,0.000298981,10,9.91015e-05,-2.47226,0.102747,0.574226,75.2575,0.0293997,
2,1,0,1,0,56346.6,0.0397514,0.0393609,4.01745,29,0.00066986,10,0.00015813,-2.39605,0.152828,0.386055,60.5331,0.0393609,
2,1,0,1,0,56346.7,0.0497484,0.0493989,4.57104,29,0.0010996,10,0.000225804,-2.33999,0.203154,0.29042,51.6643,0.0493989,
2,1,0,1,0,56346.8,0.0597273,0.0593854,5.04791,29,0.00157999,10,0.000299772,-2.29689,0.246871,0.238992,47.0643,0.0593854,
2,1,0,1,0,56346.9,0.0697152,0.0693732,5.49033,29,0.00210729,10,0.000380882,-2.2604,0.309018,0.190927,40.9315,0.06937325,
2,1,0,1,0,56347,0.0797031,0.0793391,5.88757,29,0.00267635,10,0.000467114,-2.23006,0.376483,0.156713,35.9708,0.0793391,
2,1,0,1,0,56347.1,0.0896911,0.089339,6.21843,29,0.00328173,10,0.000555549,-2.20632,0.442257,0.133407,32.4091,0.08933901,
2,1,0,1,0,56347.2,0.099679,0.0993511,6.56603,29,0.00391951,10,0.000652343,-2.1827,0.389206,0.151591,38.8318,0.09935113,
2,1,0,1,0,56347.3,0.109667,0.109327,7.03842,29,0.00459778,10,0.000769493,-2.15252,0.284603,0.207306,56.9683,0.109327,
2,1,0,1,0,56347.4,0.119655,0.119301,7.66892,29,0.00533219,10,0.000914911,-2.11527,0.287116,0.205492,61.4664,0.119301,
2,1,0,1,0,56347.5,0.129643,0.129293,8.24063,29,0.00612818,10,0.00106545,-2.08404,0.375197,0.157251,50.5344,0.129293,
2,1,0,1,0,56347.6,0.139631,0.139291,8.62823,29,0.00697309,10,0.00120183,-2.06408,0.720942,0.0818374,27.5557,0.139291,
2,1,0,1,0,56347.7,0.149619,0.149258,8.74216,29,0.00784373,10,0.00130484,-2.05838,-1.25114,-0.047157,-16.0457,0.149258,
2,1,0,1,0,56347.8,0.159607,0.159292,8.14989,29,0.00869466,10,0.00129821,-2.08885,-0.180072,-0.327647,-104.052,0.159292,
2,1,0,1,0,56347.9,0.169595,0.169262,6.90097,29,0.00944892,10,0.00116807,-2.16109,-0.120042,-0.491493,-132.331,0.169262,
2,1,0,1,0,56348,0.179582,0.179217,5.74958,29,0.0100775,10,0.00103042,-2.24036,-0.141377,-0.417323,-93.7556,0.179217,
2,1,0,1,0,56348.1,0.18957,0.189242,5.00061,29,0.0106119,10,0.000946324,-2.30098,-0.200943,-0.293615,-57.3713,0.1892416,
2,1,0,1,0,56348.2,0.199558,0.199188,4.54416,29,0.011087,10,0.000905142,-2.34255,-0.304921,-0.193493,-34.3321,0.199188,
2,1,0,1,0,56348.3,0.209546,0.209216,4.25948,29,0.0115259,10,0.000891149,-2.37064,-0.400461,-0.14733,-24.5027,0.209216,
2,1,0,1,0,56348.4,0.219534,0.219183,4.06404,29,0.0119411,10,0.000890769,-2.39104,-0.637223,-0.0925893,-14.6873,0.219183,
2,1,0,1,0,56348.5,0.229522,0.229181,3.92831,29,0.0123405,10,0.000900297,-2.40579,-0.748603,-0.0788134,-12.0859,0.229181,
2,1,0,1,0,56348.6,0.23951,0.239164,3.8354,29,0.0127286,10,0.000917291,-2.41619,-1.31988,-0.044701,-6.6929,0.239164,
2,1,0,1,0,56348.7,0.249498,0.249148,3.76391,29,0.0131082,10,0.000937769,-2.42436,-1.41794,-0.0416097,-6.11467,0.249148,
2,1,0,1,0,56348.8,0.259486,0.259169,3.70961,29,0.0134819,10,0.000961418,-2.43067,-1.35153,-0.0436541,-6.3175,0.259169,
2,1,0,1,0,56348.9,0.269474,0.269135,3.65487,29,0.0138501,10,0.000983654,-2.43713,-1.81602,-0.0324886,-4.6389,0.269135,
2,1,0,1,0,56349,0.279462,0.279146,3.61588,29,0.0142138,10,0.00100936,-2.44179,-1.67324,-0.035261,-4.97322,0.279146,
2,1,0,1,0,56349.1,0.28945,0.289053,3.56857,29,0.0145731,10,0.0010315,-2.44751,-2.10501,-0.0280284,-3.90345,0.2890529,
2,1,0,1,0,56349.2,0.299438,0.299126,3.52712,29,0.0149277,10,0.00105505,-2.45258,-0.0417257,-1.414,-183.409,0.299126,
2,0,0,1,0,56349.3,0.291747,0.291355,-0.299295,29,0.0150287,10,-8.72009e-05,-3.5239,-0.00542234,-10.8809,182.668,0.291355,
2,0,0,1,0,56349.4,0.281759,0.281379,-1.32867,29,0.0149377,10,-0.00037386,-2.87658,-0.0496686,-1.18787,60.8984,0.281379,
2,0,0,1,0,56349.5,0.271771,0.271424,-1.76599,29,0.0147808,10,-0.000479333,-2.75301,-0.113359,-0.52047,35.8438,0.271424,
2,0,0,1,0,56349.6,0.261783,0.261404,-2.04633,29,0.0145892,10,-0.000534918,-2.68902,-0.201857,-0.292287,23.2678,0.261404,
2,0,0,1,0,56349.7,0.251795,0.2514,-2.24856,29,0.0143741,10,-0.000565289,-2.6481,-0.303774,-0.194223,17.0169,0.2514,
2,0,0,1,0,56349.8,0.241807,0.241481,-2.41071,29,0.0141406,10,-0.00058214,-2.61786,-0.334878,-0.176184,16.6075,0.241481,
2,0,0,1,0,56349.9,0.231815,0.231486,-2.56045,29,0.0138919,10,-0.000592707,-2.59168,-0.395232,-0.149279,14.9094,0.231486,
2,0,0,1,0,56350,0.221831,0.221471,-2.69005,29,0.0136297,10,-0.00059577,-2.57024,-0.496098,-0.118928,12.4622,0.221471,
2,0,0,1,0,56350.1,0.211844,0.211477,-2.80998,29,0.0133546,10,-0.000594246,-2.5513,-0.585282,-0.100806,11.0579,0.211477,
2,0,0,1,0,56350.2,0.201856,0.201436,-2.93438,29,0.0130672,10,-0.00059109,-2.53248,-0.655688,-0.0899818,10.2973,0.201436,
2,0,0,1,0,56350.3,0.191868,0.191492,-3.06068,29,0.0127677,10,-0.000586096,-2.51418,-0.526662,-0.112026,13.3846,0.191492,
2,0,0,1,0,56350.4,0.18188,0.181504,-3.20113,29,0.0124555,10,-0.000581018,-2.4947,-0.441122,-0.13375,16.6676,0.181504,
2,0,0,1,0,56350.5,0.171892,0.171504,-3.35349,29,0.0121283,10,-0.000575137,-2.4745,-0.45098,-0.130826,17.1328,0.171504,
2,0,0,1,0,56350.6,0.161904,0.161555,-3.56168,29,0.0117832,10,-0.000575408,-2.44834,-0.344893,-0.171067,23.7677,0.161555,
2,0,0,1,0,56350.7,0.151916,0.151505,-3.86092,29,0.011413,10,-0.000584947,-2.41331,-0.232803,-0.253433,38.2588,0.151505,
2,0,0,1,0,56350.8,0.141928,0.141656,-4.39546,29,0.0110025,10,-0.000622643,-2.357,-0.143841,-0.410175,70.4531,0.1416561,
2,0,0,1,0,56350.9,0.13194,0.131605,-5.30682,29,0.0105216,10,-0.000698406,-2.27517,-0.110591,-0.533497,110.515,0.131605,
2,0,0,1,0,56351,0.121952,0.121605,-6.45278,29,0.00993415,10,-0.000784693,-2.19025,-0.132009,-0.446938,112.466,0.121605,
2,0,0,1,0,56351.1,0.111964,0.11157,-7.49951,29,0.00923487,10,-0.000836716,-2.12497,-0.182265,-0.323704,94.6984,0.11157,
2,0,0,1,0,56351.2,0.101976,0.101646,-8.3003,29,0.00844243,10,-0.00084369,-2.08091,-0.320989,-0.183807,59.4647,0.101646,
2,0,0,1,0,56351.3,0.0919883,0.0916357,-8.70614,29,0.00758869,10,-0.000797793,-2.06017,-0.950414,-0.0620782,21.09,0.0916357,
2,0,0,1,0,56351.4,0.0820004,0.0816676,-8.70663,29,0.00671603,10,-0.000711049,-2.06015,1.2445,0.0474084,-16.0984,0.0816676,
2,0,0,1,0,56351.4,0.0720124,0.0716447,-8.48489,29,0.00585636,10,-0.000607898,-2.07135,0.836491,0.0705327,-23.3662,0.0716447,
2,0,0,1,0,56351.5,0.0620245,0.0616695,-8.27219,29,0.0050193,10,-0.000510141,-2.08238,0.929285,0.0634897,-20.5019,0.06166945,
2,0,0,1,0,56351.6,0.0520366,0.0516837,-8.09011,29,0.0042014,10,-0.000418127,-2.09205,0.928321,0.0635556,-20.0643,0.0516837,
2,0,0,1,0,56351.7,0.0420486,0.0416958,-7.8817,29,0.00340266,10,-0.000328634,-2.10338,0.807768,0.0730408,-22.4765,0.0416958,
2,0,0,1,0,56351.8,0.0320607,0.031714,-7.64452,29,0.00262697,10,-0.000242438,-2.11665,0.614711,0.0959801,-28.6034,0.031714,
2,0,0,1,0,56351.9,0.0220728,0.0217153,-7.33499,29,0.00187823,10,-0.000159282,-2.1346,0.503611,0.117154,-33.5231,0.0217153,
2,0,0,1,0,56352,0.0120848,0.0117254,-6.99651,29,0.00116195,10,-8.2037e-05,-2.15512,0.490472,0.120292,-32.8581,0.0117254,
2,0,0,1,0,56352.1,0.0020969,0.00171832,-6.74608,29,0.000477568,10,-1.15919e-05,-2.17095,0.808715,0.0729552,-19.1295,0.001718321,
2,0,0,1,0,56352.2,-0.00789103,-0.008281,-6.51455,29,-0.000183555,10,5.3947e-05,-2.18612,1.02505,0.0575579,-14.6559,-0.008281,
2,0,0,1,0,56352.3,-0.017879,-0.0182931,-6.43879,29,-0.000829628,10,0.000117786,-2.1912,6.57694,0.00897074,-2.25339,-0.0182931,
2,0,0,1,0,56352.4,-0.0278669,-0.0282804,-6.45735,29,-0.00147333,10,0.000182617,-2.18995,-2.86162,-0.0206177,5.20052,-0.0282804,
2,0,0,1,0,56352.5,-0.0378549,-0.0382776,-6.56473,29,-0.00212364,10,0.000251282,-2.18278,-1.14645,-0.0514634,13.1827,-0.0382776,
2,0,0,1,0,56352.6,-0.0478428,-0.0482384,-6.73433,29,-0.00278797,10,0.000324853,-2.17171,-0.692298,-0.0852234,22.4142,-0.0482384,
2,0,0,1,0,56352.7,-0.0578216,-0.0582176,-6.96516,29,-0.00347156,10,0.000405495,-2.15707,-0.648075,-0.0910388,24.7481,-0.0582176,
2,0,0,1,0,56352.8,-0.0678187,-0.0682177,-7.24957,29,-0.00418145,10,0.000494549,-2.13969,-0.514862,-0.114594,32.4131,-0.0682177,
2,0,0,1,0,56352.9,-0.0778066,-0.0782198,-7.58936,29,-0.00492278,10,0.000593639,-2.11979,-0.474652,-0.124302,36.8485,-0.0782198,
2,0,0,1,0,56353,-0.0877945,-0.0881897,-8.00627,29,-0.00570201,10,0.00070607,-2.09657,-0.418355,-0.141029,44.067,-0.0881897,
2,0,0,1,0,56353.1,-0.0977825,-0.0982129,-8.45308,29,-0.00652476,10,0.000830202,-2.07298,-0.4121,-0.143169,47.2594,-0.0982129,
2,0,0,1,1,56353.2,-0.0927386,-0.0931309,-3.11791,29,-0.00709588,10,0.000290374,-2.50614,-0.0153332,-3.84786,465.3,-0.0931309,
2,1,0,1,1,56353.3,-0.0827529,-0.0831292,0.192169,29,-0.00722361,10,-1.59748e-05,-3.71632,0.0129923,4.54117,242.7,-0.0831292,
2,1,0,1,1,56353.4,-0.0727627,-0.0731559,2.08049,29,-0.0071018,10,-0.0001522,-2.68183,0.0319576,1.8462,147.759,-0.0731559,
2,1,0,1,1,56353.5,-0.0627748,-0.0631482,3.26708,29,-0.00682958,10,-0.00020631,-2.48584,0.0785102,0.751495,95.6334,-0.06314823,
2,1,0,1,1,56353.6,-0.0527868,-0.0531387,4.02723,29,-0.00646152,10,-0.000214002,-2.39499,0.158636,0.371921,58.3898,-0.0531387,
2,1,0,1,1,56353.7,-0.0427989,-0.0431846,4.50415,29,-0.00603271,10,-0.00019451,-2.34639,0.266678,0.221241,38.904,-0.0431846,
2,1,0,1,1,56353.8,-0.0328109,-0.033208,4.7956,29,-0.00556673,10,-0.000159252,-2.31916,0.513468,0.114905,21.4881,-0.033208,
2,1,0,1,1,56353.9,-0.022823,-0.0232268,4.94959,29,-0.00507877,10,-0.000114963,-2.30543,1.0968,0.0537929,10.3905,-0.0232268,
2,1,0,1,1,56354,-0.0128351,-0.0132097,5.00845,29,-0.00458033,10,-6.61601e-05,-2.3003,3.73144,0.0158116,3.09193,-0.0132097,
2,1,0,1,1,56354.1,-0.00284713,-0.00323448,5.0327,29,-0.0040777,10,-1.62782e-05,-2.2982,-18.9977,-0.00310564,-0.609892,-0.003234481,
2,1,0,1,1,56354.2,-2.55332e-05,-0.00042076,5.04865,29,-0.00393606,10,-2.12427e-06,-2.29682, , , ,-0.00042076,

File: 20221101_1-115_003_TrumpetPlot_ParaChange_from10_every3_09_CV_C01_29.csv
mode,ox/red,error,control changes,counter inc.,time/s,control/V,Ewe/V,<I>/mA,cycle number,(Q-Qo)/C,I Range,P/W,log(|I|),Tafel slope mV/dec,alpha_eff,dI/d(E-IR),E-IR/V,
2,0,0,0,0,58316.3,2.44065e-05,-0.000401673,-5.30023,30,0.0000000E+000,10,2.12896e-06,-2.27571, , , ,-0.000401673,
2,1,0,1,0,58316.4,0.00978761,0.00939576,0.632859,30,-0.000149501,10,5.94619e-06,-3.19869,0.00200329,29.4516,282.599,0.00939576,
2,1,0,1,0,58316.5,0.0197755,0.0193969,2.51985,30,2.16221e-05,10,4.88771e-05,-2.59863,0.0464686,1.26967,123.789,0.0193969,
2,1,0,1,0,58316.6,0.0297635,0.0294019,3.47663,30,0.000325782,10,0.000102219,-2.45884,0.10774,0.547613,74.0591,0.0294019,
2,1,0,1,0,58316.7,0.0397514,0.0393485,4.12496,30,0.000707423,10,0.000162311,-2.38458,0.154442,0.382021,61.5034,0.0393485,
2,1,0,1,0,58316.8,0.0497484,0.0493863,4.67697,30,0.00114795,10,0.000230978,-2.33004,0.207294,0.28462,51.8294,0.0493863,
2,1,0,1,0,58316.9,0.0597273,0.0593564,5.15757,30,0.00163908,10,0.000306135,-2.28756,0.248634,0.237297,47.7243,0.0593564,
2,1,0,1,0,58317,0.0697152,0.0693749,5.59935,30,0.00217733,10,0.000388454,-2.25186,0.309133,0.190856,41.6939,0.0693749,
2,1,0,1,0,58317.1,0.0797031,0.0793647,5.9921,30,0.0027573,10,0.000475561,-2.22242,0.391159,0.150834,35.2519,0.0793647,
2,1,0,1,0,58317.2,0.0896911,0.0893253,6.32633,30,0.00337351,10,0.000565101,-2.19885,0.441022,0.13378,33.0646,0.0893253,
2,1,0,1,0,58317.3,0.099679,0.0992673,6.68548,30,0.00402235,10,0.00066365,-2.17487,0.396854,0.148669,38.7219,0.0992673,
2,1,0,1,0,58317.4,0.109667,0.109317,7.17166,30,0.00471275,10,0.000783981,-2.14438,0.287456,0.205249,57.4668,0.109317,
2,1,0,1,0,58317.5,0.119655,0.119326,7.80878,30,0.00546075,10,0.000931787,-2.10742,0.298969,0.197345,60.105,0.119326,
2,1,0,1,0,58317.6,0.129643,0.129299,8.38531,30,0.00627123,10,0.00108421,-2.07648,0.400421,0.147345,48.2053,0.129299,
2,1,0,1,0,58317.7,0.139631,0.139296,8.76107,30,0.00713018,10,0.00122038,-2.05744,0.707152,0.0834332,28.5455,0.139296,
2,1,0,1,0,58317.8,0.149619,0.149259,8.85429,30,0.00801332,10,0.00132158,-2.05285,-1.03146,-0.0572004,-19.7125,0.149259,
2,1,0,1,0,58317.9,0.159607,0.15923,8.2143,30,0.0088732,10,0.00130796,-2.08543,-0.172337,-0.342352,-109.592,0.1592299,
2,1,0,1,0,58318,0.169595,0.169258,6.94573,30,0.00963256,10,0.00117562,-2.15828,-0.120968,-0.487731,-132.218,0.169258,
2,1,0,1,0,58318.1,0.179582,0.179246,5.81698,30,0.0102668,10,0.00104267,-2.2353,-0.143494,-0.411167,-93.487,0.179246,
2,1,0,1,0,58318.2,0.18957,0.189191,5.0839,30,0.0108087,10,0.000961828,-2.2938,-0.20381,-0.289486,-57.4938,0.189191,
2,1,0,1,0,58318.3,0.199558,0.199168,4.62497,30,0.0112915,10,0.000921145,-2.33489,-0.301461,-0.195714,-35.2964,0.199168,
2,1,0,1,0,58318.4,0.209546,0.209175,4.32363,30,0.0117373,10,0.000904397,-2.36415,-0.365202,-0.161554,-27.2722,0.209175,
2,1,0,1,0,58318.5,0.219534,0.219171,4.11186,30,0.0121579,10,0.000901197,-2.38596,-0.549542,-0.107362,-17.247,0.219171,
2,1,0,1,0,58318.6,0.229522,0.229168,3.9652,30,0.0125616,10,0.0009087,-2.40173,-0.763273,-0.0772987,-11.9808,0.229168,
2,1,0,1,0,58318.7,0.23951,0.239189,3.87347,30,0.0129531,10,0.000926491,-2.4119,-1.23916,-0.047613,-7.19116,0.239189,
2,1,0,1,0,58318.8,0.249498,0.249185,3.79552,30,0.0133356,10,0.000945788,-2.42073,-1.30905,-0.045071,-6.67065,0.249185,
2,1,0,1,0,58318.9,0.259486,0.259155,3.7365,30,0.0137116,10,0.000968334,-2.42754,-1.32869,-0.0444045,-6.46924,0.259155,
2,1,0,1,0,58319,0.269474,0.269128,3.67671,30,0.014082,10,0.000989504,-2.43454,-1.72304,-0.0342419,-4.91602,0.269128,
2,1,0,1,0,58319.1,0.279462,0.279121,3.632,30,0.0144475,10,0.00101377,-2.43985,-2.0132,-0.0293066,-4.15674,0.2791208,
2,1,0,1,0,58319.2,0.28945,0.289087,3.58578,30,0.0148085,10,0.0010366,-2.44542,-2.2993,-0.0256599,-3.59248,0.289087,
2,1,0,1,0,58319.3,0.299438,0.299098,3.54472,30,0.0151648,10,0.00106022,-2.45042,-0.0403113,-1.46361,-190.171,0.299098,
2,0,0,1,0,58319.4,0.291747,0.291351,-0.365096,30,0.0152625,10,-0.000106371,-3.43759,-0.00354435,-16.6462,183.477,0.291351,
2,0,0,1,0,58319.5,0.281759,0.281412,-1.39826,30,0.0151652,10,-0.000393486,-2.85441,-0.0527531,-1.11842,60.277,0.281412,
2,0,0,1,0,58319.6,0.271771,0.271426,-1.84133,30,0.0150016,10,-0.000499784,-2.73487,-0.122599,-0.481245,34.4638,0.271426,
2,0,0,1,0,58319.7,0.261783,0.261409,-2.1163,30,0.0148034,10,-0.00055322,-2.67442,-0.225713,-0.261394,21.5557,0.261409,
2,0,0,1,0,58319.8,0.251795,0.251427,-2.31616,30,0.0145818,10,-0.000582346,-2.63523,-0.31918,-0.184848,16.6973,0.251427,
2,0,0,1,0,58319.9,0.241807,0.241461,-2.47651,30,0.0143419,10,-0.000597981,-2.60616,-0.359321,-0.164198,15.9063,0.241461,
2,0,0,1,0,58320,0.231815,0.231499,-2.62854,30,0.0140869,10,-0.000608504,-2.58029,-0.414109,-0.142475,14.6009,0.231499,
2,0,0,1,0,58320.1,0.221831,0.221489,-2.7524,30,0.0138185,10,-0.000609627,-2.56029,-0.540178,-0.109223,11.737,0.221489,
2,0,0,1,0,58320.2,0.211843,0.211458,-2.87302,30,0.0135375,10,-0.000607522,-2.54166,-0.62123,-0.0949729,10.6466,0.211458,
2,0,0,1,0,58320.3,0.201856,0.20149,-2.99311,30,0.0132443,10,-0.00060308,-2.52388,-0.626029,-0.0942449,11.0234,0.20149,
2,0,0,1,0,58320.4,0.191868,0.19149,-3.12076,30,0.012939,10,-0.000597594,-2.50574,-0.525607,-0.112251,13.6879,0.19149,
2,0,0,1,0,58320.5,0.18188,0.181478,-3.2595,30,0.0126211,10,-0.000591526,-2.48685,-0.451918,-0.130555,16.5795,0.181478,
2,0,0,1,0,58320.6,0.171892,0.171507,-3.41566,30,0.0122881,10,-0.00058581,-2.46652,-0.463706,-0.127236,16.9578,0.171507,
2,0,0,1,0,58320.7,0.161904,0.16152,-3.62385,30,0.0119371,10,-0.000585326,-2.44083,-0.327511,-0.180146,25.4914,0.16152,
2,0,0,1,0,58320.8,0.151916,0.151602,-3.92053,30,0.0115611,10,-0.000594361,-2.40666,-0.235429,-0.250607,38.461,0.151602,
2,0,0,1,0,58320.9,0.141928,0.141565,-4.46679,30,0.0111445,10,-0.00063234,-2.35,-0.146978,-0.40142,70.0404,0.1415648,
2,0,0,1,0,58321,0.13194,0.131532,-5.39145,30,0.0106563,10,-0.000709148,-2.26829,-0.110154,-0.535614,112.679,0.131532,
2,0,0,1,0,58321.1,0.121952,0.121586,-6.55666,30,0.01006,10,-0.0007972,-2.18332,-0.133507,-0.441925,112.976,0.121586,
2,0,0,1,0,58321.2,0.111964,0.111581,-7.62173,30,0.00934992,10,-0.000850441,-2.11795,-0.182177,-0.323861,96.2845,0.111581,
2,0,0,1,0,58321.3,0.101976,0.101584,-8.43318,30,0.00854506,10,-0.000856676,-2.07401,-0.312283,-0.188931,62.115,0.101584,
2,0,0,1,0,58321.4,0.0919883,0.0916121,-8.84552,30,0.00767807,10,-0.000810357,-2.05328,-0.964792,-0.0611531,21.1059,0.0916121,
2,0,0,1,0,58321.5,0.0820004,0.0816261,-8.83168,30,0.00679259,10,-0.000720895,-2.05396,1.18352,0.0498512,-17.1688,0.0816261,
2,0,0,1,0,58321.6,0.0720124,0.0716308,-8.59745,30,0.00592147,10,-0.000615843,-2.06563,0.779858,0.0756548,-25.3928,0.0716308,
2,0,0,1,0,58321.7,0.0620245,0.0616288,-8.37614,30,0.00507394,10,-0.000516211,-2.07696,0.897288,0.0657537,-21.4936,0.0616288,
2,0,0,1,0,58321.8,0.0520366,0.0516317,-8.19258,30,0.00424631,10,-0.000422996,-2.08658,0.912292,0.0646723,-20.6598,0.0516317,
2,0,0,1,0,58321.9,0.0420486,0.0416381,-7.97379,30,0.00343841,10,-0.000332014,-2.09834,0.890351,0.066266,-20.6367,0.04163814,
2,0,0,1,0,58322,0.0320607,0.0316783,-7.72885,30,0.00265421,10,-0.000244837,-2.11188,0.636885,0.0926384,-27.9198,0.0316783,
2,0,0,1,0,58322.1,0.0220728,0.0216806,-7.41404,30,0.00189756,10,-0.000160741,-2.12995,0.515023,0.114558,-33.1362,0.02168062,
2,0,0,1,0,58322.2,0.0120848,0.0116943,-7.07147,30,0.00117396,10,-8.26959e-05,-2.15049,0.473374,0.124637,-34.3993,0.0116943,
2,0,0,1,0,58322.3,0.0020969,0.00173394,-6.81239,30,0.000482648,10,-1.18123e-05,-2.1667,0.775268,0.0761027,-20.1515,0.00173394,
2,0,0,1,0,58322.4,-0.00789103,-0.00831212,-6.57765,30,-0.000185186,10,5.46742e-05,-2.18193,1.05671,0.0558338,-14.3594,-0.00831212,
2,0,0,1,0,58322.5,-0.017879,-0.0183018,-6.50805,30,-0.00083755,10,0.000119109,-2.18655,8.97632,0.00657285,-1.66787,-0.0183018,
2,0,0,1,0,58322.6,-0.0278669,-0.028264,-6.5177,30,-0.00148742,10,0.000184216,-2.18591,-3.34037,-0.0176627,4.49734,-0.028264,
2,0,0,1,0,58322.7,-0.0378548,-0.038273,-6.62448,30,-0.00214375,10,0.000253539,-2.17885,-1.25714,-0.0469319,12.1341,-0.038273,
2,0,0,1,0,58322.8,-0.0478428,-0.048238,-6.79356,30,-0.00281412,10,0.000327708,-2.1679,-0.66869,-0.0882322,23.4207,-0.048238,
2,0,0,1,0,58322.9,-0.0578216,-0.0582562,-7.02999,30,-0.00350405,10,0.000409541,-2.15305,-0.619389,-0.0952551,26.1428,-0.0582562,
2,0,0,1,0,58323,-0.0678187,-0.0682003,-7.32091,30,-0.00422064,10,0.000499288,-2.13544,-0.512144,-0.115202,32.8872,-0.0682003,
2,0,0,1,0,58323.1,-0.0778066,-0.0782237,-7.66374,30,-0.00496904,10,0.000599487,-2.11556,-0.491738,-0.119983,35.8962,-0.0782237,
2,0,0,1,0,58323.2,-0.0877945,-0.0882042,-8.08635,30,-0.00575556,10,0.00071325,-2.09225,-0.403927,-0.146066,46.0852,-0.0882042,
2,0,0,1,0,58323.3,-0.0977825,-0.098173,-8.53091,30,-0.00658581,10,0.000837506,-2.069,-0.423159,-0.139428,46.4575,-0.098173,
2,0,0,1,1,58323.4,-0.0927386,-0.0931752,-3.04947,30,-0.00715748,10,0.000284135,-2.51578,-0.014826,-3.97949,470.422,-0.0931752,
2,1,0,1,1,58323.5,-0.0827529,-0.0831795,0.310796,30,-0.00727572,10,-2.58518e-05,-3.50752,0.00697089,8.46377,243.294,-0.0831795,
2,1,0,1,1,58323.6,-0.0727627,-0.0731385,2.22507,30,-0.00714111,10,-0.000162739,-2.65266,0.033943,1.73821,148.292,-0.0731385,
2,1,0,1,1,58323.7,-0.0627748,-0.0631382,3.41357,30,-0.00685488,10,-0.000215527,-2.46679,0.0817677,0.721557,95.835,-0.0631382,
2,1,0,1,1,58323.8,-0.0527868,-0.0531906,4.17415,30,-0.00647266,10,-0.000222026,-2.37943,0.164133,0.359465,58.4027,-0.05319057,
2,1,0,1,1,58323.9,-0.0427989,-0.0431985,4.64532,30,-0.0060299,10,-0.000200671,-2.33298,0.270327,0.218255,39.5597,-0.0431985,
2,1,0,1,1,58324,-0.0328109,-0.0331959,4.93084,30,-0.00555038,10,-0.000163684,-2.30708,0.550401,0.107195,20.6036,-0.0331959,
2,1,0,1,1,58324.1,-0.022823,-0.0231994,5.07913,30,-0.00504954,10,-0.000117833,-2.29421,1.19595,0.0493333,9.76985,-0.0231994,
2,1,0,1,1,58324.2,-0.0128351,-0.0132553,5.13351,30,-0.00453866,10,-6.80459e-05,-2.28959,5.43825,0.0108491,2.17364,-0.0132553,
2,1,0,1,1,58324.3,-0.00284713,-0.00324734,5.15115,30,-0.00402427,10,-1.67276e-05,-2.2881,-15.1667,-0.00389009,-0.781591,-0.00324734,
2,1,0,1,1,58324.3,-2.55332e-05,-0.000458935,5.16759,30,-0.00387947,10,-2.37159e-06,-2.28671, , , ,-0.000458935,