Folder: Figs_alphaMnO2_OER_Tafel_sleope/Figure_codes/Fig_3-5/rawdata_trumpetplot_data/after 10th (part 26)

File: 20221101_1-115_003_TrumpetPlot_ParaChange_from10_every3_03_CV_C01_15.csv
mode,ox/red,error,control changes,counter inc.,time/s,control/V,Ewe/V,<I>/mA,cycle number,(Q-Qo)/C,I Range,P/W,log(|I|),Tafel slope mV/dec,alpha_eff,dI/d(E-IR),E-IR/V,
2,0,0,1,0,30492,2.44065e-05,-0.000382585,-0.105754,16,0.0000000E+000,10,4.04601e-08,-3.9757, , , ,-0.000382585,
2,1,0,1,0,30493.4,0.00729041,0.00697332,0.20421,16,0.000256327,10,1.42402e-06,-3.68992,0.081721,0.721969,5.67954,0.00697332,
2,1,0,1,0,30494.9,0.0147815,0.0144779,0.236014,16,0.000608847,10,3.41699e-06,-3.62706,0.135677,0.434857,4.00352,0.01447791,
2,1,0,1,0,30496.4,0.0222725,0.0219243,0.263801,16,0.00100536,10,5.78365e-06,-3.57872,0.164502,0.358658,3.67691,0.0219243,
2,1,0,1,0,30497.9,0.0297635,0.029436,0.2907,16,0.00144219,10,8.55704e-06,-3.53656,0.215681,0.273552,3.10387,0.029436,
2,1,0,1,0,30499.4,0.0372545,0.0369352,0.317905,16,0.00191993,10,1.17419e-05,-3.4977,0.201885,0.292245,3.64162,0.0369352,
2,1,0,1,0,30500.9,0.0447456,0.044459,0.34351,16,0.002438,10,1.52721e-05,-3.46406,0.223651,0.263804,3.53703,0.044459,
2,1,0,1,0,30502.4,0.0522367,0.0518938,0.367191,16,0.00299317,10,1.90549e-05,-3.43511,0.220735,0.267289,3.83556,0.0518938,
2,1,0,1,0,30503.9,0.0597277,0.0593814,0.39004,16,0.00358361,10,2.31611e-05,-3.40889,0.27011,0.218429,3.32917,0.0593814,
2,1,0,1,0,30505.4,0.0672187,0.0668774,0.410754,16,0.00420517,10,2.74702e-05,-3.38642,0.38583,0.152917,2.44342,0.06687744,
2,1,0,1,0,30506.9,0.0747092,0.0743877,0.425061,16,0.00485365,10,3.16193e-05,-3.37155,0.524266,0.112538,1.87224,0.0743877,
2,1,0,0,0,30508.4,0.0822001,0.0818933,0.439076,16,0.00552528,10,3.59574e-05,-3.35746,0.4494,0.131286,2.26217,0.0818933,
2,1,0,1,0,30509.9,0.0896911,0.0893798,0.461505,16,0.00622353,10,4.12492e-05,-3.33582,0.284911,0.207082,3.74242,0.0893798,
2,1,0,0,0,30511.4,0.097182,0.0968471,0.493417,16,0.00696105,10,4.7786e-05,-3.30679,0.188798,0.312504,6.03033,0.0968471,
2,1,0,1,0,30512.9,0.104673,0.104327,0.538842,16,0.00775555,10,5.62159e-05,-3.26854,0.214028,0.275665,5.77114,0.104327,
2,1,0,0,0,30514.4,0.112164,0.111847,0.574716,16,0.00861273,10,6.428e-05,-3.24055,0.362855,0.162599,3.64822,0.1118466,
2,1,0,1,0,30515.9,0.119655,0.11933,0.602404,16,0.00951853,10,7.18848e-05,-3.22011,0.566018,0.104237,2.45469,0.1193299,
2,1,0,0,0,30517.4,0.127146,0.126837,0.622022,16,0.0104609,10,7.88951e-05,-3.20619,0.545095,0.108238,2.63584,0.126837,
2,1,0,1,0,30518.9,0.134637,0.134287,0.626016,16,0.0114269,10,8.40658e-05,-3.20341,-0.407822,-0.144671,-3.52834,0.134287,
2,1,0,1,0,30520.4,0.142127,0.141804,0.56421,16,0.0123501,10,8.00072e-05,-3.24856,-0.103472,-0.570205,-12.4829,0.141804,
2,1,0,1,0,30521.9,0.149618,0.149305,0.452814,16,0.013134,10,6.76074e-05,-3.34408,-0.0765184,-0.771056,-13.6415,0.149305,
2,1,0,1,0,30523.4,0.157109,0.156822,0.374339,16,0.0137686,10,5.87047e-05,-3.42673,-0.116419,-0.506791,-7.41788,0.156822,
2,1,0,1,0,30524.9,0.1646,0.164286,0.33889,16,0.0143203,10,5.56748e-05,-3.46994,-0.25112,-0.234947,-3.10165,0.1642856,
2,1,0,1,0,30526.4,0.172091,0.171753,0.318744,16,0.0148326,10,5.47453e-05,-3.49656,-0.485596,-0.1215,-1.51913,0.171753,
2,1,0,1,0,30527.9,0.179582,0.179236,0.309134,16,0.0153236,10,5.5408e-05,-3.50985,-0.858742,-0.0687051,-0.830001,0.179236,
2,1,0,1,0,30529.4,0.187074,0.186737,0.303987,16,0.0158028,10,5.67656e-05,-3.51714,-0.766445,-0.0769788,-0.910265,0.186737,
2,1,0,1,0,30530.9,0.194564,0.194253,0.297961,16,0.0162732,10,5.78797e-05,-3.52584,-1.97965,-0.0298033,-0.346079,0.194253,
2,1,0,1,0,30532.4,0.202056,0.201723,0.293097,16,0.0167367,10,5.91243e-05,-3.53299,-0.891716,-0.0661646,-0.75699,0.201723,
2,1,0,1,0,30533.9,0.209547,0.209239,0.289975,16,0.0171946,10,6.0674e-05,-3.53764,-1.33675,-0.0441368,-0.500447,0.209239,
2,1,0,1,0,30535.4,0.217038,0.216692,0.286403,16,0.0176469,10,6.20614e-05,-3.54302,-35.5555,-0.00165938,-0.0185529,0.216692,
2,1,0,1,0,30536.9,0.224529,0.22423,0.284461,16,0.0180951,10,6.37846e-05,-3.54598,-1.72958,-0.0341123,-0.378569,0.22423,
2,1,0,1,0,30538.4,0.232019,0.231694,0.2816,16,0.0185397,10,6.5245e-05,-3.55037,-1.2422,-0.0474965,-0.521733,0.231694,
2,1,0,0,0,30539.9,0.23951,0.239183,0.279936,16,0.0189813,10,6.6956e-05,-3.55294,-17.9796,-0.0032815,-0.0359179,0.239183,
2,1,0,1,0,30541.4,0.247001,0.246711,0.27863,16,0.0194198,10,6.87411e-05,-3.55497,-1.26304,-0.0467125,-0.50589,0.246711,
2,1,0,0,0,30542.9,0.254492,0.254211,0.275391,16,0.0198554,10,7.00075e-05,-3.56005,-2.10604,-0.0280147,-0.302772,0.254211,
2,1,0,1,0,30544.4,0.261983,0.26169,0.275782,16,0.0202885,10,7.21696e-05,-3.55943,-3.60354,-0.0163728,-0.176001,0.2616905,
2,1,0,0,0,30545.9,0.269474,0.26914,0.272543,16,0.020719,10,7.33523e-05,-3.56456,4.28071,0.0137827,0.146624,0.26914,
2,1,0,1,0,30547.4,0.276965,0.276621,0.271279,16,0.0211469,10,7.50414e-05,-3.56658,-2.87256,-0.0205392,-0.217794,0.276621,
2,1,0,0,0,30548.9,0.284456,0.284184,0.269226,16,0.0215717,10,7.65097e-05,-3.56988,5.11328,0.0115386,0.121379,0.284184,
2,1,0,1,0,30550.4,0.291947,0.29165,0.26723,16,0.0219937,10,7.79376e-05,-3.57312,-1.60192,-0.0368307,-0.384656,0.29165,
2,1,0,1,0,30551.9,0.299437,0.299132,0.265079,16,0.0224128,10,7.92936e-05,-3.57662,-0.00252683,-23.3494,-119.862,0.2991319,
2,0,0,1,0,30553.2,0.293744,0.293392,-0.0185991,16,0.0224496,10,-5.45684e-06,-4.73051,-0.00540045,-10.925,5.60492,0.293392,
2,0,0,1,0,30554.7,0.286253,0.285949,-0.0471961,16,0.0223788,10,-1.34957e-05,-4.32609,-0.0370317,-1.59323,2.97275,0.2859489,
2,0,0,0,0,30556.2,0.278763,0.278469,-0.0677938,16,0.0222709,10,-1.88785e-05,-4.16881,-0.0658933,-0.895387,2.35096,0.278469,
2,0,0,1,0,30557.7,0.271272,0.270976,-0.083028,16,0.0221356,10,-2.24986e-05,-4.08078,-0.106848,-0.552188,1.81492,0.270976,
2,0,0,0,0,30559.2,0.263781,0.263493,-0.0977245,16,0.0219777,10,-2.57497e-05,-4.01,-0.156811,-0.37625,1.44039,0.263493,
2,0,0,1,0,30560.7,0.25629,0.256,-0.11081,16,0.0218007,10,-2.83675e-05,-3.95542,-0.180647,-0.326605,1.40247,0.256,
2,0,0,0,0,30562.2,0.248799,0.248449,-0.121333,16,0.0216064,10,-3.0145e-05,-3.91602,-0.22989,-0.256645,1.20488,0.248449,
2,0,0,1,0,30563.7,0.241308,0.24101,-0.131509,16,0.0213971,10,-3.16951e-05,-3.88104,-0.284658,-0.207266,1.0578,0.2410105,
2,0,0,0,0,30565.2,0.233817,0.2335,-0.140749,16,0.0211739,10,-3.28649e-05,-3.85155,-0.279252,-0.211279,1.15419,0.2334996,
2,0,0,1,0,30566.7,0.226326,0.226044,-0.148579,16,0.0209372,10,-3.35854e-05,-3.82804,-0.24873,-0.237205,1.38089,0.226044,
2,0,0,0,0,30568.2,0.218835,0.218569,-0.156681,16,0.0206871,10,-3.42456e-05,-3.80498,-0.327428,-0.180192,1.10966,0.2185691,
2,0,0,1,0,30569.7,0.211344,0.211054,-0.166255,16,0.0204239,10,-3.50889e-05,-3.77922,-0.37933,-0.155537,1.00866,0.211054,
2,0,0,1,0,30571.2,0.203854,0.203516,-0.174873,16,0.0201471,10,-3.55895e-05,-3.75728,-0.365867,-0.161261,1.10159,0.203516,
2,0,0,1,0,30572.7,0.196363,0.196053,-0.183526,16,0.0198569,10,-3.59808e-05,-3.7363,-0.275107,-0.214462,1.54022,0.196053,
2,0,0,1,0,30574.2,0.188871,0.188541,-0.195288,16,0.0195511,10,-3.68198e-05,-3.70932,-0.225655,-0.261461,1.9913,0.188541,
2,0,0,1,0,30575.7,0.181381,0.18103,-0.208528,16,0.0192278,10,-3.77498e-05,-3.68084,-0.245122,-0.240696,1.95249,0.18103,
2,0,0,1,0,30577.2,0.173889,0.173548,-0.222447,16,0.0188846,10,-3.86051e-05,-3.65277,-0.29177,-0.202214,1.75481,0.173548,
2,0,0,1,0,30578.7,0.166398,0.166034,-0.240987,16,0.0185168,10,-4.00121e-05,-3.61801,-0.199926,-0.295109,2.7864,0.166034,
2,0,0,1,0,30580.2,0.158907,0.158583,-0.264851,16,0.0181167,10,-4.20009e-05,-3.577,-0.163321,-0.361252,3.75951,0.158583,
2,0,0,1,0,30581.7,0.151416,0.151076,-0.305501,16,0.017669,10,-4.61538e-05,-3.51499,-0.105481,-0.559341,6.66998,0.151076,
2,0,0,1,0,30583.2,0.143925,0.143579,-0.369964,16,0.0171441,10,-5.3119e-05,-3.43184,-0.0724073,-0.814835,11.7869,0.143579,
2,0,0,1,0,30584.7,0.136434,0.136079,-0.467326,16,0.0164966,10,-6.35931e-05,-3.33038,-0.0770077,-0.766157,13.9004,0.1360786,
2,0,0,1,0,30586.2,0.128943,0.128625,-0.563867,16,0.0156994,10,-7.25274e-05,-3.24882,-0.123449,-0.47793,10.4415,0.128625,
2,0,0,0,0,30587.7,0.121453,0.121134,-0.623228,16,0.0147817,10,-7.54939e-05,-3.20535,-0.30198,-0.195377,4.73419,0.121134,
2,0,0,1,0,30589.2,0.113962,0.11365,-0.633306,16,0.0138112,10,-7.19755e-05,-3.19839,6.6719,0.00884306,-0.219276,0.11365,
2,0,0,0,0,30590.7,0.106471,0.106151,-0.625307,16,0.012842,10,-6.63771e-05,-3.20391,0.803556,0.0734236,-1.79712,0.106151,
2,0,0,1,0,30592.2,0.0989799,0.0986445,-0.610316,16,0.0118931,10,-6.02044e-05,-3.21445,0.749658,0.0787025,-1.86609,0.09864454,
2,0,0,0,0,30593.7,0.0914889,0.0911443,-0.589744,16,0.0109726,10,-5.37518e-05,-3.22934,0.489239,0.120595,-2.76826,0.0911443,
2,0,0,1,0,30595.2,0.083998,0.0836864,-0.565815,16,0.0100843,10,-4.7351e-05,-3.24733,0.36676,0.160868,-3.5471,0.0836864,
2,0,0,0,0,30596.7,0.076507,0.0761894,-0.545813,16,0.00922845,10,-4.15852e-05,-3.26296,0.454003,0.129955,-2.7691,0.0761894,
2,0,0,1,0,30598.2,0.0690161,0.0686658,-0.525914,16,0.00840177,10,-3.61123e-05,-3.27909,0.603838,0.0977083,-2.01562,0.0686658,
2,0,0,0,0,30599.7,0.0615251,0.0612143,-0.511581,16,0.00760062,10,-3.13161e-05,-3.29109,0.515715,0.114404,-2.28674,0.0612143,
2,0,0,1,0,30601.2,0.0540342,0.0537565,-0.49451,16,0.0068245,10,-2.65831e-05,-3.30583,0.584056,0.101018,-1.94897,0.0537565,
2,0,0,1,0,30602.7,0.0465436,0.046282,-0.477071,16,0.0060736,10,-2.20798e-05,-3.32142,0.49372,0.119501,-2.23125,0.046282,
2,0,0,1,0,30604.2,0.0390526,0.0387276,-0.460745,16,0.00534836,10,-1.78435e-05,-3.33654,0.384918,0.153279,-2.74882,0.0387276,
2,0,0,1,0,30605.7,0.0315615,0.0312698,-0.443189,16,0.00464934,10,-1.38584e-05,-3.35341,0.474609,0.124313,-2.1503,0.0312698,
2,0,0,1,0,30607.2,0.0240706,0.0237323,-0.428535,16,0.00397463,10,-1.01701e-05,-3.36801,0.750907,0.0785717,-1.31668,0.0237323,
2,0,0,1,0,30608.7,0.0165795,0.0162756,-0.417592,16,0.00331936,10,-6.79657e-06,-3.37925,1.19106,0.0495357,-0.808999,0.0162756,
2,0,0,1,0,30610.2,0.00908846,0.00879104,-0.41201,16,0.00267619,10,-3.622e-06,-3.38509,-9.16449,-0.00643789,0.103709,0.00879104,
2,0,0,1,0,30611.7,0.00159739,0.001228,-0.418418,16,0.00203443,10,-5.13816e-07,-3.37839, , , ,0.001228,
2,0,0,0,0,30611.9,0.000199195,-0.000140177,-0.415764,16,0.00191401,10,5.82804e-08,-3.38115, , , ,-0.000140177,

File: 20221101_1-115_003_TrumpetPlot_ParaChange_from10_every3_03_CV_C01_16.csv
mode,ox/red,error,control changes,counter inc.,time/s,control/V,Ewe/V,<I>/mA,cycle number,(Q-Qo)/C,I Range,P/W,log(|I|),Tafel slope mV/dec,alpha_eff,dI/d(E-IR),E-IR/V,
2,0,0,1,0,32462.1,2.44065e-05,-0.000344411,-0.114023,17,0.0000000E+000,10,3.92707e-08,-3.94301, , , ,-0.000344411,
2,1,0,1,0,32463.6,0.00729041,0.00696467,0.202878,17,0.000264687,10,1.41298e-06,-3.69277,0.0818589,0.720753,5.67565,0.00696467,
2,1,0,1,0,32465.1,0.0147815,0.0144333,0.236044,17,0.000620783,10,3.4069e-06,-3.62701,0.139003,0.42445,3.89802,0.01443334,
2,1,0,1,0,32466.6,0.0222725,0.021923,0.262829,17,0.00101988,10,5.76201e-06,-3.58033,0.172152,0.342721,3.4904,0.021923,
2,1,0,1,0,32468,0.0297635,0.0294507,0.289771,17,0.00145894,10,8.53397e-06,-3.53794,0.20505,0.287735,3.25011,0.0294507,
2,1,0,1,0,32469.5,0.0372545,0.0368992,0.316244,17,0.00193839,10,1.16692e-05,-3.49998,0.208703,0.282698,3.49376,0.0368992,
2,1,0,1,0,32471,0.0447456,0.0444124,0.342784,17,0.00245732,10,1.52239e-05,-3.46498,0.221249,0.266668,3.55849,0.0444124,
2,1,0,1,0,32472.5,0.0522367,0.0518883,0.36531,17,0.00301415,10,1.89553e-05,-3.43734,0.22311,0.264444,3.77904,0.05188835,
2,1,0,1,0,32474,0.0597277,0.0594111,0.388343,17,0.00360534,10,2.30719e-05,-3.41078,0.308773,0.191079,2.89019,0.05941112,
2,1,0,1,0,32475.5,0.0672187,0.0668785,0.408095,17,0.00422759,10,2.72928e-05,-3.38924,0.326632,0.180632,2.86661,0.0668785,
2,1,0,1,0,32477,0.0747092,0.0743421,0.4236,17,0.00487625,10,3.14914e-05,-3.37304,0.523797,0.112639,1.85855,0.0743421,
2,1,0,0,0,32478.5,0.0822001,0.0819028,0.438604,17,0.00554814,10,3.59229e-05,-3.35793,0.451636,0.130636,2.23727,0.0819028,
2,1,0,1,0,32480,0.0896911,0.0893543,0.45906,17,0.00624585,10,4.1019e-05,-3.33813,0.283544,0.208081,3.73328,0.0893543,
2,1,0,0,0,32481.5,0.097182,0.0968206,0.491862,17,0.00698477,10,4.76224e-05,-3.30816,0.17361,0.339843,6.52813,0.0968206,
2,1,0,1,0,32483,0.104673,0.104346,0.538316,17,0.00778161,10,5.61713e-05,-3.26896,0.193175,0.305422,6.3832,0.104346,
2,1,0,0,0,32484.5,0.112164,0.111834,0.574781,17,0.00864139,10,6.42799e-05,-3.2405,0.32122,0.183675,4.10481,0.111834,
2,1,0,1,0,32486,0.119655,0.119361,0.602152,17,0.00955052,10,7.18733e-05,-3.22029,0.580906,0.101565,2.3855,0.119361,
2,1,0,0,0,32487.5,0.127146,0.126865,0.619834,17,0.0104953,10,7.86354e-05,-3.20772,0.723515,0.0815463,1.9789,0.126865,
2,1,0,1,0,32489,0.134637,0.134328,0.620261,17,0.0114601,10,8.33186e-05,-3.20743,-0.364969,-0.161658,-3.90707,0.134328,
2,1,0,1,0,32490.5,0.142127,0.141778,0.555936,17,0.0123773,10,7.88195e-05,-3.25498,-0.0986198,-0.598257,-12.9029,0.141778,
2,1,0,1,0,32492,0.149618,0.149276,0.44375,17,0.0131525,10,6.62415e-05,-3.35286,-0.0747319,-0.789488,-13.7224,0.149276,
2,1,0,1,0,32493.5,0.157109,0.156801,0.366817,17,0.0137792,10,5.75172e-05,-3.43555,-0.11483,-0.513805,-7.3787,0.156801,
2,1,0,1,0,32495,0.1646,0.164304,0.332378,17,0.0143247,10,5.46108e-05,-3.47837,-0.213343,-0.27655,-3.5814,0.164304,
2,1,0,1,0,32496.5,0.172091,0.171768,0.314669,17,0.0148326,10,5.405e-05,-3.50215,-0.493246,-0.119616,-1.4704,0.171768,
2,1,0,1,0,32498,0.179582,0.179266,0.30452,17,0.0153206,10,5.45901e-05,-3.51638,-0.936491,-0.0630011,-0.749436,0.179266,
2,1,0,1,0,32499.5,0.187074,0.186721,0.299138,17,0.0157968,10,5.58554e-05,-3.52413,-2.17216,-0.027162,-0.316244,0.1867211,
2,1,0,1,0,32501,0.194564,0.194293,0.294301,17,0.0162656,10,5.71807e-05,-3.53121,-1.23984,-0.0475866,-0.546691,0.194293,
2,1,0,1,0,32502.5,0.202056,0.201755,0.291265,17,0.0167284,10,5.87641e-05,-3.53571,-1.21462,-0.0485749,-0.550788,0.2017546,
2,1,0,1,0,32504,0.209547,0.209245,0.28789,17,0.0171859,10,6.02397e-05,-3.54077,-1.10522,-0.0533831,-0.599115,0.209245,
2,1,0,1,0,32505.5,0.217038,0.216716,0.284315,17,0.0176384,10,6.16157e-05,-3.5462,-2.23665,-0.0263788,-0.293077,0.216716,
2,1,0,1,0,32507,0.224529,0.224236,0.283868,17,0.0180876,10,6.36535e-05,-3.54688,-3.71065,-0.0159002,-0.174814,0.224236,
2,1,0,1,0,32508.5,0.232019,0.231704,0.279771,17,0.0185331,10,6.48241e-05,-3.5532,4.21614,0.0139938,0.153298,0.231704,
2,1,0,0,0,32510,0.23951,0.239174,0.278316,17,0.0189757,10,6.65659e-05,-3.55546,-1.15908,-0.0509023,-0.552982,0.239174,
2,1,0,1,0,32511.5,0.247001,0.246686,0.277321,17,0.0194152,10,6.84111e-05,-3.55702,-1.04447,-0.0564881,-0.608965,0.246686,
2,1,0,0,0,32513,0.254492,0.254167,0.275095,17,0.0198519,10,6.992e-05,-3.56052,-1.67951,-0.0351292,-0.37772,0.254167,
2,1,0,1,0,32514.5,0.261983,0.261689,0.273369,17,0.0202862,10,7.15378e-05,-3.56325,-2.66958,-0.0221008,-0.235207,0.261689,
2,1,0,0,0,32516,0.269474,0.269194,0.271342,17,0.0207178,10,7.30436e-05,-3.56648,-2.66089,-0.022173,-0.235234,0.269194,
2,1,0,1,0,32517.5,0.276965,0.276689,0.269085,17,0.0211465,10,7.44528e-05,-3.57011,-1.49207,-0.0395425,-0.415606,0.276689,
2,1,0,0,0,32519,0.284456,0.284145,0.268175,17,0.0215722,10,7.62005e-05,-3.57158,-3.91584,-0.015067,-0.157147,0.284145,
2,1,0,1,0,32520.5,0.291947,0.291618,0.265065,17,0.0219945,10,7.7298e-05,-3.57665,-1.34259,-0.043945,-0.456112,0.291618,
2,1,0,1,0,32522,0.299437,0.299136,0.262693,17,0.0224142,10,7.85809e-05,-3.58055,-0.00243707,-24.2094,-121.804,0.299136,
2,0,0,1,0,32523.4,0.293744,0.293386,-0.0175873,17,0.0224476,10,-5.15985e-06,-4.7548,-0.0047988,-12.2947,5.65096,0.293386,
2,0,0,1,0,32524.9,0.286253,0.285913,-0.0457135,17,0.0223753,10,-1.30701e-05,-4.33996,-0.0363382,-1.62363,2.9425,0.285913,
2,0,0,0,0,32526.3,0.278763,0.278467,-0.0676754,17,0.0222661,10,-1.88454e-05,-4.16957,-0.0650955,-0.90636,2.34995,0.278467,
2,0,0,1,0,32527.8,0.271272,0.270972,-0.083106,17,0.0221298,10,-2.25194e-05,-4.08037,-0.0930931,-0.633774,2.04727,0.270972,
2,0,0,0,0,32529.3,0.263781,0.263473,-0.0962212,17,0.0219712,10,-2.53517e-05,-4.01673,-0.14769,-0.399486,1.50692,0.263473,
2,0,0,1,0,32530.8,0.25629,0.25598,-0.108637,17,0.0217937,10,-2.7809e-05,-3.96402,-0.198755,-0.296847,1.24793,0.25598,
2,0,0,0,0,32532.3,0.248799,0.248464,-0.118716,17,0.0215994,10,-2.94968e-05,-3.92549,-0.220722,-0.267304,1.25028,0.248464,
2,0,0,1,0,32533.8,0.241308,0.240979,-0.128945,17,0.02139,10,-3.10729e-05,-3.8896,-0.286412,-0.205997,1.03717,0.240979,
2,0,0,0,0,32535.3,0.233817,0.233526,-0.138073,17,0.0211664,10,-3.22436e-05,-3.85989,-0.257895,-0.228776,1.22579,0.233526,
2,0,0,1,0,32536.8,0.226326,0.226025,-0.146166,17,0.0209295,10,-3.30371e-05,-3.83515,-0.275288,-0.214321,1.22553,0.226025,
2,0,0,0,0,32538.3,0.218835,0.218513,-0.155652,17,0.0206791,10,-3.4012e-05,-3.80785,-0.284754,-0.207197,1.2535,0.218513,
2,0,0,1,0,32539.8,0.211344,0.211031,-0.163227,17,0.0204156,10,-3.44459e-05,-3.78721,-0.344142,-0.171441,1.09891,0.211031,
2,0,0,1,0,32541.3,0.203854,0.203514,-0.173613,17,0.0201382,10,-3.53326e-05,-3.76042,-0.314074,-0.187854,1.27193,0.203514,
2,0,0,1,0,32542.8,0.196363,0.196063,-0.182898,17,0.0198471,10,-3.58595e-05,-3.73779,-0.316108,-0.186645,1.32786,0.1960633,
2,0,0,1,0,32544.3,0.188871,0.188542,-0.193339,17,0.0195401,10,-3.64524e-05,-3.71368,-0.276462,-0.213411,1.60427,0.188542,
2,0,0,1,0,32545.8,0.181381,0.181112,-0.205491,17,0.0192163,10,-3.7217e-05,-3.68721,-0.291114,-0.20267,1.61686,0.181112,
2,0,0,1,0,32547.3,0.173889,0.173584,-0.220546,17,0.0188728,10,-3.82832e-05,-3.6565,-0.242584,-0.243214,2.08319,0.173584,
2,0,0,1,0,32548.8,0.166398,0.166068,-0.237574,17,0.0185046,10,-3.94536e-05,-3.6242,-0.202065,-0.291986,2.72806,0.166068,
2,0,0,1,0,32550.3,0.158907,0.1586,-0.261746,17,0.0181041,10,-4.15129e-05,-3.58212,-0.150552,-0.391892,4.03548,0.1586,
2,0,0,1,0,32551.8,0.151416,0.151073,-0.302694,17,0.0176561,10,-4.57288e-05,-3.519,-0.10762,-0.548228,6.48724,0.151073,
2,0,0,1,0,32553.3,0.143925,0.143588,-0.368255,17,0.0171307,10,-5.28772e-05,-3.43385,-0.0714622,-0.825612,11.8784,0.143588,
2,0,0,1,0,32554.8,0.136434,0.136102,-0.463917,17,0.0164829,10,-6.31401e-05,-3.33356,-0.0763419,-0.772839,13.9625,0.136102,
2,0,0,1,0,32556.3,0.128943,0.128644,-0.561309,17,0.0156853,10,-7.22091e-05,-3.2508,-0.120264,-0.490587,10.6706,0.128644,
2,0,0,0,0,32557.8,0.121453,0.121135,-0.620322,17,0.0147679,10,-7.51425e-05,-3.20738,-0.329498,-0.17906,4.32111,0.1211347,
2,0,0,1,0,32559.3,0.113962,0.113595,-0.629936,17,0.0137986,10,-7.15577e-05,-3.2007,1.73243,0.0340562,-0.839177,0.113595,
2,0,0,0,0,32560.8,0.106471,0.106146,-0.621336,17,0.012831,10,-6.59523e-05,-3.20667,0.846162,0.0697266,-1.6968,0.106146,
2,0,0,1,0,32562.3,0.0989799,0.09867,-0.606032,17,0.0118842,10,-5.97971e-05,-3.2175,0.586195,0.100649,-2.36936,0.09867,
2,0,0,0,0,32563.8,0.0914889,0.0911358,-0.58649,17,0.0109659,10,-5.34502e-05,-3.23174,0.472634,0.124832,-2.84609,0.0911358,
2,0,0,1,0,32565.3,0.083998,0.0836918,-0.562548,17,0.0100792,10,-4.70806e-05,-3.24984,0.370248,0.159353,-3.49535,0.0836918,
2,0,0,0,0,32566.8,0.076507,0.0761533,-0.544169,17,0.00922453,10,-4.14403e-05,-3.26427,0.45165,0.130632,-2.76673,0.0761533,
2,0,0,1,0,32568.3,0.0690161,0.0687061,-0.521983,17,0.00839927,10,-3.58634e-05,-3.28234,0.55938,0.105474,-2.1589,0.06870608,
2,0,0,0,0,32569.8,0.0615251,0.0611973,-0.507409,17,0.00759961,10,-3.10521e-05,-3.29464,0.488272,0.120834,-2.39753,0.0611973,
2,0,0,1,0,32571.3,0.0540342,0.0536759,-0.490168,17,0.00682526,10,-2.63102e-05,-3.30966,0.502216,0.117479,-2.25331,0.0536759,
2,0,0,1,0,32572.8,0.0465436,0.0462026,-0.47385,17,0.00607601,10,-2.18931e-05,-3.32436,0.453949,0.12997,-2.40149,0.0462026,
2,0,0,1,0,32574.3,0.0390526,0.0386822,-0.457516,17,0.00535265,10,-1.76977e-05,-3.33959,0.385681,0.152976,-2.71989,0.0386822,
2,0,0,1,0,32575.8,0.0315615,0.03124,-0.441043,17,0.00465506,10,-1.37782e-05,-3.35552,0.492978,0.119681,-2.05237,0.03124,
2,0,0,1,0,32577.3,0.0240706,0.0237622,-0.423202,17,0.00398134,10,-1.00562e-05,-3.37345,0.586636,0.100573,-1.67236,0.0237622,
2,0,0,1,0,32578.8,0.0165795,0.0162702,-0.414998,17,0.0033262,10,-6.75208e-06,-3.38195,0.945124,0.0624257,-1.01083,0.0162702,
2,0,0,1,0,32580.3,0.00908846,0.0087538,-0.410359,17,0.00268243,10,-3.5922e-06,-3.38684,2.25449,0.0261699,-0.42015,0.0087538,
2,0,0,1,0,32581.8,0.00159739,0.00119849,-0.416655,17,0.00203922,10,-4.99359e-07,-3.38022, , , ,0.00119849,
2,0,0,0,0,32582.1,0.000199195,-0.000205073,-0.41343,17,0.00191852,10,8.47834e-08,-3.3836, , , ,-0.000205073,