Folder: Figs_alphaMnO2_OER_Tafel_sleope/Figure_codes/Fig_3-5/rawdata_trumpetplot_data/before 10th (part 57)

File: 20221101_1-115_002_TrumpetPlot_ParaChange_16_CV_C01_1.csv
mode,ox/red,error,control changes,counter inc.,time/s,control/V,Ewe/V,<I>/mA,cycle number,(Q-Qo)/C,I Range,P/W,log(|I|),Tafel slope mV/dec,alpha_eff,dI/d(E-IR),E-IR/V,
2,1,0,1,0,2450.71,2.44065e-05,-0.00168052,58.7768,2,0.0000000E+000,10,-9.87758e-05,-1.23079, , , ,-0.00168052,
2,1,0,1,0,2450.72,0.0131086,0.0127389,56.6027,2,0.00075118,10,0.000721056,-1.24716,-8.00253,-0.00737267,-16.4145,0.0127389,
2,1,0,1,0,2450.73,0.0271416,0.0267787,57.1386,2,0.00154706,10,0.00153009,-1.24307,3.47068,0.0169995,37.849,0.0267787,
2,1,0,1,0,2450.75,0.0411248,0.040775,57.4191,2,0.00234954,10,0.00234126,-1.24094,85.1392,0.000692983,1.55042,0.040775,
2,1,0,1,0,2450.76,0.0551079,0.0547681,57.4829,2,0.00315324,10,0.00314823,-1.24046,5.49696,0.0107332,24.1193,0.0547681,
2,1,0,1,0,2450.78,0.0691409,0.0688248,57.9285,2,0.00396114,10,0.00398692,-1.23711,3.39809,0.0173627,39.2705,0.0688248,
2,1,0,1,0,2450.79,0.083124,0.0828148,58.7553,2,0.00477682,10,0.00486581,-1.23095,1.43816,0.0410245,94.3164,0.0828148,
2,1,0,1,0,2450.8,0.0971071,0.0968206,60.6152,2,0.00561122,10,0.0058688,-1.21742,0.759491,0.0776836,184.546,0.09682063,
2,1,0,1,0,2450.82,0.11114,0.110805,63.8382,2,0.0064814,10,0.00707361,-1.19492,0.540155,0.109228,272.728,0.110805,
2,1,0,1,0,2450.83,0.125123,0.124797,68.217,2,0.00740473,10,0.0085133,-1.16611,0.443477,0.13304,354.85,0.124797,
2,1,0,1,0,2450.85,0.139106,0.138769,73.6911,2,0.00839734,10,0.0102261,-1.13259,0.388413,0.1519,437.928,0.138769,
2,1,0,1,0,2450.86,0.153139,0.152801,80.3698,2,0.00947547,10,0.0122805,-1.09491,0.360684,0.163578,513.919,0.152801,
2,1,0,1,0,2450.87,0.167123,0.166762,88.2028,2,0.0106548,10,0.0147089,-1.05452,0.337781,0.174669,601.934,0.166762,
2,1,0,1,0,2450.89,0.181106,0.180753,97.1546,2,0.0119522,10,0.017561,-1.01254,0.336095,0.175545,665.807,0.180753,
2,1,0,1,0,2450.9,0.195139,0.19477,106.572,2,0.0133799,10,0.0207571,-0.972356,0.382294,0.154331,640.333,0.19477,
2,1,0,1,0,2450.92,0.209122,0.208756,114.719,2,0.0149323,10,0.0239483,-0.940365,0.561053,0.105159,467.944,0.208756,
2,1,0,1,0,2450.93,0.223105,0.222811,118.856,2,0.0165742,10,0.0264825,-0.924977,5.07677,0.0116216,53.3403,0.222811,
2,1,0,1,0,2450.94,0.237138,0.236939,115.204,2,0.0182239,10,0.0272962,-0.938533,-0.41352,-0.142677,-631.487,0.236939,
2,1,0,1,0,2450.96,0.251121,0.250984,101.23,2,0.0197488,10,0.0254071,-0.994691,-0.177021,-0.333295,-1296.28,0.2509836,
2,1,0,1,0,2450.97,0.265104,0.264997,80.1647,2,0.0210207,10,0.0212434,-1.09602,-0.118059,-0.49975,-1551.79,0.264997,
2,1,0,1,0,2450.99,0.279137,0.279006,59.1793,2,0.0219901,10,0.0165114,-1.22783,-0.10329,-0.571208,-1328.61,0.279006,
2,1,0,1,0,2451,0.29312,0.292884,44.0833,2,0.0227029,10,0.0129113,-1.35573,-0.124208,-0.47501,-841.004,0.2928845,
2,1,0,1,0,2451.01,0.298714,0.298794,34.1123,2,0.0230354,10,0.0101926,-1.46709,0.0111638,5.28496,4034.39,0.298794,
2,0,0,1,0,2451.02,0.28473,0.284642,-4.51487,2,0.0231961,10,-0.00128512,-2.34535,-0.321722,-0.183388,1697.93,0.284642,
2,0,0,1,0,2451.04,0.270747,0.270551,-19.1161,2,0.0230133,10,-0.00517189,-1.7186,-0.0603076,-0.978318,658.644,0.270551,
2,0,0,1,0,2451.05,0.256714,0.256481,-24.9111,2,0.0226981,10,-0.00638921,-1.60361,-0.210098,-0.280822,267.08,0.256481,
2,0,0,1,0,2451.06,0.242731,0.242482,-27.4811,2,0.0223293,10,-0.00666368,-1.56097,-0.454945,-0.129686,138.159,0.242482,
2,0,0,1,0,2451.08,0.228748,0.228527,-29.0803,2,0.0219329,10,-0.00664565,-1.5364,-0.594894,-0.0991773,112.655,0.228527,
2,0,0,1,0,2451.09,0.214715,0.214436,-30.6844,2,0.021514,10,-0.00657982,-1.51308,-0.586115,-0.100663,120.854,0.214436,
2,0,0,1,0,2451.11,0.200732,0.200493,-32.6723,2,0.0210711,10,-0.00655058,-1.48582,-0.451941,-0.130548,166.902,0.200493,
2,0,0,1,0,2451.12,0.186735,0.186501,-35.4823,2,0.0205954,10,-0.00661749,-1.44999,-0.331119,-0.178183,247.986,0.186501,
2,0,0,1,0,2451.13,0.172716,0.172491,-39.6169,2,0.0200706,10,-0.00683356,-1.40212,-0.260417,-0.22656,352.48,0.172491,
2,0,0,1,0,2451.15,0.158733,0.158507,-45.5298,2,0.0194764,10,-0.00721677,-1.3417,-0.211651,-0.278761,498.019,0.158507,
2,0,0,1,0,2451.16,0.144719,0.144524,-53.6703,2,0.018784,10,-0.00775665,-1.27027,-0.187588,-0.31452,660.782,0.144524,
2,0,0,1,0,2451.18,0.130717,0.130534,-63.9218,2,0.017962,10,-0.00834398,-1.19435,-0.185811,-0.317527,792.453,0.130534,
2,0,0,1,0,2451.19,0.116733,0.116651,-75.4022,2,0.0169855,10,-0.00879577,-1.12262,-0.205261,-0.287438,844.985,0.1166513,
2,0,0,1,0,2451.2,0.102703,0.102612,-87.358,2,0.0158453,10,-0.00896394,-1.0587,-0.243386,-0.242414,822.511,0.102612,
2,0,0,1,0,2451.22,0.0887173,0.0885579,-98.3218,2,0.0145435,10,-0.00870718,-1.00735,-0.315126,-0.187227,714.477,0.0885579,
2,0,0,1,0,2451.23,0.0747341,0.0745309,-106.944,2,0.013102,10,-0.00797063,-0.970843,-0.50125,-0.117706,488.159,0.0745309,
2,0,0,1,0,2451.25,0.0607011,0.0604837,-111.815,2,0.0115656,10,-0.006763,-0.951499,-1.49422,-0.0394854,170.905,0.0604837,
2,0,0,1,0,2451.26,0.046718,0.0464556,-111.543,2,0.00999627,10,-0.00518179,-0.952558,1.3277,0.0444378,-192.109,0.0464556,
2,0,0,1,0,2451.27,0.0327349,0.0324455,-106.717,2,0.00846467,10,-0.00346249,-0.971765,0.536625,0.109946,-455.966,0.0324455,
2,0,0,1,0,2451.29,0.0187018,0.0184184,-99.3797,2,0.00702134,10,-0.00183042,-1.0027,0.398523,0.148047,-572.555,0.01841842,
2,0,0,1,0,2451.3,0.00471873,0.00441787,-90.8748,2,0.00568972,10,-0.000401473,-1.04156,0.337434,0.174849,-619.287,0.00441787,
2,0,0,1,0,2451.32,-0.00926438,-0.00960495,-82.0624,2,0.00447957,10,0.000788205,-1.08586,0.303384,0.194473,-622.922,-0.00960495,
2,0,0,1,0,2451.33,-0.0232974,-0.0236235,-73.9149,2,0.00339036,10,0.00174613,-1.13127,0.330517,0.178508,-516.641,-0.0236235,
2,0,0,1,0,2451.34,-0.0372805,-0.0375817,-67.8361,2,0.002402,10,0.00254939,-1.16854,0.467755,0.126134,-335.902,-0.03758166,
2,0,0,1,0,2451.36,-0.0512636,-0.0515981,-64.4493,2,0.00147933,10,0.00332546,-1.19078,0.922899,0.063929,-161.578,-0.0515981,
2,0,0,1,0,2451.37,-0.0652967,-0.0655446,-63.2171,2,0.000588064,10,0.00414354,-1.19917,4.12618,0.0142989,-35.3756,-0.0655446,
2,0,0,1,0,2451.39,-0.0792798,-0.0795356,-63.2535,2,-0.000296003,10,0.00503091,-1.19892,-4.20781,-0.0140215,34.6793,-0.0795356,
2,0,0,1,0,2451.4,-0.0932629,-0.0935256,-64.1276,2,-0.0011868,10,0.00599757,-1.19296,-1.74046,-0.0338991,84.9348,-0.0935256,
2,0,0,1,0,2451.41,-0.107296,-0.107578,-65.6133,2,-0.0020944,10,0.00705855,-1.18301,-1.26245,-0.0467345,119.703,-0.107578,
2,0,0,1,0,2451.43,-0.121279,-0.121565,-67.3863,2,-0.00302522,10,0.00819181,-1.17143,-1.14631,-0.0514694,135.42,-0.121565,
2,0,0,1,0,2451.44,-0.135262,-0.135556,-69.4527,2,-0.0039828,10,0.00941472,-1.15831,-1.01373,-0.0582007,157.798,-0.135556,
2,0,0,1,0,2451.46,-0.149295,-0.14958,-71.8477,2,-0.00497172,10,0.010747,-1.14359,-0.93239,-0.0632783,177.393,-0.14958,
2,0,0,1,0,2451.47,-0.163278,-0.163555,-74.363,2,-0.00599534,10,0.0121624,-1.12864,-0.909587,-0.0648646,188.348,-0.163555,
2,0,0,1,0,2451.48,-0.177261,-0.177466,-77.1422,2,-0.0070558,10,0.0136901,-1.11271,-0.838931,-0.0703276,211.847,-0.1774663,
2,0,0,1,0,2451.5,-0.191295,-0.191529,-80.3963,2,-0.00815816,10,0.0153983,-1.09476,-0.742542,-0.0794568,249.325,-0.191529,
2,0,0,1,1,2451.51,-0.199984,-0.200437,-82.345,2,-0.00891678,10,0.016505,-1.08436,-0.0291291,-2.02547,5478.86,-0.2004368,
2,0,0,1,1,2451.52,-0.186686,-0.187179,-41.9124,2,-0.00970264,10,0.0078451,-1.37766,-0.0375192,-1.57253,2498.61,-0.187179,
2,0,0,1,1,2451.53,-0.172667,-0.173102,-12.3549,2,-0.0100683,10,0.00213866,-1.90816,-0.0103554,-5.69752,1814.7,-0.173102,
2,1,0,1,1,2451.55,-0.158684,-0.159188,9.43363,2,-0.0100796,10,-0.00150172,-2.02532,0.0169593,3.47892,1367.42,-0.159188,
2,1,0,1,1,2451.56,-0.14467,-0.1452,26.137,2,-0.00982471,10,-0.00379509,-1.58275,0.0538975,1.09467,1048.79,-0.1452,
2,1,0,1,1,2451.58,-0.130668,-0.131068,38.983,2,-0.0093629,10,-0.00510943,-1.40913,0.111531,0.529,786.171,-0.131068,
2,1,0,1,1,2451.59,-0.116685,-0.117079,48.4264,2,-0.00874699,10,-0.00566973,-1.31492,0.189748,0.310938,580.672,-0.117079,
2,1,0,1,1,2451.6,-0.102654,-0.103038,55.3766,2,-0.00801747,10,-0.00570592,-1.25667,0.303195,0.194594,417.345,-0.103038,
2,1,0,1,1,2451.62,-0.0886685,-0.0890146,60.2168,2,-0.00720558,10,-0.00536017,-1.22028,0.485864,0.121433,284.045,-0.0890146,
2,1,0,1,1,2451.63,-0.0746854,-0.0750564,63.4954,2,-0.00633781,10,-0.00476574,-1.19726,0.761627,0.0774657,191.318,-0.0750564,
2,1,0,1,1,2451.65,-0.0606523,-0.0609827,65.7101,2,-0.00543259,10,-0.00400718,-1.18237,1.20513,0.0489574,125.197,-0.0609827,
2,1,0,1,1,2451.66,-0.0466692,-0.0470203,66.9756,2,-0.0045028,10,-0.00314921,-1.17408,2.35687,0.0250332,65.3232,-0.0470203,
2,1,0,1,1,2451.67,-0.0326861,-0.0330664,67.5908,2,-0.00356013,10,-0.00223499,-1.17011,6.58142,0.00896463,23.6144,-0.0330664,
2,1,0,1,1,2451.69,-0.018653,-0.018962,67.7619,2,-0.00261253,10,-0.0012849,-1.16901,-24.4776,-0.00241037,-6.36219,-0.018962,
2,1,0,1,1,2451.7,-0.00466992,-0.00501338,67.3373,2,-0.00166622,10,-0.000337588,-1.17174, , , ,-0.00501338,
2,1,0,1,1,2451.71,-0.000175352,-0.000535284,67.0986,2,-0.00136369,10,-3.59168e-05,-1.17329, , , ,-0.000535284,

File: 20221101_1-115_002_TrumpetPlot_ParaChange_16_CV_C01_2.csv
mode,ox/red,error,control changes,counter inc.,time/s,control/V,Ewe/V,<I>/mA,cycle number,(Q-Qo)/C,I Range,P/W,log(|I|),Tafel slope mV/dec,alpha_eff,dI/d(E-IR),E-IR/V,
2,1,0,1,0,3682.34,2.44065e-05,-0.00118425,60.419,3,0.0000000E+000,10,-7.15514e-05,-1.21883, , , ,-0.00118425,
2,1,0,1,0,3682.35,0.0131086,0.012759,55.2362,3,0.000740577,10,0.000704761,-1.25778,-1.64525,-0.0358608,-78.0728,0.012759,
2,1,0,1,0,3682.36,0.0271416,0.0268009,55.2078,3,0.00151287,10,0.00147962,-1.258,12.4416,0.00474215,10.2115,0.0268009,
2,1,0,1,0,3682.38,0.0411248,0.0408025,55.3113,3,0.00228642,10,0.00225684,-1.25719,19.072,0.00309354,6.67496,0.0408025,
2,1,0,1,0,3682.39,0.0551079,0.0547363,55.3378,3,0.00306108,10,0.00302898,-1.25698,9.33009,0.00632363,13.6817,0.0547363,
2,1,0,1,0,3682.4,0.0691409,0.0688174,55.786,3,0.00383797,10,0.00383905,-1.25348,2.65631,0.0222113,48.3494,0.0688174,
2,1,0,1,0,3682.42,0.083124,0.0827999,56.6118,3,0.00462404,10,0.00468746,-1.24709,1.46897,0.0401642,88.9845,0.0827999,
2,1,0,1,0,3682.43,0.0971071,0.0968068,58.357,3,0.0054279,10,0.00564936,-1.23391,0.807244,0.0730882,167.07,0.0968068,
2,1,0,1,0,3682.45,0.11114,0.110796,61.2581,3,0.00626425,10,0.00678714,-1.21284,0.584617,0.100921,241.676,0.110796,
2,1,0,1,0,3682.46,0.125123,0.124822,65.0872,3,0.00714784,10,0.0081243,-1.1865,0.486958,0.12116,308.312,0.124822,
2,1,0,1,0,3682.47,0.139106,0.138818,69.818,3,0.0080917,10,0.009692,-1.15603,0.434617,0.135752,370.579,0.138818,
2,1,0,1,0,3682.49,0.153139,0.152801,75.433,3,0.00910822,10,0.0115262,-1.12244,0.40552,0.145492,428.822,0.152801,
2,1,0,1,0,3682.5,0.167123,0.166786,81.897,3,0.0102091,10,0.0136593,-1.08673,0.378081,0.156051,499.442,0.166786,
2,1,0,1,0,3682.52,0.181106,0.180761,89.3279,3,0.0114076,10,0.016147,-1.04901,0.366906,0.160804,561.035,0.180761,
2,1,0,1,0,3682.53,0.195139,0.194816,97.3693,3,0.0127154,10,0.0189691,-1.01158,0.400617,0.147273,558.745,0.194816,
2,1,0,1,0,3682.54,0.209122,0.208827,104.826,3,0.0141326,10,0.0218906,-0.97953,0.512891,0.115034,468.7,0.208827,
2,1,0,1,0,3682.56,0.223105,0.222814,109.927,3,0.0156407,10,0.0244934,-0.958894,1.24867,0.0472504,201.131,0.2228139,
2,1,0,1,0,3682.57,0.237138,0.236864,109.593,3,0.017186,10,0.0259588,-0.960215,-0.781193,-0.0755255,-318.807,0.236864,
2,1,0,1,0,3682.59,0.251121,0.250897,100.718,3,0.0186676,10,0.0252698,-0.996893,-0.24688,-0.238982,-925.785,0.250897,
2,1,0,1,0,3682.6,0.265104,0.264927,84.374,3,0.0199677,10,0.0223529,-1.07379,-0.149867,-0.393681,-1285.43,0.264927,
2,1,0,1,0,3682.61,0.279137,0.278994,66.0772,3,0.0210179,10,0.0184351,-1.17995,-0.125095,-0.471641,-1219.67,0.2789942,
2,1,0,1,0,3682.63,0.29312,0.292914,51.4523,3,0.0218325,10,0.0150711,-1.2886,-0.140037,-0.421316,-864.088,0.292914,
2,1,0,1,0,3682.64,0.298714,0.298801,41.5518,3,0.0222242,10,0.0124157,-1.38141,0.018136,3.25319,3761.56,0.2988005,
2,1,0,1,0,3682.65,0.28473,0.284668,5.20504,3,0.0225126,10,0.00148171,-2.28358,0.0267625,2.20458,1722,0.284668,
2,0,0,1,0,3682.66,0.270747,0.270572,-10.9392,3,0.0224562,10,-0.00295985,-1.96101,-0.0235215,-2.50834,786.971,0.270572,
2,0,0,1,0,3682.68,0.256714,0.256484,-18.5657,3,0.0222424,10,-0.0047618,-1.73129,-0.106403,-0.554493,385.403,0.256484,
2,0,0,1,0,3682.69,0.242731,0.242464,-22.5133,3,0.0219521,10,-0.00545868,-1.64756,-0.232104,-0.254196,220.724,0.242464,
2,0,0,1,0,3682.71,0.228748,0.228469,-25.034,3,0.021618,10,-0.00571949,-1.60147,-0.35906,-0.164318,160.148,0.228469,
2,0,0,1,0,3682.72,0.214715,0.214463,-27.1451,3,0.0212519,10,-0.00582162,-1.56631,-0.434079,-0.13592,143.905,0.214463,
2,0,0,1,0,3682.73,0.200732,0.20049,-29.2257,3,0.0208575,10,-0.00585946,-1.53424,-0.410223,-0.143824,164.375,0.20049,
2,0,0,1,0,3682.75,0.186735,0.186508,-31.8122,3,0.0204308,10,-0.00593322,-1.49741,-0.33994,-0.17356,216.398,0.1865077,
2,0,0,1,0,3682.76,0.172716,0.172481,-35.3404,3,0.0199613,10,-0.00609554,-1.45173,-0.279401,-0.211166,292.647,0.172481,
2,0,0,1,0,3682.78,0.158733,0.158484,-40.2115,3,0.0194339,10,-0.00637289,-1.39565,-0.225265,-0.261914,413.228,0.158484,
2,0,0,1,0,3682.79,0.144719,0.14452,-46.9581,3,0.0188255,10,-0.00678638,-1.32829,-0.196567,-0.300152,552.32,0.14452,
2,0,0,1,0,3682.8,0.130717,0.130556,-55.5912,3,0.0181083,10,-0.00725778,-1.25499,-0.190036,-0.310467,674.734,0.1305564,
2,0,0,1,0,3682.82,0.116733,0.116605,-65.6739,3,0.0172595,10,-0.00765788,-1.18261,-0.203949,-0.289287,739.67,0.116605,
2,0,0,1,0,3682.83,0.102703,0.102624,-76.0758,3,0.0162668,10,-0.00780722,-1.11875,-0.237787,-0.248121,734.572,0.102624,
2,0,0,1,0,3682.85,0.0887173,0.0886322,-85.9028,3,0.0151305,10,-0.00761375,-1.06599,-0.29926,-0.197153,658.805,0.0886322,
2,0,0,1,0,3682.86,0.0747341,0.0745616,-94.4607,3,0.0138651,10,-0.00704315,-1.02475,-0.411929,-0.143229,524.979,0.0745616,
2,0,0,1,0,3682.87,0.0607011,0.0604816,-100.395,3,0.0124973,10,-0.00607206,-0.998287,-0.772774,-0.0763483,297.16,0.0604816,
2,0,0,1,0,3682.89,0.046718,0.0464556,-102.584,3,0.0110717,10,-0.00476562,-0.988919,-14.1351,-0.004174,16.6072,0.0464556,
2,0,0,1,0,3682.9,0.0327349,0.0324699,-100.984,3,0.00964307,10,-0.00327893,-0.995749,1.05625,0.0558582,-219.192,0.0324699,
2,0,0,1,0,3682.92,0.0187018,0.0184142,-96.8948,3,0.00825679,10,-0.00178424,-1.0137,0.647792,0.0910786,-343.481,0.0184142,
2,0,0,1,0,3682.93,0.00471873,0.00443378,-91.436,3,0.00693783,10,-0.000405407,-1.03888,0.496399,0.118856,-423.337,0.00443378,
2,0,0,1,0,3682.94,-0.00926438,-0.00959964,-84.9794,3,0.00570182,10,0.000815772,-1.07069,0.388527,0.151856,-502.429,-0.00959964,
2,0,0,1,0,3682.96,-0.0232974,-0.0236225,-77.7532,3,0.00456345,10,0.00183672,-1.10928,0.352761,0.167252,-507.453,-0.0236225,
2,0,0,1,0,3682.97,-0.0372805,-0.0375742,-71.1349,3,0.00352393,10,0.00267284,-1.14792,0.411302,0.143447,-400.067,-0.0375742,
2,0,0,1,0,3682.99,-0.0512636,-0.0515822,-66.6728,3,0.00256233,10,0.00343913,-1.17605,0.637108,0.0926059,-242.113,-0.0515822,
2,0,0,1,0,3683,-0.0652967,-0.0655859,-64.3617,3,0.00164775,10,0.00422122,-1.19137,1.3585,0.0434303,-109.404,-0.0655859,
2,0,0,1,0,3683.01,-0.0792798,-0.0795791,-63.4293,3,0.00075475,10,0.00504765,-1.19771,5.7162,0.0103215,-25.6221,-0.0795791,
2,0,0,1,0,3683.03,-0.0932629,-0.0935436,-63.5304,3,-0.000133158,10,0.00594286,-1.19702,-4.34962,-0.0135644,33.6962,-0.0935436,
2,0,0,1,0,3683.04,-0.107296,-0.107599,-64.3991,3,-0.00102791,10,0.0069293,-1.19112,-1.92926,-0.0305816,76.8817,-0.107599,
2,0,0,1,0,3683.06,-0.121279,-0.121575,-65.6079,3,-0.00193757,10,0.0079763,-1.18304,-1.50222,-0.0392751,100.649,-0.121575,
2,0,0,1,0,3683.07,-0.135262,-0.135569,-67.1952,3,-0.002867,10,0.00910955,-1.17266,-1.25274,-0.0470968,123.591,-0.135569,
2,0,0,1,0,3683.08,-0.149295,-0.149614,-69.135,3,-0.00382111,10,0.0103435,-1.1603,-1.09082,-0.0540879,145.936,-0.149614,
2,0,0,1,0,3683.1,-0.163278,-0.163556,-71.2307,3,-0.00480374,10,0.0116502,-1.14733,-1.03889,-0.0567915,157.942,-0.163556,
2,0,0,1,0,3683.11,-0.177261,-0.177524,-73.5637,3,-0.00581721,10,0.0130593,-1.13334,-0.960476,-0.0614279,176.44,-0.177524,
2,0,0,1,0,3683.13,-0.191295,-0.191577,-76.2694,3,-0.00686567,10,0.0146115,-1.11765,-0.849798,-0.0694283,206.654,-0.191577,
2,0,0,1,1,3683.14,-0.199984,-0.200475,-77.8075,3,-0.00758394,10,0.0155985,-1.10898,-0.0324006,-1.82095,4737.39,-0.200475,
2,0,0,1,1,3683.15,-0.186686,-0.187101,-42.8658,3,-0.00835033,10,0.00802025,-1.36789,-0.0445831,-1.32337,2179.16,-0.187101,
2,0,0,1,1,3683.16,-0.172667,-0.173088,-16.9301,3,-0.00875708,10,0.00293039,-1.77134,-0.0204809,-2.88073,1606.37,-0.173088,
2,1,0,1,1,3683.18,-0.158684,-0.159189,2.60968,3,-0.00884919,10,-0.000415432,-2.58341,0.0914772,0.64497,1235.39,-0.159189,
2,1,0,1,1,3683.19,-0.14467,-0.145198,17.8885,3,-0.00870011,10,-0.00259738,-1.74743,0.0384078,1.53614,969.838,-0.145198,
2,1,0,1,1,3683.2,-0.130668,-0.131075,30.0716,3,-0.00835973,10,-0.00394162,-1.52184,0.0879991,0.670462,763.382,-0.131075,
2,1,0,1,1,3683.22,-0.116685,-0.117098,39.4242,3,-0.00786938,10,-0.00461651,-1.40424,0.153341,0.384764,584.165,-0.1170984,
2,1,0,1,1,3683.23,-0.102654,-0.103019,46.6711,3,-0.00726414,10,-0.00480802,-1.33095,0.23811,0.247785,447.119,-0.103019,
2,1,0,1,1,3683.25,-0.0886685,-0.0890538,52.0387,3,-0.00657087,10,-0.00463425,-1.28367,0.360261,0.16377,330.85,-0.08905381,
2,1,0,1,1,3683.26,-0.0746854,-0.0750257,55.9903,3,-0.00581267,10,-0.00420071,-1.25189,0.532012,0.1109,241.539,-0.0750257,
2,1,0,1,1,3683.27,-0.0606523,-0.0610071,58.9585,3,-0.00500711,10,-0.00359689,-1.22945,0.769328,0.0766903,175.815,-0.0610071,
2,1,0,1,1,3683.29,-0.0466692,-0.0469747,60.9589,3,-0.00416688,10,-0.00286353,-1.21496,1.17901,0.0500418,118.789,-0.0469747,
2,1,0,1,1,3683.3,-0.0326861,-0.0330081,62.273,3,-0.00330345,10,-0.00205552,-1.2057,1.91034,0.0308846,74.9646,-0.0330081,
2,1,0,1,1,3683.32,-0.018653,-0.0190458,63.1202,3,-0.00242527,10,-0.00120217,-1.19983,3.72037,0.0158586,38.9831,-0.01904575,
2,1,0,1,1,3683.33,-0.00466992,-0.0049943,63.3562,3,-0.00153948,10,-0.000316419,-1.19821, , , ,-0.0049943,
2,1,0,1,1,3683.34,-0.000175352,-0.000516197,63.299,3,-0.00125446,10,-3.26747e-05,-1.1986, , , ,-0.000516197,