Folder: Figs_alphaMnO2_OER_Tafel_sleope/Figure_codes/Fig_3-5/rawdata_trumpetplot_data/before 10th (part 43)

File: 20221101_1-115_002_TrumpetPlot_ParaChange_13_CV_C01_0.csv
mode,ox/red,error,control changes,counter inc.,time/s,control/V,Ewe/V,<I>/mA,cycle number,(Q-Qo)/C,I Range,P/W,log(|I|),Tafel slope mV/dec,alpha_eff,dI/d(E-IR),E-IR/V,
2,1,0,1,0,1214.19,2.44065e-05,-0.000687983,11.7849,1,0.0000000E+000,10,-8.10778e-06,-1.92868, , , ,-0.0006879826,
2,1,0,1,0,1214.22,0.0100623,0.00975914,17.4373,1,0.000377989,10,0.000170174,-1.75852,0.110709,0.532926,358.507,0.00975914,
2,1,0,1,0,1214.24,0.0204636,0.0201236,19.7445,1,0.000866757,10,0.000397329,-1.70455,0.355659,0.165889,127.514,0.0201236,
2,1,0,1,0,1214.27,0.0308677,0.030577,20.5154,1,0.00139249,10,0.000627301,-1.68792,1.28109,0.0460545,36.8201,0.030577,
2,1,0,1,0,1214.3,0.0412635,0.040934,20.6905,1,0.00192863,10,0.000846946,-1.68423,8.87859,0.0066452,5.35932,0.040934,
2,1,0,1,0,1214.32,0.051662,0.0513345,20.7426,1,0.00246728,10,0.00106481,-1.68314,3.49032,0.0169039,13.7135,0.0513345,
2,1,0,1,0,1214.35,0.0620633,0.0617413,21.0364,1,0.00301007,10,0.00129882,-1.67703,1.11725,0.0528084,43.4105,0.06174133,
2,1,0,1,0,1214.37,0.0724674,0.0721333,21.7365,1,0.00356516,10,0.00156793,-1.66281,0.586637,0.100573,85.3141,0.0721333,
2,1,0,1,0,1214.4,0.0828632,0.082556,22.8087,1,0.00414339,10,0.001883,-1.6419,0.437551,0.134841,120.172,0.082556,
2,1,0,1,0,1214.43,0.0932618,0.0929512,24.4351,1,0.00475647,10,0.00227127,-1.61199,0.31391,0.187952,179.382,0.0929512,
2,1,0,1,0,1214.45,0.103669,0.103357,26.4603,1,0.0054176,10,0.00273485,-1.57741,0.285126,0.206926,213.754,0.103357,
2,1,0,1,0,1214.48,0.114067,0.113744,28.8371,1,0.00613581,10,0.00328003,-1.54005,0.269599,0.218844,246.214,0.113744,
2,1,0,1,0,1214.5,0.124463,0.124165,31.6258,1,0.00692096,10,0.00392683,-1.49996,0.246199,0.239643,296.047,0.124165,
2,1,0,1,0,1214.53,0.134861,0.134526,35.0819,1,0.00778698,10,0.00471941,-1.45492,0.215038,0.27437,376.244,0.134526,
2,1,0,1,0,1214.56,0.145268,0.144966,39.4574,1,0.0087544,10,0.00571999,-1.40387,0.197517,0.298708,459.863,0.144966,
2,1,0,1,0,1214.58,0.155667,0.155357,44.5395,1,0.00984555,10,0.00691953,-1.35125,0.201753,0.292437,508.137,0.1553572,
2,1,0,1,0,1214.61,0.166063,0.165709,49.7978,1,0.0110731,10,0.00825194,-1.30279,0.232851,0.25338,492.244,0.165709,
2,1,0,1,0,1214.63,0.176461,0.176149,54.384,1,0.0124309,10,0.00957967,-1.26453,0.345712,0.170662,361.418,0.176149,
2,1,0,1,0,1214.66,0.186868,0.186602,56.713,1,0.0138824,10,0.0105828,-1.24632,3.50514,0.0168324,37.1058,0.186602,
2,1,0,1,0,1214.69,0.197267,0.19697,54.3043,1,0.0153386,10,0.0106963,-1.26517,-0.228327,-0.258401,-544.174,0.19697,
2,1,0,1,0,1214.71,0.207662,0.207382,45.3667,1,0.0166467,10,0.00940824,-1.34326,-0.0926757,-0.636628,-1119.7,0.207382,
2,1,0,1,0,1214.74,0.218061,0.217777,32.6742,1,0.0176615,10,0.00711569,-1.4858,-0.0632023,-0.933511,-1190.02,0.217777,
2,1,0,1,0,1214.76,0.228468,0.228209,22.3662,1,0.0183655,10,0.00510417,-1.65041,-0.0693479,-0.850783,-748.065,0.228209,
2,1,0,1,0,1214.79,0.238866,0.238603,17.1918,1,0.0188687,10,0.00410203,-1.76468,-0.139512,-0.422904,-286.171,0.238603,
2,1,0,1,0,1214.82,0.249262,0.248978,15.5284,1,0.0192894,10,0.00386625,-1.80887,-0.456535,-0.129234,-78.6053,0.248978,
2,1,0,1,0,1214.84,0.259661,0.259408,15.1073,1,0.0196865,10,0.00391897,-1.82081,-1.62064,-0.0364053,-21.48,0.2594085,
2,1,0,1,0,1214.87,0.270068,0.269823,14.9421,1,0.0200769,10,0.00403171,-1.82559,-2.36881,-0.0249071,-14.5219,0.269823,
2,1,0,1,0,1214.89,0.280466,0.280163,14.7739,1,0.0204631,10,0.00413908,-1.83051,-1.82802,-0.0322754,-18.5892,0.280163,
2,1,0,1,0,1214.92,0.290862,0.290572,14.5642,1,0.0208444,10,0.00423195,-1.83671,-1.50034,-0.0393244,-22.3362,0.290572,
2,1,0,1,0,1214.94,0.300012,0.29967,14.3633,1,0.0211758,10,0.00430426,-1.84274,0.000171669,343.684,142082,0.29967,
2,0,0,1,0,1214.97,0.290704,0.290481,-3.76742,1,0.0212443,10,-0.00109436,-2.42396,-0.00553856,-10.6526,832.256,0.290481,
2,0,0,1,0,1214.99,0.280305,0.280038,-7.86845,1,0.0210792,10,-0.00220346,-2.10411,-0.100943,-0.584489,176.805,0.280038,
2,0,0,1,0,1215.02,0.269909,0.269609,-8.97953,1,0.0208581,10,-0.00242096,-2.04675,-0.27488,-0.214639,75.0611,0.269609,
2,0,0,1,0,1215.04,0.2595,0.259189,-9.64733,1,0.0206157,10,-0.00250048,-2.01559,-0.363143,-0.162471,61.065,0.259189,
2,0,0,1,0,1215.07,0.249104,0.248793,-10.2403,1,0.0203573,10,-0.00254771,-1.98969,-0.449313,-0.131312,52.3913,0.2487928,
2,0,0,1,0,1215.1,0.238705,0.23846,-10.8367,1,0.0200834,10,-0.00258412,-1.9651,-0.418976,-0.140819,59.6703,0.23846,
2,0,0,1,0,1215.12,0.22831,0.228026,-11.4959,1,0.019793,10,-0.00262136,-1.93946,-0.385138,-0.153192,68.7958,0.228026,
2,0,0,1,0,1215.15,0.2179,0.21761,-12.2842,1,0.0194841,10,-0.00267316,-1.91065,-0.353182,-0.167053,79.9037,0.21761,
2,0,0,1,0,1215.17,0.207504,0.207202,-13.1745,1,0.0191537,10,-0.00272979,-1.88026,-0.303491,-0.194404,100.176,0.207202,
2,0,0,1,0,1215.2,0.197106,0.196818,-14.3598,1,0.0187959,10,-0.00282626,-1.84285,-0.249638,-0.236342,132.82,0.196818,
2,0,0,1,0,1215.23,0.18671,0.186454,-15.9669,1,0.0184023,10,-0.00297709,-1.79678,-0.204766,-0.288134,179.725,0.186454,
2,0,0,1,0,1215.25,0.1763,0.176002,-18.1671,1,0.0179597,10,-0.00319745,-1.74071,-0.168937,-0.349242,248.068,0.176002,
2,0,0,1,0,1215.28,0.165905,0.165623,-21.2065,1,0.0174495,10,-0.00351228,-1.67353,-0.145104,-0.406605,337.012,0.165623,
2,0,0,1,0,1215.3,0.155506,0.155229,-25.3634,1,0.0168466,10,-0.00393713,-1.59579,-0.128815,-0.45802,453.688,0.155229,
2,0,0,1,0,1215.33,0.145105,0.144851,-30.6745,1,0.01612,10,-0.00444323,-1.51322,-0.127866,-0.46142,551.556,0.144851,
2,0,0,1,0,1215.36,0.134701,0.134444,-36.7877,1,0.0152444,10,-0.00494587,-1.4343,-0.138063,-0.42734,613.132,0.134444,
2,0,0,1,0,1215.38,0.124305,0.124083,-43.0486,1,0.0142053,10,-0.00534158,-1.36604,-0.16996,-0.34714,582.585,0.124083,
2,0,0,1,0,1215.41,0.113906,0.113624,-48.7536,1,0.013009,10,-0.00553957,-1.31199,-0.231302,-0.255078,484.387,0.113624,
2,0,0,1,0,1215.43,0.103505,0.103188,-52.8372,1,0.0116836,10,-0.00545219,-1.27706,-0.435183,-0.135575,278.851,0.103188,
2,0,0,1,0,1215.46,0.0931008,0.0928293,-54.206,1,0.0102846,10,-0.0050319,-1.26595,3.67592,0.0160504,-33.849,0.0928293,
2,0,0,1,0,1215.49,0.0827051,0.0824171,-51.8932,1,0.00889713,10,-0.00427689,-1.28489,0.292522,0.201694,-406.904,0.0824171,
2,0,0,1,0,1215.51,0.0723065,0.072022,-46.2471,1,0.00761685,10,-0.00333081,-1.33492,0.168212,0.350749,-632.072,0.072022,
2,0,0,1,0,1215.54,0.0618996,0.0615918,-39.6238,1,0.00650195,10,-0.0024405,-1.40204,0.151082,0.390516,-604.4,0.0615918,
2,0,0,1,0,1215.56,0.0515011,0.0511617,-34.0018,1,0.00554847,10,-0.00173959,-1.4685,0.162274,0.363582,-482.587,0.0511617,
2,0,0,1,0,1215.59,0.0411053,0.0407951,-29.5549,1,0.00472514,10,-0.00120569,-1.52937,0.179141,0.32935,-380.18,0.0407951,
2,0,0,1,0,1215.62,0.0307068,0.030419,-26.0926,1,0.00400403,10,-0.000793713,-1.58348,0.214328,0.275279,-281.092,0.030419,
2,0,0,1,0,1215.64,0.0202999,0.0200037,-23.8124,1,0.00335828,10,-0.000476337,-1.6232,0.347205,0.169928,-158.175,0.0200037,
2,0,0,1,0,1215.67,0.00990136,0.00958311,-22.7194,1,0.00275621,10,-0.000217723,-1.6436,0.961646,0.0613531,-54.464,0.00958311,
2,0,0,1,0,1215.69,-0.000494411,-0.000844923,-22.5745,1,0.0021693,10,1.90737e-05,-1.64638,-3.76979,-0.0156507,13.7733,-0.000844923,
2,0,0,1,0,1215.72,-0.010893,-0.0112624,-22.8279,1,0.00158003,10,0.000257096,-1.64153,-1.1934,-0.0494388,44.0727,-0.0112624,
2,0,0,1,0,1215.75,-0.0212998,-0.0217031,-23.3846,1,0.000979593,10,0.000507519,-1.63107,-0.877115,-0.067266,61.3895,-0.02170313,
2,0,0,1,0,1215.77,-0.0316984,-0.0320294,-24.0811,1,0.00036281,10,0.000771302,-1.61832,-0.786685,-0.0749982,70.4339,-0.0320294,
2,0,0,1,0,1215.8,-0.0420942,-0.0424468,-24.8245,1,-0.00027301,10,0.00105372,-1.60512,-0.7839,-0.0752647,72.9788,-0.0424468,
2,0,0,1,0,1215.82,-0.0524927,-0.0527996,-25.6297,1,-0.000929121,10,0.00135324,-1.59126,-0.753972,-0.0782523,78.2969,-0.05279956,
2,0,0,1,0,1215.85,-0.0628996,-0.0632265,-26.4892,1,-0.00160644,10,0.00167482,-1.57693,-0.736869,-0.0800685,82.6903,-0.0632265,
2,0,0,1,0,1215.88,-0.0732982,-0.0736419,-27.3507,1,-0.00230611,10,0.00201416,-1.56303,-0.701071,-0.0841569,89.8637,-0.0736419,
2,0,0,1,0,1215.9,-0.0836939,-0.0840455,-28.3414,1,-0.00303003,10,0.00238197,-1.54758,-0.629643,-0.0937039,103.691,-0.0840455,
2,0,0,1,0,1215.93,-0.0940925,-0.0944386,-29.4935,1,-0.00378161,10,0.00278532,-1.53027,-0.566329,-0.10418,119.895,-0.09443856,
2,0,0,1,1,1215.95,-0.0978574,-0.0982518,-22.7275,1,-0.00437083,10,0.00223302,-1.64345,-0.0157996,-3.73427,3044.22,-0.09825179,
2,0,0,1,1,1215.97,-0.0874588,-0.0879086,0.32392,1,-0.00462337,10,-2.84754e-05,-3.48956,-0.229033,-0.257605,1539.53,-0.0879086,
2,1,0,1,1,1216,-0.077052,-0.0775102,11.9501,1,-0.00444619,10,-0.000926257,-1.92263,0.0328157,1.79792,809.669,-0.07751023,
2,1,0,1,1,1216.03,-0.0666562,-0.0670429,18.2121,1,-0.00404465,10,-0.00122099,-1.73964,0.0994767,0.593104,417.309,-0.0670429,
2,1,0,1,1,1216.05,-0.0562576,-0.0566001,21.3302,1,-0.00352553,10,-0.00120729,-1.671,0.235268,0.250777,208.066,-0.0566001,
2,1,0,1,1,1216.08,-0.0458563,-0.046242,22.8056,1,-0.0029491,10,-0.00105458,-1.64196,0.590614,0.099896,88.6965,-0.046242,
2,1,0,1,1,1216.1,-0.0354522,-0.0357758,23.3314,1,-0.00234803,10,-0.0008347,-1.63206,2.18376,0.0270177,24.5643,-0.0357758,
2,1,0,1,1,1216.13,-0.0250564,-0.0253912,23.3413,1,-0.0017404,10,-0.000592664,-1.63187,-3.81055,-0.0154833,-14.1061,-0.0253912,
2,1,0,1,1,1216.16,-0.0146579,-0.0150236,23.0953,1,-0.00113621,10,-0.000346976,-1.63648,-1.58919,-0.0371259,-33.4394,-0.0150236,
2,1,0,1,1,1216.18,-0.00425653,-0.00460725,22.6727,1,-0.000540927,10,-0.000104459,-1.6445,-1.1066,-0.0533166,-47.1971,-0.00460725,
2,1,0,1,1,1216.19,-7.54729e-05,-0.000229887,22.4867,1,-0.000303768,10,-5.16941e-06,-1.64807, , , ,-0.000229887,

File: 20221101_1-115_002_TrumpetPlot_ParaChange_13_CV_C01_1.csv
mode,ox/red,error,control changes,counter inc.,time/s,control/V,Ewe/V,<I>/mA,cycle number,(Q-Qo)/C,I Range,P/W,log(|I|),Tafel slope mV/dec,alpha_eff,dI/d(E-IR),E-IR/V,
2,1,0,0,0,2445.82,2.44065e-05,-0.000535284,11.6348,2,0.0000000E+000,10,-6.2279e-06,-1.93424, , , ,-0.000535284,
2,1,0,1,0,2445.85,0.0100623,0.00973475,17.5141,2,0.00037728,10,0.000170495,-1.75661,0.106023,0.556484,376.089,0.00973475,
2,1,0,1,0,2445.87,0.0204636,0.0201607,19.9338,2,0.000869632,10,0.000401878,-1.70041,0.348025,0.169528,131.32,0.0201607,
2,1,0,1,0,2445.9,0.0308677,0.0306322,20.7177,2,0.00140008,10,0.000634628,-1.68366,1.27907,0.0461273,37.2313,0.0306322,
2,1,0,1,0,2445.92,0.0412635,0.0409955,20.9456,2,0.00194206,10,0.000858676,-1.67891,3.12495,0.0188803,15.432,0.0409955,
2,1,0,1,0,2445.95,0.051662,0.0513303,21.157,2,0.00248925,10,0.00108599,-1.67455,1.51308,0.0389933,32.2357,0.0513303,
2,1,0,1,0,2445.98,0.0620633,0.0617381,21.6776,2,0.0030454,10,0.00133833,-1.66399,0.719502,0.0820011,69.4492,0.0617381,
2,1,0,1,0,2446,0.0724674,0.0721238,22.6569,2,0.00362092,10,0.0016341,-1.6448,0.453744,0.130029,115.053,0.0721238,
2,1,0,1,0,2446.03,0.0828632,0.0825168,24.0689,2,0.00422715,10,0.00198609,-1.61854,0.334938,0.176152,165.657,0.0825168,
2,1,0,1,0,2446.05,0.0932618,0.092947,26.0246,2,0.00487792,10,0.00241891,-1.58462,0.298301,0.197787,200.861,0.092947,
2,1,0,1,0,2446.08,0.103669,0.103345,28.2371,2,0.00558278,10,0.00291817,-1.54918,0.28649,0.205941,227.081,0.103345,
2,1,0,1,0,2446.11,0.114067,0.113734,30.7364,2,0.00634908,10,0.00349578,-1.51235,0.278437,0.211897,254.157,0.113734,
2,1,0,1,0,2446.13,0.124463,0.124165,33.5663,2,0.00718422,10,0.00416777,-1.4741,0.261562,0.225568,295.545,0.124165,
2,1,0,1,0,2446.16,0.134861,0.134524,36.9826,2,0.00810025,10,0.00497506,-1.432,0.231226,0.255162,368.893,0.134524,
2,1,0,1,0,2446.18,0.145268,0.144929,41.2756,2,0.00911652,10,0.00598204,-1.38431,0.211923,0.278403,448.674,0.144929,
2,1,0,1,0,2446.21,0.155667,0.155324,46.2082,2,0.0102534,10,0.00717725,-1.33528,0.219696,0.268553,484.003,0.155324,
2,1,0,1,0,2446.24,0.166063,0.165734,51.1236,2,0.0115202,10,0.00847294,-1.29138,0.267321,0.220708,439.938,0.165734,
2,1,0,1,0,2446.26,0.176461,0.176159,55.0665,2,0.012905,10,0.00970048,-1.25911,0.459362,0.128439,275.454,0.176159,
2,1,0,1,0,2446.29,0.186868,0.186564,56.1867,2,0.0143605,10,0.0104824,-1.25037,-1.02257,-0.057698,-125.895,0.186564,
2,1,0,1,0,2446.31,0.197267,0.197018,51.676,2,0.0157768,10,0.0101811,-1.28671,-0.153976,-0.383177,-767.022,0.197018,
2,1,0,1,0,2446.34,0.207662,0.207421,40.8408,2,0.0169887,10,0.00847123,-1.38891,-0.0769803,-0.76643,-1214.9,0.207421,
2,1,0,1,0,2446.37,0.218061,0.217838,28.2121,2,0.0178818,10,0.00614569,-1.54956,-0.0605577,-0.974278,-1075.8,0.217838,
2,1,0,1,0,2446.39,0.228468,0.228238,19.538,2,0.0184897,10,0.00445931,-1.70912,-0.0793664,-0.743388,-571.715,0.228238,
2,1,0,1,0,2446.42,0.238866,0.238581,15.904,2,0.0189411,10,0.0037944,-1.79849,-0.204353,-0.288716,-180.619,0.238581,
2,1,0,1,0,2446.44,0.249262,0.24894,15.0119,2,0.0193401,10,0.00373706,-1.82357,-1.10051,-0.0536113,-31.5364,0.24894,
2,1,0,1,0,2446.47,0.259661,0.259392,14.9064,2,0.0197287,10,0.00386659,-1.82663,-9.8459,-0.00599234,-3.48212,0.259392,
2,1,0,1,0,2446.5,0.270068,0.269774,14.8353,2,0.0201154,10,0.00400217,-1.8287,-3.06947,-0.0192216,-11.1258,0.269774,
2,1,0,1,0,2446.52,0.280466,0.280149,14.7016,2,0.0204997,10,0.00411865,-1.83263,-1.98741,-0.0296869,-17.0499,0.280149,
2,1,0,1,0,2446.55,0.290862,0.290551,14.5388,2,0.0208799,10,0.00422425,-1.83747,-1.68458,-0.0350236,-19.8607,0.290551,
2,1,0,0,0,2446.57,0.300012,0.299689,14.3792,2,0.0212107,10,0.0043093,-1.84226,9.21465e-05,640.285,259874,0.2996892,
2,0,0,1,0,2446.59,0.290704,0.290419,-4.19466,2,0.0212708,10,-0.00121821,-2.3773,-0.00744982,-7.91966,828.253,0.290419,
2,0,0,1,0,2446.62,0.280305,0.279988,-8.13573,2,0.0210967,10,-0.0022779,-2.0896,-0.113139,-0.521484,163.163,0.279988,
2,0,0,1,0,2446.65,0.269909,0.269643,-9.12356,2,0.0208705,10,-0.0024601,-2.03984,-0.32305,-0.182634,64.8195,0.2696425,
2,0,0,1,0,2446.67,0.2595,0.259256,-9.69242,2,0.0206255,10,-0.00251282,-2.01357,-0.417291,-0.141388,53.5507,0.259256,
2,0,0,1,0,2446.7,0.249104,0.248834,-10.2627,2,0.0203661,10,-0.0025537,-1.98874,-0.451248,-0.130748,52.2871,0.248834,
2,0,0,1,0,2446.72,0.238705,0.238436,-10.841,2,0.020092,10,-0.00258488,-1.96493,-0.432322,-0.136472,57.7239,0.2384358,
2,0,0,1,0,2446.75,0.22831,0.228046,-11.4327,2,0.0198023,10,-0.00260718,-1.94185,-0.422697,-0.13958,62.4444,0.228046,
2,0,0,1,0,2446.78,0.2179,0.217599,-12.1951,2,0.0194953,10,-0.00265363,-1.91382,-0.366211,-0.161109,76.5547,0.217599,
2,0,0,1,0,2446.8,0.207504,0.207234,-13.0536,2,0.0191677,10,-0.00270516,-1.88427,-0.318221,-0.185406,94.5091,0.2072344,
2,0,0,1,0,2446.83,0.197106,0.196799,-14.1642,2,0.0188141,10,-0.00278751,-1.84881,-0.260358,-0.226611,125.668,0.196799,
2,0,0,1,0,2446.85,0.18671,0.186416,-15.6863,2,0.0184266,10,-0.00292419,-1.80448,-0.208404,-0.283104,173.673,0.186416,
2,0,0,1,0,2446.88,0.1763,0.176018,-17.827,2,0.0179922,10,-0.00313787,-1.74892,-0.170611,-0.345816,240.829,0.176018,
2,0,0,1,0,2446.91,0.165905,0.165618,-20.8085,2,0.0174919,10,-0.00344625,-1.68176,-0.14411,-0.40941,332.818,0.165618,
2,0,0,1,0,2446.93,0.155506,0.155244,-24.9314,2,0.0169001,10,-0.00387044,-1.60325,-0.124274,-0.474758,462.492,0.155244,
2,0,0,1,0,2446.96,0.145105,0.144843,-30.3077,2,0.0161838,10,-0.00438987,-1.51845,-0.121295,-0.486416,575.862,0.144843,
2,0,0,1,0,2446.98,0.134701,0.134457,-36.5659,2,0.0153156,10,-0.00491653,-1.43692,-0.133812,-0.440919,627.4,0.134457,
2,0,0,1,0,2447.01,0.124305,0.124096,-42.8689,2,0.0142816,10,-0.00531987,-1.36786,-0.16914,-0.348823,583.179,0.124096,
2,0,0,1,0,2447.04,0.113906,0.113646,-48.59,2,0.0130897,10,-0.00552207,-1.31345,-0.228528,-0.258174,488.708,0.1136461,
2,0,0,1,0,2447.06,0.103505,0.103234,-52.6206,2,0.011769,10,-0.00543224,-1.27884,-0.441437,-0.133654,273.645,0.103234,
2,0,0,1,0,2447.09,0.0931008,0.0928165,-53.9509,2,0.0103766,10,-0.00500754,-1.268,3.74846,0.0157398,-33.0427,0.0928165,
2,0,0,1,0,2447.11,0.0827051,0.0824182,-51.8071,2,0.00899411,10,-0.00426985,-1.28561,0.319442,0.184697,-372.342,0.0824182,
2,0,0,1,0,2447.14,0.0723065,0.0720294,-46.6833,2,0.00770967,10,-0.00336257,-1.33084,0.190143,0.310293,-564.51,0.0720294,
2,0,0,1,0,2447.17,0.0618996,0.0615494,-40.7241,2,0.00657477,10,-0.00250655,-1.39015,0.171858,0.343306,-545.846,0.0615494,
2,0,0,1,0,2447.19,0.0515011,0.0511913,-35.5922,2,0.00558562,10,-0.00182201,-1.44865,0.183593,0.321363,-446.493,0.0511913,
2,0,0,1,0,2447.22,0.0411053,0.040793,-31.2689,2,0.0047182,10,-0.00127555,-1.50489,0.186009,0.31719,-387.152,0.040793,
2,0,0,1,0,2447.24,0.0307068,0.0303533,-27.471,2,0.00395617,10,-0.000833834,-1.56113,0.190587,0.30957,-332.266,0.0303533,
2,0,0,1,0,2447.27,0.0202999,0.0199836,-24.5845,2,0.00328249,10,-0.000491286,-1.60934,0.267939,0.2202,-211.821,0.01998358,
2,0,0,1,0,2447.3,0.00990136,0.00961599,-23.0474,2,0.00266623,10,-0.000221623,-1.63738,0.635096,0.0928994,-83.7855,0.00961599,
2,0,0,1,0,2447.32,-0.000494411,-0.00086295,-22.7081,2,0.00207367,10,1.9596e-05,-1.64382,-29.3945,-0.00200718,1.77554,-0.00086295,
2,0,0,1,0,2447.35,-0.010893,-0.0112613,-22.8532,2,0.00148264,10,0.000257356,-1.64105,-1.49664,-0.0394217,35.188,-0.0112613,
2,0,0,1,0,2447.37,-0.0212998,-0.0216225,-23.3586,2,0.000882215,10,0.000505073,-1.63155,-0.882819,-0.0668314,61.0046,-0.0216225,
2,0,0,1,0,2447.4,-0.0316984,-0.0319976,-24.0715,2,0.000265707,10,0.000770231,-1.6185,-0.768824,-0.0767406,72.0263,-0.0319976,
2,0,0,1,0,2447.43,-0.0420942,-0.0424426,-24.8323,2,-0.000370012,10,0.00105395,-1.60498,-0.78854,-0.0748219,72.5217,-0.0424426,
2,0,0,1,0,2447.45,-0.0524927,-0.052825,-25.6209,2,-0.00102631,10,0.00135342,-1.59141,-0.742639,-0.0794464,79.5624,-0.052825,
2,0,0,1,0,2447.48,-0.0628996,-0.0632467,-26.5054,2,-0.00170398,10,0.00167638,-1.57667,-0.71718,-0.0822666,85.0188,-0.06324669,
2,0,0,1,0,2447.5,-0.0732982,-0.0736238,-27.3848,2,-0.00240424,10,0.00201618,-1.56249,-0.699275,-0.0843732,90.1255,-0.0736238,
2,0,0,1,0,2447.53,-0.0836939,-0.0840328,-28.3652,2,-0.0031288,10,0.00238361,-1.54721,-0.65046,-0.090705,100.458,-0.0840328,
2,0,0,1,0,2447.56,-0.0940925,-0.0944046,-29.5025,2,-0.00388083,10,0.00278517,-1.53014,-0.569033,-0.103685,119.423,-0.09440463,
2,0,0,1,1,2447.58,-0.0978574,-0.098309,-22.3871,2,-0.00446917,10,0.00220086,-1.65,-0.0148074,-3.9845,3183.69,-0.098309,
2,1,0,1,1,2447.6,-0.0874588,-0.0879552,1.18747,2,-0.00470366,10,-0.000104445,-2.92538,0.0506504,1.16485,1562.18,-0.0879552,
2,1,0,1,1,2447.63,-0.077052,-0.0775113,12.8593,2,-0.00450313,10,-0.000996741,-1.89078,0.0353633,1.6684,809.453,-0.0775113,
2,1,0,1,1,2447.65,-0.0666562,-0.066973,18.9777,2,-0.00407979,10,-0.001271,-1.72176,0.107163,0.550561,403.453,-0.066973,
2,1,0,1,1,2447.68,-0.0562576,-0.0566435,21.9059,2,-0.00354328,10,-0.00124083,-1.65944,0.264579,0.222996,190.2,-0.0566435,
2,1,0,1,1,2447.71,-0.0458563,-0.0461964,23.2307,2,-0.00295371,10,-0.00107317,-1.63394,0.709444,0.0831637,75.2594,-0.0461964,
2,1,0,1,1,2447.73,-0.0354522,-0.0357906,23.6647,2,-0.00234293,10,-0.000846976,-1.6259,3.43514,0.0171754,15.821,-0.0357906,
2,1,0,1,1,2447.76,-0.0250564,-0.0253997,23.5664,2,-0.00172834,10,-0.00059858,-1.62771,-2.20635,-0.026741,-24.5957,-0.0253997,
2,1,0,1,1,2447.78,-0.0146579,-0.0149992,23.2255,2,-0.00111945,10,-0.000348364,-1.63404,-1.4179,-0.0416109,-37.7386,-0.0149992,
2,1,0,1,1,2447.81,-0.00425653,-0.0045871,22.781,2,-0.00052123,10,-0.000104499,-1.64243,-1.10901,-0.0532007,-47.272,-0.0045871,
2,1,0,0,1,2447.82,-7.54729e-05,-0.000478022,22.5599,2,-0.000283143,10,-1.07841e-05,-1.64666, , , ,-0.000478022,