Folder: Figs_alphaMnO2_OER_Tafel_sleope/Figure_codes/Fig_3-5/rawdata_trumpetplot_data/before 10th (part 56)

File: 20221101_1-115_002_TrumpetPlot_ParaChange_16_CV_C01.mpt
EC-Lab ASCII FILE
Nb header lines : 68

Cyclic Voltammetry

Run on channel : 1 (SN 65296)
User :
CE vs. WE compliance from -10 V to 10 V
Electrode connection : standard
Potential control : Ewe
Ewe ctrl range : min = -1.00 V, max = 1.00 V
Safety Limits :
	Do not start on E overload
Acquisition started on : 11/08/2022 17:30:03.488
Loaded Setting File :  NONE
Saved on :
	File : 20221101_1-115_002_TrumpetPlot_ParaChange_16_CV_C01.mpr
	Directory : C:\Users\NakamuraT\Documents\EC-Lab\Data\Yatsuzuka\20221108_1-115_001_TrumpetPlot\
	Host : 192.109.209.100
Device : SP-50e (SN .003219)
Address : 192.109.209.128
EC-Lab for windows v11.43 (software)
Internet server v11.40 (firmware)
Command interpretor v11.40 (firmware)
Electrode material : Au/Pd
Initial state :
Electrolyte : NaCl (0.2M)
Comments : Fe(CN)63-/Fe(CN)64- 5.10-3 M
Reference electrode : SCE Saturated Calomel Electrode (0.241 V)
Electrode surface area : 0.001 cm2
Characteristic mass : 0.001 g
Equivalent Weight : 0.000 g/eq.
Density : 0.000 g/cm3
Volume (V) : 0.001 cm3
Cycle Definition : Charge/Discharge alternance
Ei (V)              0.000
vs.                 Ref
dE/dt               1000.000
dE/dt unit          mV/s
E1 (V)              0.300
vs.                 Ref
Step percent        50
N                   10
E range min (V)     -1.000
E range max (V)     1.000
I Range             100 mA
I Range min         Unset
I Range max         Unset
I Range init        Unset
Bandwidth           5
E2 (V)              -0.200
vs.                 Ref
nc cycles           0
Reverse Scan        1
Ef (V)              0.000
vs.                 Ref

Number of loops : 8
Loop 0 from point number 0 to 508
Loop 1 from point number 509 to 1017
Loop 2 from point number 1018 to 1526
Loop 3 from point number 1527 to 2035
Loop 4 from point number 2036 to 2544
Loop 5 from point number 2545 to 3053
Loop 6 from point number 3054 to 3562
Loop 7 from point number 3563 to 4071

mode	ox/red	error	control changes	counter inc.	time/s	control/V	Ewe/V	<I>/mA	cycle number	(Q-Qo)/C	I Range	P/W
2	1	0	0	0	1219.08	2.44065e-05	-0.00145148	57.7662	1	0.0000000E+000	10	-8.38462e-05
2	1	0	1	0	1219.14	0.059103	0.0587255	57.1305	1	0.00337058	10	0.00335502
2	1	0	1	0	1219.2	0.119131	0.118833	63.3899	1	0.00690197	10	0.00753278
2	1	0	1	0	1219.26	0.179108	0.178731	91.9415	1	0.011442	10	0.0164328
2	1	0	1	0	1219.32	0.239136	0.238883	117.395	1	0.0180293	10	0.0280437
2	1	0	1	0	1219.38	0.298913	0.298702	44.4065	1	0.0229554	10	0.0132643
2	0	0	1	0	1219.43	0.246726	0.246508	-26.012	1	0.0225766	10	-0.00641215
2	0	0	1	0	1219.49	0.186735	0.186508	-35.5936	1	0.0207519	10	-0.00663848
2	0	0	1	0	1219.55	0.126721	0.126563	-66.9909	1	0.0178449	10	-0.00847856
2	0	0	1	0	1219.61	0.0667438	0.0665132	-110.266	1	0.0124021	10	-0.00733413
2	0	0	1	0	1219.67	0.00671632	0.00646764	-90.6558	1	0.00604654	10	-0.000586329
2	0	0	1	0	1219.73	-0.0532612	-0.0535132	-63.6088	1	0.00160369	10	0.00340391
2	0	0	1	0	1219.79	-0.113289	-0.113544	-66.1576	1	-0.00222076	10	0.00751179
2	0	0	1	0	1219.85	-0.173266	-0.173469	-76.0458	1	-0.00646576	10	0.0131916
2	0	0	1	1	1219.91	-0.172667	-0.17309	-13.855	1	-0.00980254	10	0.00239816
2	1	0	1	1	1219.97	-0.112689	-0.113058	48.8558	1	-0.00838566	10	-0.00552356
2	1	0	1	1	1220.03	-0.052662	-0.0529798	64.8601	1	-0.00484516	10	-0.00343627
2	1	0	1	0	2450.71	0.00112308	0.000842184	59.2403	2	6.52615e-05	10	4.98912e-05
2	1	0	1	0	2450.77	0.0611006	0.0607668	57.6392	2	0.00349863	10	0.00350255
2	1	0	1	0	2450.83	0.121128	0.120809	66.8315	2	0.00713451	10	0.00807386
2	1	0	1	0	2450.89	0.181106	0.180753	97.1546	2	0.0119522	10	0.017561
2	1	0	1	0	2450.95	0.241133	0.24091	112.236	2	0.0186787	10	0.0270388
2	1	0	0	0	2451.01	0.299812	0.299632	39.4783	2	0.0229818	10	0.011829
2	0	0	1	0	2451.06	0.244729	0.244474	-27.2028	2	0.022384	10	-0.00665038
2	0	0	1	0	2451.12	0.184701	0.184466	-36.0507	2	0.0205238	10	-0.00665014
2	0	0	1	0	2451.18	0.124724	0.124552	-68.8217	2	0.0175633	10	-0.00857191
2	0	0	1	0	2451.24	0.0647462	0.0645737	-110.839	2	0.012011	10	-0.00715729
2	0	0	1	0	2451.3	0.00471873	0.00441787	-90.8748	2	0.00568972	10	-0.000401473
2	0	0	1	0	2451.36	-0.0552588	-0.0555715	-63.9062	2	0.00122275	10	0.00355136
2	0	0	1	0	2451.42	-0.115286	-0.115584	-66.5933	2	-0.00262323	10	0.00769713
2	0	0	1	0	2451.48	-0.175264	-0.175506	-76.7237	2	-0.00690189	10	0.0134654
2	0	0	1	1	2451.54	-0.170669	-0.171144	-8.84303	2	-0.0100891	10	0.00151343
2	1	0	1	1	2451.6	-0.110692	-0.111072	51.6717	2	-0.00844618	10	-0.00573928
2	1	0	1	1	2451.66	-0.0506644	-0.0509873	66.6813	2	-0.00477017	10	-0.0033999
2	1	0	1	0	3682.34	0.00312067	0.0028262	57.2922	3	0.000181706	10	0.000161919
2	1	0	1	0	3682.4	0.0631481	0.0627593	55.5476	3	0.003504	10	0.00348613
2	1	0	1	0	3682.46	0.123126	0.122831	64.4704	3	0.00701822	10	0.00791899
2	1	0	1	0	3682.52	0.183103	0.182754	90.4539	3	0.0115875	10	0.0165308
2	1	0	1	0	3682.58	0.243131	0.242881	106.876	3	0.017836	10	0.0259581
2	1	0	1	0	3682.64	0.300012	0.299785	46.3494	3	0.022169	10	0.0138948
2	0	0	1	0	3682.69	0.242731	0.242464	-22.5133	3	0.0219521	10	-0.00545868
2	0	0	1	0	3682.75	0.182704	0.182415	-32.7426	3	0.0203015	10	-0.00597273
2	0	0	1	0	3682.81	0.122726	0.122577	-61.2368	3	0.0176407	10	-0.00750621
2	0	0	1	0	3682.87	0.0627403	0.0625483	-99.6906	3	0.0126975	10	-0.00623547
2	0	0	1	0	3682.93	0.00272115	0.00243173	-90.5941	3	0.00675588	10	-0.000220301
2	0	0	1	0	3682.99	-0.0572564	-0.0576255	-65.4246	3	0.00216635	10	0.00377012
2	0	0	1	0	3683.05	-0.117284	-0.117563	-65.2223	3	-0.00167587	10	0.00766773
2	0	0	1	0	3683.11	-0.177261	-0.177524	-73.5637	3	-0.00581721	10	0.0130593
2	0	0	1	1	3683.17	-0.168672	-0.169103	-10.7875	3	-0.00881178	10	0.00182419
2	1	0	1	1	3683.23	-0.108694	-0.109086	43.7679	3	-0.00753579	10	-0.00477447
2	1	0	1	1	3683.29	-0.0486668	-0.0489757	60.7013	3	-0.00428857	10	-0.00297289
2	1	0	1	0	4913.97	0.00511825	0.0048537	56.2538	4	0.000296116	10	0.000273039
2	1	0	1	0	4914.03	0.0651457	0.0647773	55.191	4	0.00358525	10	0.00357512
2	1	0	1	0	4914.09	0.125123	0.124804	65.3996	4	0.00711998	10	0.00816211
2	1	0	1	0	4914.15	0.185101	0.184753	90.619	4	0.0117357	10	0.0167421
2	1	0	1	0	4914.21	0.245128	0.244894	100.259	4	0.0178317	10	0.0245528
2	1	0	0	0	4914.26	0.299812	0.299899	45.9449	4	0.021784	10	0.0137788
2	0	0	1	0	4914.32	0.240734	0.240517	-21.133	4	0.0216171	10	-0.00508286
2	0	0	1	0	4914.38	0.180706	0.180458	-31.5392	4	0.0200416	10	-0.00569151
2	0	0	1	0	4914.44	0.120729	0.120571	-59.278	4	0.0174707	10	-0.00714718
2	0	0	1	0	4914.5	0.0607011	0.0605155	-95.9282	4	0.0127002	10	-0.00580514
2	0	0	1	0	4914.56	0.000723562	0.000371364	-89.2671	4	0.00694475	10	-3.31505e-05
2	0	0	1	0	4914.62	-0.059254	-0.0595416	-65.8599	4	0.00235531	10	0.00392141
2	0	0	1	0	4914.68	-0.119282	-0.11961	-65.2309	4	-0.00150002	10	0.0078023
2	0	0	1	0	4914.74	-0.179259	-0.179517	-73.2487	4	-0.0056326	10	0.0131494
2	0	0	1	1	4914.8	-0.166674	-0.167079	-9.35719	4	-0.00849563	10	0.00156339
2	1	0	1	1	4914.86	-0.106697	-0.107097	42.3497	4	-0.0072451	10	-0.00453551
2	1	0	1	1	4914.92	-0.0466692	-0.0470055	59.5104	4	-0.0040826	10	-0.00279732
2	1	0	1	0	6145.6	0.00711584	0.00679531	56.1884	5	0.000416381	10	0.000381817
2	1	0	1	0	6145.66	0.0671433	0.0667783	55.0779	5	0.00369476	10	0.00367801
2	1	0	1	0	6145.72	0.127121	0.126775	65.9938	5	0.00724922	10	0.00836636
2	1	0	1	0	6145.78	0.187146	0.186833	90.262	5	0.0118797	10	0.0168639
[...]
2	1	0	1	0	7377.35	0.129118	0.128761	68.4625	6	0.00755176	10	0.00881531
2	1	0	1	0	7377.41	0.189146	0.188765	92.9157	6	0.0123459	10	0.0175393
2	1	0	1	0	7377.47	0.249123	0.248876	92.352	6	0.0183228	10	0.0229841
2	1	0	1	0	7377.52	0.296716	0.296741	35.161	6	0.0218726	10	0.0104337
2	0	0	1	0	7377.58	0.236738	0.236474	-21.8492	6	0.0215449	10	-0.00516676
2	0	0	1	0	7377.64	0.176711	0.176492	-31.7282	6	0.019938	10	-0.00559978
2	0	0	1	0	7377.7	0.116733	0.116562	-58.3386	6	0.0173889	10	-0.00680008
2	0	0	1	0	7377.76	0.0567059	0.0564955	-92.6626	6	0.0127426	10	-0.00523502
2	0	0	1	0	7377.82	-0.00327161	-0.00357229	-88.9234	6	0.00712847	10	0.00031766
2	0	0	1	0	7377.88	-0.0632991	-0.0636263	-67.7458	6	0.00245376	10	0.00431041
2	0	0	1	0	7377.94	-0.123277	-0.123536	-65.8128	6	-0.00146789	10	0.00813026
2	0	0	1	0	7378	-0.183254	-0.183546	-73.275	6	-0.00561891	10	0.0134493
2	0	0	1	1	7378.06	-0.162679	-0.163114	-6.16216	6	-0.00822155	10	0.00100513
2	1	0	1	1	7378.12	-0.102654	-0.102999	41.2646	6	-0.00695123	10	-0.00425022
2	1	0	1	1	7378.18	-0.042674	-0.0430438	59.0287	6	-0.00384809	10	-0.00254082
2	1	0	1	0	8608.86	0.011111	0.010775	54.6244	7	0.000639426	10	0.000588578
2	1	0	1	0	8608.92	0.0711385	0.0707346	54.8854	7	0.00387033	10	0.0038823
2	1	0	1	0	8608.98	0.131116	0.130783	67.0964	7	0.00746399	10	0.00877509
2	1	0	1	0	8609.04	0.191143	0.190774	89.8765	7	0.0121352	10	0.0171461
2	1	0	1	0	8609.1	0.251121	0.250876	86.8215	7	0.0178376	10	0.0217815
2	1	0	1	0	8609.15	0.294718	0.294659	31.1876	7	0.0212103	10	0.0091897
2	0	0	1	0	8609.21	0.234741	0.23452	-19.5258	7	0.0209617	10	-0.00457919
2	0	0	1	0	8609.27	0.174713	0.17445	-29.8936	7	0.0194734	10	-0.00521493
2	0	0	1	0	8609.33	0.114736	0.114525	-55.2428	7	0.0170617	10	-0.00632669
2	0	0	1	0	8609.39	0.0547083	0.0545094	-87.2776	7	0.0126762	10	-0.00475745
2	0	0	1	0	8609.45	-0.0052692	-0.00555207	-85.2707	7	0.00735608	10	0.000473429
2	0	0	1	0	8609.51	-0.0652967	-0.065639	-66.7154	7	0.00280546	10	0.00437913
2	0	0	1	0	8609.57	-0.125274	-0.125572	-64.5767	7	-0.00105504	10	0.00810903
2	0	0	1	0	8609.63	-0.185252	-0.185543	-71.2546	7	-0.00511005	10	0.0132208
2	0	0	1	1	8609.69	-0.160682	-0.161095	-5.89803	7	-0.00754036	10	0.000950141
2	1	0	1	1	8609.75	-0.100654	-0.101013	37.788	7	-0.00639391	10	-0.00381709
2	1	0	1	1	8609.81	-0.0406764	-0.0410587	55.4341	7	-0.00351176	10	-0.00227606
2	1	0	1	0	9840.49	0.0131086	0.0127145	56.2285	8	0.000779262	10	0.000714917
2	1	0	1	0	9840.55	0.0731361	0.0727855	57.1565	8	0.00412411	10	0.00416017
2	1	0	1	0	9840.61	0.133114	0.132742	70.0743	8	0.00787756	10	0.0093018
2	1	0	1	0	9840.67	0.193141	0.192799	92.7027	8	0.0127334	10	0.017873
2	1	0	1	0	9840.73	0.253119	0.252909	84.0777	8	0.0184608	10	0.021264
2	1	0	1	0	9840.78	0.292721	0.292699	25.9124	8	0.0216936	10	0.00758452
2	0	0	1	0	9840.84	0.232743	0.232507	-21.4225	8	0.0212811	10	-0.00498088
2	0	0	1	0	9840.9	0.172716	0.17245	-31.3387	8	0.0196941	10	-0.00540436
2	0	0	1	0	9840.96	0.112738	0.112546	-56.7383	8	0.0171984	10	-0.0063857
2	0	0	1	0	9841.02	0.0527107	0.0524575	-88.5242	8	0.0127253	10	-0.00464376
2	0	0	1	0	9841.08	-0.00726679	-0.00762092	-86.7519	8	0.00732872	10	0.000661129
2	0	0	1	0	9841.14	-0.0672943	-0.0675816	-68.5212	8	0.00267169	10	0.00463077
2	0	0	1	0	9841.2	-0.127272	-0.127574	-65.938	8	-0.00128062	10	0.00841199
2	0	0	1	0	9841.26	-0.187299	-0.187601	-72.5492	8	-0.00541214	10	0.0136103
2	0	0	1	1	9841.32	-0.158684	-0.159104	-3.81113	8	-0.00773503	10	0.000606368
2	1	0	1	1	9841.38	-0.0986564	-0.0990185	39.3874	8	-0.00648467	10	-0.00390008
2	1	0	1	1	9841.44	-0.0386789	-0.0390673	57.3298	8	-0.00349851	10	-0.00223972
2	1	0	0	1	9841.48	2.44065e-05	-0.000401673	61.6498	8	-0.00117974	10	-2.4763e-05

File: 20221101_1-115_002_TrumpetPlot_ParaChange_16_CV_C01_0.csv
mode,ox/red,error,control changes,counter inc.,time/s,control/V,Ewe/V,<I>/mA,cycle number,(Q-Qo)/C,I Range,P/W,log(|I|),Tafel slope mV/dec,alpha_eff,dI/d(E-IR),E-IR/V,
2,1,0,0,0,1219.08,2.44065e-05,-0.00145148,57.7662,1,0.0000000E+000,10,-8.38462e-05,-1.23833, , , ,-0.00145148,
2,1,0,1,0,1219.09,0.0131086,0.0127877,56.5032,1,0.0007468,10,0.000722544,-1.24793,-19.9782,-0.00295322,-6.55147,0.0127877,
2,1,0,1,0,1219.11,0.0271416,0.0267882,56.9974,1,0.00154112,10,0.00152686,-1.24415,3.82305,0.0154327,34.2761,0.0267882,
2,1,0,1,0,1219.12,0.0411248,0.040811,57.2572,1,0.00234122,10,0.00233672,-1.24217,24.0531,0.0024529,5.47336,0.040811,
2,1,0,1,0,1219.13,0.0551079,0.0547267,57.1036,1,0.00314216,10,0.00312509,-1.24334,212.225,0.000278007,0.621111,0.0547267,
2,1,0,1,0,1219.15,0.0691409,0.0688439,57.301,1,0.00394299,10,0.00394482,-1.24184,7.55474,0.00780967,17.4634,0.0688439,
2,1,0,1,0,1219.16,0.083124,0.082837,57.6677,1,0.00474722,10,0.00477702,-1.23907,2.58088,0.0228605,51.5774,0.082837,
2,1,0,1,0,1219.18,0.0971071,0.0968408,58.9075,1,0.005562,10,0.00570465,-1.22983,1.00135,0.0589205,135.968,0.0968408,
2,1,0,1,0,1219.19,0.11114,0.110801,61.3817,1,0.00640298,10,0.00680116,-1.21196,0.633599,0.0931189,223.775,0.110801,
2,1,0,1,0,1219.2,0.125123,0.12484,65.1386,1,0.00728758,10,0.00813189,-1.18616,0.479913,0.122939,313.341,0.12484,
2,1,0,1,0,1219.22,0.139106,0.138817,70.1771,1,0.00823362,10,0.00974177,-1.1538,0.393503,0.149935,411.689,0.138817,
2,1,0,1,0,1219.23,0.153139,0.152821,76.5499,1,0.00925997,10,0.0116984,-1.11606,0.352275,0.167483,501.447,0.152821,
2,1,0,1,0,1219.25,0.167123,0.166774,84.255,1,0.0103849,10,0.0140515,-1.0744,0.323152,0.182577,601.386,0.166774,
2,1,0,1,0,1219.26,0.181106,0.180757,93.306,1,0.0116274,10,0.0168657,-1.03009,0.315817,0.186817,680.495,0.180757,
2,1,0,1,0,1219.27,0.195139,0.194758,103.076,1,0.013003,10,0.0200748,-0.986843,0.346843,0.170106,682.972,0.194758,
2,1,0,1,0,1219.29,0.209122,0.208812,112.077,1,0.0145119,10,0.023403,-0.950484,0.456087,0.129361,563.27,0.208812,
2,1,0,1,0,1219.3,0.223105,0.222831,118.229,1,0.0161295,10,0.026345,-0.927277,1.08136,0.054561,249.603,0.222831,
2,1,0,1,0,1219.32,0.237138,0.236864,118.159,1,0.0177938,10,0.0279877,-0.927533,-0.790856,-0.0746027,-339.255,0.236864,
2,1,0,1,0,1219.33,0.251121,0.250921,108.306,1,0.0193903,10,0.0271763,-0.965347,-0.232755,-0.253485,-1054.06,0.250921,
2,1,0,1,0,1219.34,0.265104,0.264991,89.3598,1,0.02078,10,0.0236795,-1.04886,-0.13434,-0.439183,-1514.05,0.264991,
2,1,0,1,0,1219.36,0.279137,0.27898,67.4194,1,0.0218745,10,0.0188087,-1.17122,-0.105546,-0.558996,-1471.7,0.27898,
2,1,0,1,0,1219.37,0.29312,0.292909,49.5868,1,0.0226838,10,0.0145244,-1.30463,-0.112682,-0.523598,-1040.94,0.292909,
2,1,0,1,0,1219.38,0.298714,0.298807,38.2759,1,0.023055,10,0.0114371,-1.41707,0.0134275,4.39398,4146.5,0.298807,
2,1,0,1,0,1219.39,0.28473,0.284713,-1.37368,1,0.0232675,10,-0.000391106,-2.86211,0.115243,0.511963,1786.13,0.284713,
2,0,0,1,0,1219.41,0.270747,0.27058,-17.1689,1,0.0231196,10,-0.00464555,-1.76526,-0.0478336,-1.23344,722.21,0.27058,
2,0,0,1,0,1219.42,0.256714,0.256528,-23.6973,1,0.0228263,10,-0.00607902,-1.6253,-0.17137,-0.344284,310.038,0.256528,
2,0,0,1,0,1219.44,0.242731,0.242498,-26.6959,1,0.0224711,10,-0.00647372,-1.57355,-0.369992,-0.159463,165.028,0.2424982,
2,0,0,1,0,1219.45,0.228748,0.228538,-28.6234,1,0.0220831,10,-0.00654154,-1.54328,-0.51147,-0.115354,128.822,0.228538,
2,0,0,1,0,1219.46,0.214715,0.214488,-30.449,1,0.0216691,10,-0.00653092,-1.51643,-0.514866,-0.114593,136.402,0.214488,
2,0,0,1,0,1219.48,0.200732,0.200506,-32.6021,1,0.0212283,10,-0.00653692,-1.48675,-0.414939,-0.142189,181.547,0.200506,
2,0,0,1,0,1219.49,0.186735,0.186508,-35.5936,1,0.0207519,10,-0.00663848,-1.44863,-0.318286,-0.185368,258.853,0.186508,
2,0,0,1,0,1219.51,0.172716,0.172511,-39.9004,1,0.0202244,10,-0.00688328,-1.39902,-0.25674,-0.229805,359.626,0.172511,
2,0,0,1,0,1219.52,0.158733,0.158531,-45.8358,1,0.0196259,10,-0.0072664,-1.3388,-0.213763,-0.276007,496.302,0.158531,
2,0,0,1,0,1219.53,0.144719,0.144534,-53.8486,1,0.0189297,10,-0.00778293,-1.26883,-0.192357,-0.306721,646.619,0.144534,
2,0,0,1,0,1219.55,0.130717,0.130567,-63.8526,1,0.0181069,10,-0.00833705,-1.19482,-0.191142,-0.308671,769.157,0.130567,
2,0,0,1,0,1219.56,0.116733,0.116704,-74.987,1,0.017134,10,-0.00875131,-1.12501,-0.208859,-0.282488,826.506,0.116704,
2,0,0,1,0,1219.58,0.102703,0.102667,-86.7533,1,0.0160005,10,-0.00890667,-1.06171,-0.243223,-0.242576,818.216,0.102667,
2,0,0,1,0,1219.59,0.0887173,0.0885813,-97.7868,1,0.0147069,10,-0.00866208,-1.00972,-0.308599,-0.191186,725.749,0.0885813,
2,0,0,1,0,1219.6,0.0747341,0.0745521,-106.718,1,0.0132713,10,-0.00795605,-0.971763,-0.471274,-0.125193,518.145,0.0745521,
2,0,0,1,0,1219.62,0.0607011,0.0604901,-112.044,1,0.0117347,10,-0.00677756,-0.95061,-1.26062,-0.0468025,203.015,0.0604901,
2,0,0,1,0,1219.63,0.046718,0.0464503,-112.104,1,0.0101591,10,-0.00520725,-0.95038,1.32543,0.0445137,-193.2,0.0464503,
2,0,0,1,0,1219.65,0.0327349,0.0324306,-106.937,1,0.00862152,10,-0.00346804,-0.970872,0.486916,0.121171,-502.857,0.0324306,
2,0,0,1,0,1219.66,0.0187018,0.0183983,-98.6269,1,0.00718167,10,-0.00181456,-1.006,0.355885,0.165784,-636.465,0.0183983,
2,0,0,1,0,1219.67,0.00471873,0.00440515,-89.3042,1,0.00586671,10,-0.000393398,-1.04913,0.311977,0.189116,-659.082,0.00440515,
2,0,0,1,0,1219.69,-0.00926438,-0.00961131,-80.3023,1,0.00468059,10,0.00077181,-1.09527,0.299033,0.197303,-618.909,-0.00961131,
2,0,0,1,0,1219.7,-0.0232974,-0.0235896,-72.4444,1,0.00361454,10,0.00170893,-1.14,0.345191,0.17092,-485.191,-0.0235896,
2,0,0,1,0,1219.72,-0.0372805,-0.0375827,-66.8514,1,0.00264318,10,0.00251246,-1.17489,0.51144,0.115361,-302.794,-0.0375827,
2,0,0,1,0,1219.73,-0.0512636,-0.0515493,-63.8766,1,0.00173115,10,0.0032928,-1.19466,1.05526,0.0559104,-139.968,-0.0515493,
2,0,0,1,0,1219.74,-0.0652967,-0.0655838,-62.8559,1,0.000846398,10,0.00412233,-1.20165,6.02565,0.00979147,-24.0746,-0.0655838,
2,0,0,1,0,1219.76,-0.0792798,-0.0795388,-62.9789,1,-3.34024e-05,10,0.00500927,-1.2008,-3.54698,-0.0166339,40.9785,-0.0795388,
2,0,0,1,0,1219.77,-0.0932629,-0.0935372,-63.9215,1,-0.000921142,10,0.00597904,-1.19435,-1.71068,-0.0344892,86.1268,-0.0935372,
2,0,0,1,0,1219.79,-0.107296,-0.107582,-65.4387,1,-0.00182598,10,0.00704004,-1.18417,-1.24807,-0.0472731,120.713,-0.107582,
2,0,0,1,0,1219.8,-0.121279,-0.121576,-67.1821,1,-0.00275413,10,0.00816776,-1.17275,-1.13948,-0.051778,135.867,-0.121576,
2,0,0,1,0,1219.81,-0.135262,-0.135538,-69.2307,1,-0.003709,10,0.00938338,-1.1597,-1.03331,-0.0570981,154.362,-0.135538,
2,0,0,1,0,1219.83,-0.149295,-0.149539,-71.6241,1,-0.00469474,10,0.0107106,-1.14494,-0.938141,-0.0628904,175.719,-0.149539,
2,0,0,1,0,1219.84,-0.163278,-0.163565,-74.1044,1,-0.00571486,10,0.0121209,-1.13016,-0.905936,-0.065126,188.463,-0.163565,
2,0,0,1,0,1219.86,-0.177261,-0.177542,-76.8671,1,-0.00677164,10,0.0136471,-1.11426,-0.842753,-0.0700087,210.144,-0.1775416,
2,0,0,1,0,1219.87,-0.191295,-0.19156,-80.1068,1,-0.00786991,10,0.0153453,-1.09633,-0.743165,-0.0793901,248.15,-0.19156,
2,0,0,0,1,1219.88,-0.199984,-0.200494,-82.0247,1,-0.00862558,10,0.0164455,-1.08606,-0.0304564,-1.9372,5257.18,-0.200494,
2,0,0,1,1,1219.89,-0.186686,-0.187154,-42.9524,1,-0.0094187,10,0.00803873,-1.36701,-0.039395,-1.49765,2445.52,-0.187154,
2,0,0,1,1,1219.91,-0.172667,-0.17309,-13.855,1,-0.00980254,10,0.00239816,-1.85839,-0.010136,-5.82086,1783.82,-0.17309,
2,1,0,1,1,1219.92,-0.158684,-0.159185,7.76652,1,-0.00983611,10,-0.00123631,-2.10977,0.0239044,2.46817,1356.8,-0.159185,
2,1,0,1,1,1219.93,-0.14467,-0.145227,24.3756,1,-0.00960516,10,-0.00353999,-1.61304,0.0502015,1.17526,1043.72,-0.145227,
2,1,0,1,1,1219.95,-0.130668,-0.131054,37.2149,1,-0.00916825,10,-0.00487718,-1.42928,0.106526,0.553857,784.464,-0.1310544,
2,1,0,1,1,1219.96,-0.116685,-0.117055,46.6593,1,-0.00857693,10,-0.0054617,-1.33106,0.183845,0.320922,577.206,-0.117055,
2,1,0,1,1,1219.98,-0.102654,-0.103034,53.6215,1,-0.00787221,10,-0.00552485,-1.27066,0.293042,0.201337,417.797,-0.103034,
2,1,0,1,1,1219.99,-0.0886685,-0.0890178,58.4434,1,-0.0070851,10,-0.0052025,-1.23326,0.466375,0.126508,287.232,-0.0890178,
2,1,0,1,1,1220,-0.0746854,-0.0750363,61.7322,1,-0.0062419,10,-0.00463216,-1.20949,0.734682,0.0803069,192.905,-0.0750363,
2,1,0,1,1,1220.02,-0.0606523,-0.0609891,64.0152,1,-0.00536088,10,-0.00390423,-1.19372,1.1378,0.0518543,129.149,-0.0609891,
2,1,0,1,1,1220.03,-0.0466692,-0.0470013,65.3635,1,-0.00445442,10,-0.00307217,-1.18466,2.05451,0.0287172,73.128,-0.0470013,
2,1,0,1,1,1220.05,-0.0326861,-0.0330155,66.0869,1,-0.00353362,10,-0.0021819,-1.17988,4.56489,0.0129247,33.2956,-0.0330155,
2,1,0,1,1,1220.06,-0.018653,-0.01898,66.4177,1,-0.00260596,10,-0.00126061,-1.17772,36.6316,0.00161063,4.16631,-0.01898,
2,1,0,1,1,1220.07,-0.00466992,-0.00503353,66.1641,1,-0.00167753,10,-0.000333039,-1.17938, , , ,-0.00503353,
2,1,0,0,1,1220.08,-0.000175352,-0.000497109,65.9824,1,-0.00138016,10,-3.28005e-05,-1.18057, , , ,-0.000497109,