Folder: Figs_alphaMnO2_OER_Tafel_sleope/Figure_codes/Fig_3-5/rawdata_trumpetplot_data/before 10th (part 19)

File: 20221101_1-115_002_TrumpetPlot_ParaChange_07_CV_C01_6.csv
mode,ox/red,error,control changes,counter inc.,time/s,control/V,Ewe/V,<I>/mA,cycle number,(Q-Qo)/C,I Range,P/W,log(|I|),Tafel slope mV/dec,alpha_eff,dI/d(E-IR),E-IR/V,
2,0,0,0,0,8528.86,2.44065e-05,-0.000268062,-1.25083,7,0.0000000E+000,11,3.35299e-07,-2.9028, , , ,-0.000268062,
2,1,0,1,0,8529.22,0.00729063,0.00698411,0.79131,7,0.000202429,11,5.52659e-06,-3.10165,0.10857,0.54343,16.6507,0.00698411,
2,1,0,1,0,8529.6,0.0147802,0.0145169,0.884556,7,0.000520642,11,1.2841e-05,-3.05327,0.204064,0.289125,9.98291,0.0145169,
2,1,0,1,0,8529.97,0.0222725,0.0219879,0.945206,7,0.000866937,11,2.07831e-05,-3.02447,0.264283,0.223245,8.24514,0.0219879,
2,1,0,1,0,8530.35,0.0297644,0.0294327,1.00683,7,0.00123574,11,2.96335e-05,-2.99705,0.303191,0.194597,7.63292,0.0294327,
2,1,0,1,0,8530.72,0.0372544,0.0369353,1.07702,7,0.00162882,11,3.97802e-05,-2.96778,0.269794,0.218686,9.2166,0.0369353,
2,1,0,1,0,8531.09,0.0447449,0.0444645,1.16609,7,0.00205121,11,5.18495e-05,-2.93327,0.209865,0.281134,12.8146,0.0444645,
2,1,0,1,0,8531.47,0.0522363,0.0519465,1.27237,7,0.00251064,11,6.60952e-05,-2.89539,0.167731,0.351754,17.482,0.0519465,
2,1,0,1,0,8531.84,0.0597291,0.05945,1.39867,7,0.00301347,11,8.31511e-05,-2.85428,0.187087,0.315361,17.1545,0.05945,
2,1,0,1,0,8532.22,0.0672182,0.0669532,1.52415,7,0.00356234,11,0.000102047,-2.81697,0.205376,0.287278,17.0296,0.0669532,
2,1,0,1,0,8532.59,0.0747092,0.0744324,1.63213,7,0.00415594,11,0.000121484,-2.78724,0.26037,0.2266,14.4309,0.0744324,
2,1,0,1,0,8532.97,0.0822001,0.0819294,1.72946,7,0.00479028,11,0.000141694,-2.76209,0.329817,0.178887,12.1092,0.0819294,
2,1,0,1,0,8533.34,0.0896911,0.0893471,1.82815,7,0.00546026,11,0.00016334,-2.73799,0.324627,0.181747,12.9932,0.0893471,
2,1,0,1,0,8533.72,0.097182,0.0968626,1.93346,7,0.00616734,11,0.00018728,-2.71366,0.241621,0.244184,18.4284,0.0968626,
2,1,0,1,0,8534.09,0.104673,0.104357,2.09108,7,0.0069213,11,0.00021822,-2.67963,0.19735,0.298961,24.3497,0.104357,
2,1,0,1,0,8534.47,0.112164,0.111861,2.30574,7,0.00774473,11,0.000257922,-2.63719,0.166428,0.354509,31.832,0.111861,
2,1,0,1,0,8534.84,0.119655,0.119382,2.56171,7,0.00865773,11,0.000305822,-2.59147,0.185787,0.317569,31.7088,0.119382,
2,1,0,1,0,8535.21,0.127146,0.126848,2.78549,7,0.00966367,11,0.000353334,-2.5551,0.226628,0.260339,28.3216,0.126848,
2,1,0,1,0,8535.59,0.134637,0.134321,2.97889,7,0.0107494,11,0.000400126,-2.52595,0.341777,0.172627,20.0772,0.134321,
2,1,0,1,0,8535.96,0.142128,0.141826,3.06715,7,0.01189,11,0.000435,-2.51327,7.56145,0.00780274,0.931857,0.1418256,
2,1,0,1,0,8536.34,0.149619,0.149304,2.90839,7,0.0130217,11,0.000434235,-2.53635,-0.14902,-0.395919,-44.6941,0.149304,
2,1,0,1,0,8536.71,0.157108,0.156837,2.4317,7,0.0140315,11,0.000381381,-2.61409,-0.0734577,-0.803183,-75.9633,0.156837,
2,1,0,1,0,8537.09,0.164601,0.16435,1.90631,7,0.0148425,11,0.000313302,-2.71981,-0.0716471,-0.823481,-61.3596,0.16435,
2,1,0,1,0,8537.46,0.172092,0.17179,1.54593,7,0.0154868,11,0.000265576,-2.81081,-0.0955713,-0.61734,-37.4449,0.17179,
2,1,0,1,0,8537.84,0.179582,0.179298,1.33578,7,0.0160265,11,0.000239502,-2.87426,-0.142759,-0.413283,-21.6496,0.179298,
2,1,0,1,0,8538.21,0.187073,0.186799,1.21152,7,0.0165046,11,0.000226311,-2.91667,-0.239224,-0.24663,-11.6484,0.186799,
2,1,0,1,0,8538.59,0.194564,0.194278,1.13505,7,0.0169456,11,0.000220516,-2.94498,-0.312598,-0.188741,-8.35626,0.194278,
2,1,0,1,0,8538.96,0.202057,0.201772,1.08369,7,0.0173625,11,0.000218659,-2.9651,-0.381273,-0.154745,-6.52595,0.201772,
2,1,0,1,0,8539.33,0.209546,0.209281,1.04485,7,0.0177633,11,0.000218666,-2.98095,-0.475475,-0.124086,-5.06068,0.209281,
2,1,0,1,0,8539.71,0.217037,0.216767,1.01418,7,0.0181515,11,0.000219841,-2.99388,-0.686798,-0.0859059,-3.40973,0.216767,
2,1,0,1,0,8540.08,0.224528,0.224246,0.995511,7,0.0185309,11,0.00022324,-3.00195,-0.898393,-0.0656728,-2.54783,0.224246,
2,1,0,1,0,8540.46,0.232019,0.231754,0.977261,7,0.0189025,11,0.000226484,-3.00999,-1.07561,-0.0548525,-2.09035,0.231754,
2,1,0,1,0,8540.83,0.23951,0.239234,0.961603,7,0.0192681,11,0.000230048,-3.017,-1.01451,-0.0581559,-2.17762,0.239234,
2,1,0,1,0,8541.21,0.247001,0.246721,0.947565,7,0.0196282,11,0.000233784,-3.02339,-0.882989,-0.0668185,-2.46715,0.246721,
2,1,0,1,0,8541.58,0.254492,0.254182,0.933764,7,0.0199836,11,0.000237346,-3.02976,-1.58977,-0.0371123,-1.35556,0.2541818,
2,1,0,1,0,8541.96,0.261983,0.261712,0.923739,7,0.0203344,11,0.000241753,-3.03445,-1.37163,-0.0430146,-1.55134,0.261712,
2,1,0,1,0,8542.33,0.269474,0.269208,0.913398,7,0.0206815,11,0.000245894,-3.03934,-5.47107,-0.010784,-0.38385,0.269208,
2,1,0,1,0,8542.71,0.276965,0.276677,0.904191,7,0.0210248,11,0.000250169,-3.04374,-1.12824,-0.0522937,-1.8502,0.276677,
2,1,0,1,0,8543.08,0.284456,0.284166,0.895564,7,0.0213645,11,0.000254489,-3.0479,-2.89259,-0.020397,-0.712115,0.284166,
2,1,0,1,0,8543.45,0.291947,0.29173,0.884955,7,0.0217005,11,0.000258168,-3.05308,-1.27483,-0.0462806,-1.59733,0.29173,
2,1,0,1,0,8543.83,0.299436,0.29916,0.872318,7,0.022033,11,0.000260963,-3.05933,-0.000820764,-71.8842,-495.694,0.29916,
2,0,0,1,0,8544.17,0.293745,0.29338,-0.258323,7,0.0220152,11,-7.57867e-05,-3.58784,-0.033392,-1.76689,17.3257,0.29338,
2,0,0,1,0,8544.55,0.286254,0.28596,-0.349376,7,0.021897,11,-9.99076e-05,-3.45671,-0.0806427,-0.731622,9.95529,0.28596,
2,0,0,1,0,8544.92,0.278763,0.278469,-0.406721,7,0.0217512,11,-0.000113259,-3.3907,-0.128813,-0.458028,7.27822,0.278469,
2,0,0,1,0,8545.3,0.271272,0.270961,-0.457917,7,0.0215862,11,-0.000124078,-3.33921,-0.172232,-0.342562,6.0721,0.270961,
2,0,0,1,0,8545.67,0.263781,0.263517,-0.4928,7,0.0214054,11,-0.000129862,-3.30733,-0.230029,-0.256489,4.93909,0.263517,
2,0,0,1,0,8546.04,0.25629,0.255992,-0.529651,7,0.021211,11,-0.000135586,-3.27601,-0.370784,-0.159122,3.26563,0.255992,
2,0,0,1,0,8546.42,0.248799,0.248467,-0.557342,7,0.0210043,11,-0.000138481,-3.25388,-0.372925,-0.158209,3.45494,0.248467,
2,0,0,1,0,8546.79,0.241308,0.241005,-0.589319,7,0.0207862,11,-0.000142029,-3.22965,-0.363974,-0.162099,3.73294,0.241005,
2,0,0,1,0,8547.17,0.233817,0.233465,-0.619685,7,0.0205569,11,-0.000144675,-3.20783,-0.319683,-0.184558,4.45744,0.233465,
2,0,0,1,0,8547.54,0.226326,0.226024,-0.648035,7,0.0203165,11,-0.000146471,-3.1884,-0.394481,-0.149564,3.78501,0.226024,
2,0,0,1,0,8547.92,0.218835,0.218526,-0.681545,7,0.0200645,11,-0.000148936,-3.16651,-0.324232,-0.181968,4.82901,0.218526,
2,0,0,1,0,8548.29,0.211344,0.211091,-0.715854,7,0.0198004,11,-0.00015111,-3.14518,-0.386194,-0.152773,4.26264,0.211091,
2,0,0,1,0,8548.67,0.203855,0.203525,-0.752128,7,0.0195226,11,-0.000153077,-3.12371,-0.310156,-0.190227,5.61504,0.203525,
2,0,0,1,0,8549.04,0.196362,0.196047,-0.79737,7,0.0192294,11,-0.000156322,-3.09834,-0.273162,-0.215989,6.73853,0.196047,
2,0,0,1,0,8549.42,0.188871,0.188556,-0.85614,7,0.0189165,11,-0.00016143,-3.06745,-0.182868,-0.322638,10.7958,0.1885557,
2,0,0,1,0,8549.79,0.18138,0.181087,-0.936609,7,0.0185786,11,-0.000169608,-3.02844,-0.176787,-0.333736,12.1956,0.181087,
2,0,0,1,0,8550.16,0.173891,0.173592,-1.04729,7,0.0182056,11,-0.0001818,-2.97993,-0.129023,-0.457282,18.6844,0.173592,
2,0,0,1,0,8550.54,0.166398,0.166089,-1.21633,7,0.0177806,11,-0.00020202,-2.91495,-0.105425,-0.559641,26.6596,0.166089,
2,0,0,1,0,8550.91,0.158906,0.158636,-1.48768,7,0.0172747,11,-0.000236001,-2.82749,-0.0764307,-0.771941,44.9463,0.158636,
2,0,0,1,0,8551.29,0.151417,0.151099,-1.89853,7,0.0166416,11,-0.000286865,-2.72158,-0.0695557,-0.84824,62.9948,0.151099,
2,0,0,1,0,8551.66,0.143926,0.143597,-2.4076,7,0.0158326,11,-0.000345726,-2.61841,-0.0786484,-0.750174,70.3099,0.143597,
2,0,0,1,0,8552.04,0.136435,0.13613,-2.85029,7,0.0148402,11,-0.00038801,-2.54511,-0.135709,-0.434755,48.1464,0.13613,
2,0,0,1,0,8552.41,0.128942,0.128652,-3.08821,7,0.0137186,11,-0.000397305,-2.51029,-0.490642,-0.120251,14.4274,0.128652,
2,0,0,1,0,8552.79,0.121453,0.121154,-3.1001,7,0.0125519,11,-0.000375589,-2.50862,0.612751,0.096287,-11.615,0.121154,
2,0,0,1,0,8553.16,0.113962,0.113695,-2.94295,7,0.0114132,11,-0.000334599,-2.53122,0.233262,0.252934,-29.0542,0.113695,
2,0,0,1,0,8553.54,0.106471,0.106136,-2.70631,7,0.0103501,11,-0.000287238,-2.56762,0.185928,0.317327,-33.5584,0.1061364,
2,0,0,1,0,8553.91,0.0989799,0.0987101,-2.47067,7,0.00937881,11,-0.00024388,-2.60719,0.21743,0.271352,-26.1694,0.09871015,
2,0,0,1,0,8554.28,0.0914889,0.0911593,-2.29942,7,0.00848561,11,-0.000209614,-2.63838,0.286634,0.205837,-18.446,0.0911593,
2,0,0,1,0,8554.66,0.083998,0.083697,-2.17948,7,0.0076464,11,-0.000182416,-2.66165,0.343021,0.172001,-14.6043,0.083697,
2,0,0,1,0,8555.03,0.076507,0.0761879,-2.08951,7,0.00684452,11,-0.000159195,-2.67996,0.409844,0.143957,-11.7369,0.0761879,
2,0,0,1,0,8555.41,0.0690161,0.0687431,-1.99885,7,0.00607545,11,-0.000137407,-2.69922,0.392814,0.150198,-11.7431,0.0687431,
2,0,0,1,0,8555.78,0.0615251,0.0612112,-1.89801,7,0.00534081,11,-0.000116179,-2.7217,0.303978,0.194093,-14.4063,0.0612112,
2,0,0,1,0,8556.16,0.0540342,0.0536685,-1.78475,7,0.00464762,11,-9.57849e-05,-2.74842,0.265216,0.22246,-15.4647,0.0536685,
2,0,0,1,0,8556.53,0.0465432,0.0461958,-1.66478,7,0.00399907,11,-7.69059e-05,-2.77864,0.261839,0.225329,-14.6537,0.0461958,
2,0,0,1,0,8556.91,0.0390523,0.0387202,-1.56769,7,0.00339231,11,-6.0701e-05,-2.80474,0.272029,0.216889,-13.234,0.03872015,
2,0,0,1,0,8557.28,0.0315626,0.031246,-1.4935,7,0.00281812,11,-4.6666e-05,-2.82579,0.485245,0.121588,-7.0892,0.031246,
2,0,0,1,0,8557.66,0.0240704,0.0237489,-1.44636,7,0.00226455,11,-3.43494e-05,-2.83972,0.785864,0.0750766,-4.25875,0.0237489,
2,0,0,1,0,8558.03,0.0165785,0.0162875,-1.43475,7,0.00172189,11,-2.33685e-05,-2.84322,-3.19013,-0.0184946,1.03745,0.0162875,
2,0,0,1,0,8558.4,0.00908846,0.00876429,-1.43711,7,0.00118174,11,-1.25953e-05,-2.84251,-1.77333,-0.0332707,1.86444,0.008764294,
2,0,0,1,0,8558.78,0.0015984,0.00123566,-1.4786,7,0.000636422,11,-1.82705e-06,-2.83015, , , ,0.00123566,
2,0,0,1,0,8558.85,0.000199195,-0.000147534,-1.45933,7,0.000533135,11,2.15301e-07,-2.83585, , , ,-0.000147534,

File: 20221101_1-115_002_TrumpetPlot_ParaChange_07_CV_C01_7.csv
mode,ox/red,error,control changes,counter inc.,time/s,control/V,Ewe/V,<I>/mA,cycle number,(Q-Qo)/C,I Range,P/W,log(|I|),Tafel slope mV/dec,alpha_eff,dI/d(E-IR),E-IR/V,
2,0,0,0,0,9760.49,2.44065e-05,-0.000287149,-1.2304,8,0.0000000E+000,11,3.53307e-07,-2.90995, , , ,-0.0002871489,
2,1,0,1,0,9760.85,0.00729063,0.00701046,0.813912,8,0.000211755,11,5.70589e-06,-3.08942,0.113639,0.519189,16.4185,0.00701046,
2,1,0,1,0,9761.23,0.0147802,0.0144967,0.903768,8,0.000537831,11,1.31016e-05,-3.04394,0.198579,0.29711,10.4783,0.01449666,
2,1,0,1,0,9761.6,0.0222725,0.0219653,0.969522,8,0.000891744,11,2.12959e-05,-3.01344,0.270127,0.218416,8.24893,0.02196534,
2,1,0,1,0,9761.97,0.0297644,0.0295105,1.03439,8,0.00126937,11,3.05254e-05,-2.98532,0.282571,0.208797,8.41148,0.0295105,
2,1,0,1,0,9762.35,0.0372544,0.0369395,1.10975,8,0.00167324,11,4.09937e-05,-2.95477,0.226018,0.261041,11.3196,0.0369395,
2,1,0,1,0,9762.72,0.0447449,0.0444511,1.20463,8,0.00210916,11,5.3547e-05,-2.91915,0.200789,0.29384,13.8115,0.0444511,
2,1,0,1,0,9763.1,0.0522363,0.0519197,1.3134,8,0.00258363,11,6.81915e-05,-2.8816,0.183244,0.321974,16.5375,0.0519197,
2,1,0,1,0,9763.47,0.0597291,0.0594708,1.43671,8,0.00310203,11,8.54423e-05,-2.84263,0.193746,0.304522,17.0321,0.05947081,
2,1,0,1,0,9763.85,0.0672182,0.0668961,1.55682,8,0.00366521,11,0.000104145,-2.80776,0.227062,0.259841,15.7371,0.0668961,
2,1,0,1,0,9764.22,0.0747092,0.0744054,1.66391,8,0.00427123,11,0.000123804,-2.77887,0.299035,0.197301,12.8079,0.0744054,
2,1,0,1,0,9764.6,0.0822001,0.0818815,1.75795,8,0.00491593,11,0.000143943,-2.75499,0.337581,0.174773,12.0036,0.0818815,
2,1,0,1,0,9764.97,0.0896911,0.0893775,1.85023,8,0.00559517,11,0.000165369,-2.73278,0.331046,0.178223,12.8922,0.0893775,
2,1,0,1,0,9765.35,0.097182,0.0969106,1.95996,8,0.00631204,11,0.000189941,-2.70775,0.234769,0.251311,19.2586,0.0969106,
2,1,0,1,0,9765.72,0.104673,0.104428,2.12776,8,0.00707819,11,0.000222198,-2.67208,0.187262,0.315067,26.1191,0.104428,
2,1,0,1,0,9766.09,0.112164,0.111844,2.34482,8,0.00791669,11,0.000262253,-2.62989,0.173011,0.341019,31.1676,0.111844,
2,1,0,1,0,9766.47,0.119655,0.119329,2.58539,8,0.00884312,11,0.000308511,-2.58747,0.210319,0.280526,28.2943,0.119329,
2,1,0,1,0,9766.84,0.127146,0.126858,2.7906,8,0.00985507,11,0.000354009,-2.5543,0.250278,0.235737,25.721,0.1268577,
2,1,0,1,0,9767.22,0.134637,0.134323,2.96592,8,0.0109393,11,0.000398392,-2.52784,0.398347,0.148112,17.1575,0.134323,
2,1,0,1,0,9767.59,0.142128,0.141853,3.02634,8,0.0120709,11,0.000429297,-2.51908,-2.84822,-0.0207147,-2.4408,0.141853,
2,1,0,1,0,9767.97,0.149619,0.149352,2.82454,8,0.0131807,11,0.00042185,-2.54905,-0.127005,-0.464547,-50.9696,0.149352,
2,1,0,1,0,9768.34,0.157108,0.156833,2.31993,8,0.0141524,11,0.000363842,-2.63453,-0.0703636,-0.838502,-75.7568,0.156833,
2,1,0,1,0,9768.72,0.164601,0.164305,1.81801,8,0.0149247,11,0.000298708,-2.7404,-0.0738171,-0.799273,-56.7635,0.164305,
2,1,0,1,0,9769.09,0.172092,0.171785,1.48311,8,0.0155408,11,0.000254776,-2.82883,-0.102247,-0.577036,-33.5555,0.171785,
2,1,0,1,0,9769.47,0.179582,0.179322,1.2913,8,0.0160607,11,0.000231559,-2.88897,-0.158486,-0.372273,-18.8561,0.179322,
2,1,0,1,0,9769.84,0.187073,0.186821,1.18341,8,0.0165248,11,0.000221086,-2.92686,-0.261083,-0.225981,-10.4069,0.1868207,
2,1,0,1,0,9770.21,0.194564,0.194297,1.11146,8,0.0169559,11,0.000215952,-2.95411,-0.355263,-0.166074,-7.19643,0.194297,
2,1,0,1,0,9770.59,0.202057,0.201755,1.06334,8,0.0173654,11,0.000214533,-2.97333,-0.383252,-0.153946,-6.37381,0.201755,
2,1,0,1,0,9770.96,0.209546,0.209228,1.02923,8,0.0177603,11,0.000215344,-2.98749,-0.469331,-0.125711,-5.06498,0.209228,
2,1,0,1,0,9771.34,0.217037,0.216738,1.00185,8,0.0181438,11,0.00021714,-2.9992,-0.836521,-0.0705302,-2.77045,0.216738,
2,1,0,1,0,9771.71,0.224528,0.22427,0.983059,8,0.0185193,11,0.00022047,-3.00742,-0.841297,-0.0701298,-2.6933,0.22427,
2,1,0,1,0,9772.09,0.232019,0.231725,0.967272,8,0.0188877,11,0.000224141,-3.01445,-0.920428,-0.0641006,-2.4214,0.231725,
2,1,0,1,0,9772.46,0.23951,0.239215,0.953503,8,0.0192504,11,0.000228093,-3.02068,-1.52021,-0.0388104,-1.4446,0.239215,
2,1,0,1,0,9772.84,0.247001,0.24673,0.943329,8,0.0196081,11,0.000232748,-3.02534,-0.997904,-0.0591239,-2.16996,0.24673,
2,1,0,1,0,9773.21,0.254492,0.254205,0.92752,8,0.0199613,11,0.00023578,-3.03268,-1.44868,-0.0407268,-1.47746,0.254205,
2,1,0,1,0,9773.59,0.261983,0.261678,0.918405,8,0.0203103,11,0.000240326,-3.03697,-2.12917,-0.0277103,-0.994507,0.261678,
2,1,0,1,0,9773.96,0.269474,0.269197,0.910902,8,0.0206556,11,0.000245212,-3.04053,-23.966,-0.00246182,-0.0874248,0.269197,
2,1,0,1,0,9774.33,0.276965,0.276653,0.901086,8,0.0209974,11,0.000249288,-3.04523,-1.69248,-0.0348602,-1.22339,0.276653,
2,1,0,1,0,9774.71,0.284456,0.284161,0.891627,8,0.0213357,11,0.000253365,-3.04982,-1.71568,-0.0343888,-1.19374,0.284161,
2,1,0,1,0,9775.08,0.291947,0.291678,0.879581,8,0.0216705,11,0.000256554,-3.05572,-1.11345,-0.0529885,-1.82279,0.291678,
2,1,0,1,0,9775.46,0.299436,0.299189,0.868424,8,0.0220018,11,0.000259823,-3.06127,-0.00108113,-54.5724,-498.046,0.299189,
2,0,0,1,0,9775.8,0.293745,0.293396,-0.271322,8,0.0219774,11,-7.96048e-05,-3.56652,-0.0376529,-1.56694,16.2585,0.293396,
2,0,0,1,0,9776.17,0.286254,0.285948,-0.360601,8,0.0218542,11,-0.000103113,-3.44297,-0.0920336,-0.64107,9.04448,0.285948,
2,0,0,1,0,9776.55,0.278763,0.278428,-0.420829,8,0.0217045,11,-0.000117171,-3.37589,-0.152692,-0.386398,6.32448,0.278428,
2,0,0,1,0,9776.92,0.271272,0.270932,-0.465196,8,0.0215359,11,-0.000126037,-3.33236,-0.188465,-0.313056,5.64297,0.270932,
2,0,0,1,0,9777.3,0.263781,0.263474,-0.500462,8,0.0213519,11,-0.000131859,-3.30063,-0.214628,-0.274894,5.37565,0.263474,
2,0,0,1,0,9777.67,0.25629,0.255969,-0.536846,8,0.0211545,11,-0.000137416,-3.27015,-0.352923,-0.167175,3.4789,0.2559686,
2,0,0,1,0,9778.05,0.248799,0.248452,-0.566487,8,0.0209452,11,-0.000140745,-3.24681,-0.31849,-0.185249,4.09238,0.248452,
2,0,0,1,0,9778.42,0.241308,0.241012,-0.593837,8,0.0207248,11,-0.000143122,-3.22633,-0.373881,-0.157804,3.67157,0.241012,
2,0,0,1,0,9778.8,0.233817,0.233499,-0.624397,8,0.0204934,11,-0.000145796,-3.20454,-0.316967,-0.186139,4.53523,0.233499,
2,0,0,1,0,9779.17,0.226326,0.226028,-0.65451,8,0.0202513,11,-0.000147938,-3.18408,-0.414817,-0.142231,3.63411,0.226028,
2,0,0,1,0,9779.55,0.218835,0.218482,-0.683435,8,0.0199979,11,-0.000149318,-3.1653,-0.337201,-0.17497,4.66755,0.218482,
2,0,0,1,0,9779.92,0.211344,0.211011,-0.716706,8,0.0197328,11,-0.000151233,-3.14466,-0.382493,-0.154251,4.30626,0.211011,
2,0,0,1,0,9780.29,0.203855,0.203505,-0.752672,8,0.0194545,11,-0.000153172,-3.12339,-0.309029,-0.190921,5.63683,0.203505,
2,0,0,1,0,9780.67,0.196362,0.196074,-0.796505,8,0.0191617,11,-0.000156174,-3.09881,-0.301094,-0.195952,6.08957,0.196074,
2,0,0,1,0,9781.04,0.188871,0.188557,-0.849805,8,0.0188501,11,-0.000160237,-3.07068,-0.211652,-0.278759,9.25168,0.188557,
2,0,0,1,0,9781.42,0.18138,0.181111,-0.926405,8,0.018515,11,-0.000167782,-3.0332,-0.189892,-0.310702,11.2342,0.181111,
2,0,0,1,0,9781.79,0.173891,0.173591,-1.03218,8,0.0181472,11,-0.000179177,-2.98625,-0.140896,-0.418748,16.8727,0.173591,
2,0,0,1,0,9782.17,0.166398,0.166081,-1.18834,8,0.0177308,11,-0.000197362,-2.92506,-0.11353,-0.519688,24.1932,0.166081,
2,0,0,1,0,9782.54,0.158906,0.158577,-1.43589,8,0.0172391,11,-0.0002277,-2.84288,-0.0787605,-0.749107,42.2046,0.158577,
2,0,0,1,0,9782.92,0.151417,0.151091,-1.83005,8,0.0166279,11,-0.000276503,-2.73754,-0.0683863,-0.862746,61.8473,0.151091,
2,0,0,1,0,9783.29,0.143926,0.143605,-2.33522,8,0.0158462,11,-0.000335349,-2.63167,-0.0747808,-0.788972,71.684,0.143605,
2,0,0,1,0,9783.67,0.136435,0.136117,-2.79367,8,0.0148783,11,-0.000380266,-2.55383,-0.125211,-0.471205,51.1151,0.136117,
2,0,0,1,0,9784.04,0.128942,0.128637,-3.05315,8,0.0137732,11,-0.000392746,-2.51525,-0.391492,-0.150706,17.8862,0.1286366,
2,0,0,1,0,9784.41,0.121453,0.121139,-3.08067,8,0.0126159,11,-0.000373188,-2.51135,0.692368,0.0852148,-10.2249,0.121139,
2,0,0,1,0,9784.79,0.113962,0.113628,-2.94013,8,0.011481,11,-0.000334082,-2.53163,0.253569,0.232679,-26.7121,0.113628,
2,0,0,1,0,9785.16,0.106471,0.106179,-2.71691,8,0.0104159,11,-0.000288479,-2.56592,0.200549,0.294192,-31.2628,0.106179,
2,0,0,1,0,9785.54,0.0989799,0.098689,-2.48972,8,0.00943827,11,-0.000245708,-2.60385,0.217295,0.27152,-26.3566,0.098689,
2,0,0,1,0,9785.91,0.0914889,0.091178,-2.31517,8,0.00853901,11,-0.000211093,-2.63542,0.29068,0.202972,-18.3093,0.091178,
2,0,0,1,0,9786.29,0.083998,0.0836586,-2.18789,8,0.00769534,11,-0.000183036,-2.65997,0.317021,0.186108,-15.8793,0.0836586,
2,0,0,1,0,9786.66,0.076507,0.0761723,-2.09975,8,0.00688988,11,-0.000159943,-2.67783,0.388274,0.151954,-12.4462,0.0761723,
2,0,0,1,0,9787.04,0.0690161,0.0686794,-2.01187,8,0.00611681,11,-0.000138174,-2.6964,0.38059,0.155022,-12.1942,0.0686794,
2,0,0,1,0,9787.41,0.0615251,0.0612167,-1.91642,8,0.00537645,11,-0.000117317,-2.71751,0.335843,0.175678,-13.1701,0.06121666,
2,0,0,1,0,9787.79,0.0540342,0.0536895,-1.81205,8,0.00467474,11,-9.7288e-05,-2.74183,0.300464,0.196363,-13.8424,0.0536895,
2,0,0,1,0,9788.16,0.0465432,0.0462076,-1.69259,8,0.00401576,11,-7.82105e-05,-2.77145,0.280177,0.210581,-13.9294,0.0462076,
2,0,0,1,0,9788.53,0.0390523,0.0387095,-1.59238,8,0.00339875,11,-6.16404e-05,-2.79795,0.27061,0.218026,-13.5207,0.0387095,
2,0,0,1,0,9788.91,0.0315626,0.0312519,-1.5133,8,0.00281568,11,-4.72935e-05,-2.82008,0.399746,0.147594,-8.72129,0.0312519,
2,0,0,1,0,9789.28,0.0240704,0.0237353,-1.46148,8,0.00225584,11,-3.46885e-05,-2.83521,0.789317,0.0747481,-4.2807,0.0237353,
2,0,0,1,0,9789.66,0.0165785,0.0162434,-1.44412,8,0.00170874,11,-2.34575e-05,-2.8404,12.0184,0.00490915,-0.277077,0.0162434,
2,0,0,1,0,9790.03,0.00908846,0.00876674,-1.44289,8,0.00116552,11,-1.26494e-05,-2.84077,-3.3322,-0.017706,0.997361,0.00876674,
2,0,0,1,0,9790.41,0.0015984,0.00120499,-1.48328,8,0.000618122,11,-1.78733e-06,-2.82878, , , ,0.00120499,
2,0,0,1,0,9790.48,0.000199195,-0.00021434,-1.46425,8,0.000514464,11,3.13848e-07,-2.83438, , , ,-0.00021434,