Folder: Figs_alphaMnO2_OER_Tafel_sleope/Figure_codes/Fig_3-5/rawdata_trumpetplot_data/before 10th (part 55)

File: 20221101_1-115_002_TrumpetPlot_ParaChange_15_CV_C01_6.csv
mode,ox/red,error,control changes,counter inc.,time/s,control/V,Ewe/V,<I>/mA,cycle number,(Q-Qo)/C,I Range,P/W,log(|I|),Tafel slope mV/dec,alpha_eff,dI/d(E-IR),E-IR/V,
2,1,0,0,0,8607.5,2.44065e-05,-0.000802507,34.6273,7,0.0000000E+000,10,-2.77886e-05,-1.46058, , , ,-0.000802507,
2,1,0,1,0,8607.51,0.0121015,0.0117919,32.6239,7,0.000487352,10,0.0003847,-1.48646,0.524664,0.112453,143.741,0.0117919,
2,1,0,1,0,8607.53,0.0249027,0.0245656,34.6442,7,0.00102621,10,0.000851055,-1.46037,0.56906,0.10368,139.856,0.0245656,
2,1,0,1,0,8607.54,0.0377094,0.037388,36.2172,7,0.00159364,10,0.00135409,-1.44109,0.752202,0.0784364,110.728,0.037388,
2,1,0,1,0,8607.56,0.0505051,0.0501744,37.5695,7,0.00218408,10,0.00188503,-1.42516,0.778855,0.0757522,111.141,0.0501744,
2,1,0,1,0,8607.58,0.0633063,0.0630064,39.0991,7,0.00279721,10,0.00246349,-1.40783,0.677231,0.0871195,133.122,0.0630064,
2,1,0,1,0,8607.59,0.0761019,0.0757069,41.0654,7,0.00343809,10,0.00310893,-1.38652,0.536529,0.109966,176.513,0.0757069,
2,1,0,1,0,8607.61,0.0889087,0.088524,43.6645,7,0.00411528,10,0.00386536,-1.35987,0.44807,0.131676,224.53,0.088524,
2,1,0,1,0,8607.62,0.101702,0.101249,46.6968,7,0.00483813,10,0.004728,-1.33071,0.418713,0.140908,257.153,0.1012489,
2,1,0,1,0,8607.64,0.114506,0.114146,50.255,7,0.00561348,10,0.00573639,-1.29882,0.402441,0.146605,287.51,0.114146,
2,1,0,1,0,8607.66,0.127301,0.126921,54.0004,7,0.00644787,10,0.0068538,-1.2676,0.410755,0.143638,302.958,0.126921,
2,1,0,1,0,8607.67,0.140105,0.139786,58.0902,7,0.00734461,10,0.0081202,-1.2359,0.397512,0.148423,336.746,0.139786,
2,1,0,1,0,8607.69,0.152904,0.152523,62.6822,7,0.00831046,10,0.00956047,-1.20286,0.380067,0.155236,379.942,0.152523,
2,1,0,1,0,8607.7,0.165705,0.165371,67.7615,7,0.0093541,10,0.0112058,-1.16902,0.384666,0.15338,405.452,0.1653706,
2,1,0,1,0,8607.72,0.178506,0.178154,72.9182,7,0.0104803,10,0.0129907,-1.13716,0.428936,0.13755,390.96,0.1781538,
2,1,0,1,0,8607.74,0.191302,0.190943,77.5359,7,0.0116858,10,0.014805,-1.1105,0.573527,0.102872,310.487,0.190943,
2,1,0,1,0,8607.75,0.204108,0.203791,80.5098,7,0.0129539,10,0.0164072,-1.09415,1.70564,0.0345912,108.056,0.203791,
2,1,0,1,0,8607.77,0.216904,0.216572,79.6854,7,0.0142422,10,0.0172577,-1.09862,-0.639978,-0.0921907,-283.902,0.216572,
2,1,0,1,0,8607.78,0.229705,0.229454,73.009,7,0.0154711,10,0.0167522,-1.13662,-0.225683,-0.261428,-737.341,0.229454,
2,1,0,1,0,8607.8,0.242501,0.242252,61.5365,7,0.0165503,10,0.0149073,-1.21087,-0.147018,-0.401311,-959.999,0.2422522,
2,1,0,1,0,8607.82,0.255308,0.255044,49.6058,7,0.017436,10,0.0126516,-1.30447,-0.137353,-0.42955,-835.223,0.255044,
2,1,0,1,0,8607.83,0.268101,0.267828,40.6261,7,0.0181522,10,0.0108808,-1.39119,-0.167901,-0.351398,-561.825,0.267828,
2,1,0,1,0,8607.85,0.280905,0.280635,35.0672,7,0.0187534,10,0.00984106,-1.4551,-0.244395,-0.241413,-332.659,0.280635,
2,1,0,1,0,8607.86,0.2937,0.293397,31.813,7,0.0192859,10,0.00933383,-1.4974,-0.37586,-0.156973,-196.057,0.293397,
2,1,0,1,0,8607.87,0.298983,0.298894,27.6769,7,0.0195696,10,0.00827244,-1.55788,0.0177125,3.33097,2648.54,0.298894,
2,1,0,1,0,8607.89,0.286187,0.285966,3.16405,7,0.0197839,10,0.000904812,-2.49976,0.0212883,2.77148,1216.12,0.2859664,
2,0,0,1,0,8607.91,0.273386,0.273133,-7.38426,7,0.0197384,10,-0.00201689,-2.13169,-0.0243776,-2.42026,571.158,0.273133,
2,0,0,1,0,8607.92,0.260585,0.260323,-12.6029,7,0.0195736,10,-0.00328081,-1.89953,-0.0940212,-0.627518,299.615,0.260323,
2,0,0,1,0,8607.94,0.247783,0.247546,-15.5683,7,0.0193459,10,-0.00385386,-1.80776,-0.191168,-0.308628,185.674,0.247546,
2,0,0,1,0,8607.95,0.234982,0.234676,-17.5461,7,0.01908,10,-0.00411765,-1.75582,-0.303626,-0.194318,132.479,0.2346756,
2,0,0,1,0,8607.97,0.222187,0.221867,-19.0763,7,0.0187865,10,-0.00423239,-1.71951,-0.380688,-0.154982,115.278,0.221867,
2,0,0,1,0,8607.99,0.20938,0.2091,-20.4943,7,0.0184696,10,-0.00428536,-1.68837,-0.432168,-0.136521,109.233,0.2091,
2,0,0,1,0,8608,0.196587,0.196345,-21.9461,7,0.0181299,10,-0.00430902,-1.65864,-0.41793,-0.141172,121.048,0.196345,
2,0,0,1,0,8608.02,0.183783,0.183503,-23.654,7,0.0177654,10,-0.00434057,-1.6261,-0.365359,-0.161485,149.321,0.1835025,
2,0,0,1,0,8608.03,0.170987,0.170715,-25.843,7,0.0173701,10,-0.00441179,-1.58766,-0.295276,-0.199813,202.263,0.170715,
2,0,0,1,0,8608.05,0.158183,0.157915,-28.9215,7,0.016933,10,-0.00456713,-1.53878,-0.233326,-0.252865,286.713,0.157915,
2,0,0,1,0,8608.07,0.145385,0.14509,-33.2791,7,0.0164367,10,-0.00482848,-1.47783,-0.190944,-0.308991,403.102,0.14509,
2,0,0,1,0,8608.08,0.132584,0.132375,-39.1872,7,0.0158582,10,-0.00518741,-1.40686,-0.173702,-0.339662,521.031,0.132375,
2,0,0,1,0,8608.1,0.119782,0.119564,-46.5253,7,0.0151729,10,-0.00556276,-1.33231,-0.178703,-0.330158,598.74,0.119564,
2,0,0,1,0,8608.11,0.106987,0.106834,-54.1531,7,0.0143662,10,-0.00578539,-1.26638,-0.208173,-0.283419,598.517,0.106834,
2,0,0,1,0,8608.13,0.0941801,0.0940424,-61.6126,7,0.0134379,10,-0.00579419,-1.21033,-0.262049,-0.225148,539.411,0.0940424,
2,0,0,1,0,8608.15,0.0813844,0.0812083,-67.9412,7,0.0123993,10,-0.00551738,-1.16787,-0.352385,-0.16743,442.539,0.0812083,
2,0,0,1,0,8608.16,0.0685832,0.0683381,-72.7738,7,0.0112703,10,-0.00497322,-1.13803,-0.568006,-0.103872,293.857,0.0683381,
2,0,0,1,0,8608.18,0.0557876,0.0555146,-75.4064,7,0.0100814,10,-0.00418616,-1.12259,-1.56942,-0.0375934,110.174,0.0555146,
2,0,0,1,0,8608.19,0.0429808,0.0426508,-75.6136,7,0.00887014,10,-0.00322498,-1.1214,2.54958,0.0231411,-68.0661,0.0426508,
2,0,0,1,0,8608.21,0.030188,0.0298814,-73.9212,7,0.00767222,10,-0.00220887,-1.13123,0.985727,0.0598543,-172.447,0.0298814,
2,0,0,1,0,8608.23,0.017384,0.0171056,-71.3853,7,0.00650918,10,-0.00122109,-1.14639,0.756273,0.0780142,-217.159,0.0171056,
2,0,0,1,0,8608.24,0.00458834,0.00431926,-68.3016,7,0.00539095,10,-0.000295012,-1.16557,0.591891,0.0996805,-265.408,0.00431926,
2,0,0,1,0,8608.26,-0.00821564,-0.00855938,-64.4224,7,0.00432762,10,0.000551416,-1.19096,0.422919,0.139507,-349.924,-0.00855938,
2,0,0,1,0,8608.27,-0.0210196,-0.0213935,-59.5833,7,0.00333543,10,0.00127469,-1.22488,0.359006,0.164343,-382.08,-0.0213935,
2,0,0,1,0,8608.29,-0.0338153,-0.0341767,-55.0056,7,0.00242048,10,0.00187991,-1.25959,0.411786,0.143278,-308.448,-0.0341767,
2,0,0,1,0,8608.31,-0.0466193,-0.0469663,-51.7994,7,0.00156829,10,0.00243282,-1.28568,0.621788,0.0948876,-192.481,-0.0469663,
2,0,0,1,0,8608.32,-0.0594121,-0.0597325,-50.0267,7,0.000755406,10,0.00298822,-1.3008,1.28623,0.0458704,-89.8265,-0.0597325,
2,0,0,1,0,8608.34,-0.0722189,-0.0725475,-49.3969,7,-3.87713e-05,10,0.00358362,-1.3063,6.26352,0.00941962,-18.1924,-0.0725475,
2,0,0,1,0,8608.35,-0.0850146,-0.0853837,-49.5255,7,-0.000829266,10,0.00422867,-1.30517,-3.28781,-0.0179451,34.7326,-0.0853837,
2,0,0,1,0,8608.37,-0.0978158,-0.0981542,-50.2182,7,-0.00162679,10,0.00492913,-1.29914,-1.56674,-0.0376579,73.9068,-0.0981542,
2,0,0,1,0,8608.39,-0.110611,-0.110969,-51.346,7,-0.00243918,10,0.00569783,-1.28949,-1.15251,-0.0511927,102.726,-0.110969,
2,0,0,1,0,8608.4,-0.123418,-0.123738,-52.8672,7,-0.00327281,10,0.00654167,-1.27681,-0.936693,-0.0629875,130.052,-0.1237376,
2,0,0,1,0,8608.42,-0.136214,-0.136549,-54.6853,7,-0.00413302,10,0.00746724,-1.26213,-0.836477,-0.0705339,150.564,-0.136549,
2,0,0,1,0,8608.43,-0.149015,-0.149329,-56.7084,7,-0.00502417,10,0.00846823,-1.24635,-0.790917,-0.0745969,165.116,-0.149329,
2,0,0,1,0,8608.45,-0.161816,-0.162128,-58.8762,7,-0.00594906,10,0.00954545,-1.23006,-0.780443,-0.0755981,173.727,-0.162128,
2,0,0,1,0,8608.47,-0.174615,-0.174901,-61.1097,7,-0.00690929,10,0.0106882,-1.21389,-0.796943,-0.0740329,176.61,-0.174901,
2,0,0,1,0,8608.48,-0.187419,-0.187731,-63.4258,7,-0.0079058,10,0.011907,-1.19773,-0.796311,-0.0740916,183.41,-0.187731,
2,0,0,1,0,8608.5,-0.199647,-0.19996,-65.7218,7,-0.00889394,10,0.0131417,-1.18229,0.376164,0.156846,-389.03,-0.19996,
2,0,0,1,1,8608.51,-0.192535,-0.192942,-47.1882,7,-0.00946278,10,0.00910459,-1.32617,-0.0518158,-1.13865,2113.32,-0.192942,
2,0,0,1,1,8608.52,-0.179739,-0.180202,-25.1154,7,-0.0100289,10,0.00452585,-1.60006,-0.0386916,-1.52488,1466.33,-0.180202,
2,0,0,1,1,8608.54,-0.166932,-0.167317,-8.82388,7,-0.0102931,10,0.00147639,-2.05434,-0.0142826,-4.13089,1122.86,-0.167317,
2,1,0,1,1,8608.56,-0.154139,-0.154608,3.83842,7,-0.0103277,10,-0.000593451,-2.41585,0.0198409,2.97366,886.759,-0.154608,
2,1,0,1,1,8608.57,-0.141335,-0.141876,14.011,7,-0.0101809,10,-0.00198782,-1.85353,0.0425371,1.38703,719.203,-0.141876,
2,1,0,1,1,8608.59,-0.12854,-0.128989,22.3891,7,-0.00988646,10,-0.00288795,-1.64996,0.0865924,0.681353,584.055,-0.128989,
2,1,0,1,1,8608.6,-0.115736,-0.116138,29.1056,7,-0.00947186,10,-0.00338026,-1.53602,0.14131,0.417521,469.772,-0.116138,
2,1,0,1,1,8608.62,-0.102932,-0.10334,34.4775,7,-0.0089611,10,-0.00356289,-1.46246,0.210877,0.279784,374.366,-0.10334,
2,1,0,1,1,8608.64,-0.0901361,-0.0905172,38.7473,7,-0.00837348,10,-0.0035073,-1.41176,0.299595,0.196932,296.742,-0.0905172,
2,1,0,1,1,8608.65,-0.0773322,-0.0777308,42.1077,7,-0.00772518,10,-0.00327307,-1.37564,0.420567,0.140287,229.931,-0.0777308,
2,1,0,1,1,8608.67,-0.0645393,-0.0649338,44.7073,7,-0.0070295,10,-0.00290302,-1.34962,0.578155,0.102049,177.684,-0.0649338,
2,1,0,1,1,8608.68,-0.0517325,-0.0520944,46.6911,7,-0.00629739,10,-0.00243234,-1.33077,0.804646,0.0733242,133.375,-0.0520944,
2,1,0,1,1,8608.7,-0.0389369,-0.0392995,48.1136,7,-0.00553813,10,-0.00189084,-1.31773,1.19709,0.0492863,92.4359,-0.0392995,
2,1,0,1,1,8608.72,-0.0261357,-0.0264781,49.0612,7,-0.00475994,10,-0.00129905,-1.30926,2.03662,0.0289695,55.4058,-0.0264781,
2,1,0,1,1,8608.73,-0.01334,-0.0137267,49.5361,7,-0.00397046,10,-0.00067997,-1.30508,5.71006,0.0103326,19.956,-0.0137267,
2,1,0,1,1,8608.75,-0.000774628,-0.00117471,49.6051,7,-0.00319164,10,-5.82716e-05,-1.30447, , , ,-0.00117471,
2,1,0,0,1,8608.75,-0.000125413,-0.000478022,49.6256,7,-0.00315195,10,-2.37221e-05,-1.30429, , , ,-0.000478022,

File: 20221101_1-115_002_TrumpetPlot_ParaChange_15_CV_C01_7.csv
mode,ox/red,error,control changes,counter inc.,time/s,control/V,Ewe/V,<I>/mA,cycle number,(Q-Qo)/C,I Range,P/W,log(|I|),Tafel slope mV/dec,alpha_eff,dI/d(E-IR),E-IR/V,
2,1,0,0,0,9839.13,2.44065e-05,-0.000764332,36.959,8,0.0000000E+000,10,-2.82489e-05,-1.43228, , , ,-0.0007643319,
2,1,0,1,0,9839.14,0.0121015,0.0117453,34.0726,8,0.000512952,10,0.000400192,-1.46759,0.643038,0.0917519,122.707,0.0117453,
2,1,0,1,0,9839.16,0.0249027,0.0245539,35.9815,8,0.00107399,10,0.000883486,-1.44392,0.605546,0.0974327,136.607,0.0245539,
2,1,0,1,0,9839.17,0.0377094,0.0373933,37.574,8,0.00166296,10,0.00140502,-1.42511,0.75622,0.0780196,114.274,0.0373933,
2,1,0,1,0,9839.19,0.0505051,0.0501532,38.9995,8,0.0022756,10,0.00195595,-1.40894,0.761247,0.0775044,118.016,0.0501532,
2,1,0,1,0,9839.21,0.0633063,0.0629767,40.6352,8,0.0029124,10,0.00255907,-1.3911,0.651721,0.0905295,143.758,0.0629767,
2,1,0,1,0,9839.22,0.0761019,0.0757313,42.7184,8,0.00357891,10,0.00323512,-1.36939,0.52746,0.111857,186.835,0.0757313,
2,1,0,1,0,9839.24,0.0889087,0.0885176,45.4277,8,0.00428367,10,0.00402116,-1.34268,0.458148,0.128779,228.435,0.0885176,
2,1,0,1,0,9839.25,0.101702,0.101261,48.4806,8,0.00503492,10,0.00490917,-1.31443,0.426096,0.138466,262.576,0.101261,
2,1,0,1,0,9839.27,0.114506,0.114182,52.1284,8,0.0058401,10,0.0059521,-1.28293,0.416808,0.141552,287.916,0.114182,
2,1,0,1,0,9839.29,0.127301,0.126928,55.8794,8,0.00670429,10,0.00709264,-1.25275,0.421937,0.139831,305.169,0.1269277,
2,1,0,1,0,9839.3,0.140105,0.139697,59.9943,8,0.00763127,10,0.00838103,-1.22189,0.405736,0.145415,340.778,0.139697,
2,1,0,1,0,9839.32,0.152904,0.152547,64.6065,8,0.00862799,10,0.00985553,-1.18972,0.394764,0.149456,377.013,0.152547,
2,1,0,1,0,9839.33,0.165705,0.16533,69.6285,8,0.00970216,10,0.0115117,-1.15721,0.403959,0.146054,396.671,0.16533,
2,1,0,1,0,9839.35,0.178506,0.178193,74.6066,8,0.0108569,10,0.0132944,-1.12722,0.462803,0.127484,370.666,0.178193,
2,1,0,1,0,9839.37,0.191302,0.190965,78.8871,8,0.0120869,10,0.0150646,-1.10299,0.654702,0.0901173,276.617,0.190965,
2,1,0,1,0,9839.38,0.204108,0.203807,81.2472,8,0.0133722,10,0.0165588,-1.09019,4.13186,0.0142793,44.9867,0.203807,
2,1,0,1,0,9839.4,0.216904,0.216602,79.4181,8,0.0146646,10,0.0172021,-1.10008,-0.498871,-0.118267,-363.03,0.216602,
2,1,0,1,0,9839.41,0.229705,0.229448,71.9093,8,0.0158816,10,0.0164994,-1.14321,-0.212028,-0.278265,-773.889,0.2294478,
2,1,0,1,0,9839.43,0.242501,0.242235,60.4398,8,0.0169418,10,0.0146406,-1.21868,-0.14874,-0.396666,-932.601,0.242235,
2,1,0,1,0,9839.45,0.255308,0.255056,48.9497,8,0.0178134,10,0.0124849,-1.31025,-0.141431,-0.417165,-800.353,0.255056,
2,1,0,1,0,9839.46,0.268101,0.267802,40.2812,8,0.0185221,10,0.0107874,-1.3949,-0.169981,-0.347097,-550.034,0.267802,
2,1,0,1,0,9839.48,0.280905,0.280604,34.793,8,0.0191186,10,0.00976304,-1.45851,-0.241495,-0.244312,-333.921,0.280604,
2,1,0,1,0,9839.49,0.2937,0.293408,31.5092,8,0.0196464,10,0.00924506,-1.50156,-0.366097,-0.161159,-199.307,0.293408,
2,1,0,1,0,9839.5,0.298983,0.29888,27.2858,8,0.0199272,10,0.00815518,-1.56406,0.0171313,3.44399,2664.75,0.29888,
2,1,0,1,0,9839.52,0.286187,0.285975,2.35611,8,0.0201317,10,0.000673789,-2.6278,0.0274036,2.15301,1250.2,0.285975,
2,0,0,1,0,9839.53,0.273386,0.273124,-8.4571,8,0.0200709,10,-0.00230984,-2.07278,-0.0282257,-2.0903,585.839,0.2731238,
2,0,0,1,0,9839.55,0.260585,0.260332,-13.7969,8,0.0198876,10,-0.00359178,-1.86022,-0.101247,-0.582736,305.504,0.260332,
2,0,0,1,0,9839.57,0.247783,0.247505,-16.7871,8,0.0196405,10,-0.00415491,-1.77502,-0.209373,-0.281794,182.914,0.247505,
2,0,0,1,0,9839.58,0.234982,0.234713,-18.7279,8,0.0193553,10,-0.00439568,-1.72751,-0.332157,-0.177627,129.256,0.234713,
2,0,0,1,0,9839.6,0.222187,0.221938,-20.1967,8,0.0190434,10,-0.00448242,-1.69472,-0.429172,-0.137474,108.204,0.221938,
2,0,0,1,0,9839.61,0.20938,0.20914,-21.5061,8,0.0187094,10,-0.00449779,-1.66744,-0.482793,-0.122206,102.634,0.20914,
2,0,0,1,0,9839.63,0.196587,0.196251,-22.8633,8,0.0183542,10,-0.00448693,-1.64086,-0.46933,-0.125711,112.334,0.196251,
2,0,0,1,0,9839.65,0.183783,0.183484,-24.4517,8,0.0179758,10,-0.00448651,-1.61169,-0.408324,-0.144493,138.149,0.183484,
2,0,0,1,0,9839.66,0.170987,0.170684,-26.5004,8,0.0175689,10,-0.00452321,-1.57675,-0.321594,-0.183461,190.378,0.170684,
2,0,0,1,0,9839.68,0.158183,0.157878,-29.4071,8,0.0171226,10,-0.00464273,-1.53155,-0.248198,-0.237713,273.967,0.157878,
2,0,0,1,0,9839.69,0.145385,0.145131,-33.563,8,0.0166203,10,-0.00487103,-1.47414,-0.202559,-0.291273,383.259,0.145131,
2,0,0,1,0,9839.71,0.132584,0.132346,-39.3107,8,0.0160387,10,-0.00520262,-1.40549,-0.176219,-0.334811,515.288,0.132346,
2,0,0,1,0,9839.73,0.119783,0.119529,-46.5543,8,0.0153523,10,-0.0055646,-1.33204,-0.180095,-0.327605,594.754,0.119529,
2,0,0,1,0,9839.74,0.106987,0.106832,-54.2405,8,0.0145449,10,-0.00579461,-1.26568,-0.205935,-0.286498,605.943,0.106832,
2,0,0,1,0,9839.76,0.0941801,0.0939756,-61.7829,8,0.0136145,10,-0.00580608,-1.20913,-0.258745,-0.228023,547.917,0.0939756,
2,0,0,1,0,9839.77,0.0813844,0.0811849,-68.2524,8,0.0125722,10,-0.00554107,-1.16588,-0.34503,-0.171,453.962,0.0811849,
2,0,0,1,0,9839.79,0.0685832,0.0682862,-73.2209,8,0.0114372,10,-0.00499998,-1.13536,-0.549374,-0.107395,305.726,0.0682862,
2,0,0,1,0,9839.81,0.0557876,0.0555178,-76.0658,8,0.0102396,10,-0.004223,-1.11881,-1.31794,-0.0447669,132.372,0.0555178,
2,0,0,1,0,9839.82,0.0429808,0.0427229,-76.5957,8,0.0090152,10,-0.00327239,-1.1158,4.30688,0.013699,-40.8179,0.0427229,
2,0,0,1,0,9839.84,0.030188,0.0298464,-75.2167,8,0.00779889,10,-0.00224495,-1.12369,1.12986,0.0522189,-153.057,0.0298464,
2,0,0,1,0,9839.85,0.017384,0.0171162,-72.8759,8,0.00661343,10,-0.00124736,-1.13742,0.819743,0.0719737,-204.524,0.0171162,
2,0,0,1,0,9839.87,0.00458834,0.00428214,-69.9548,8,0.00547007,10,-0.000299557,-1.15518,0.643868,0.0916337,-249.948,0.004282142,
2,0,0,1,0,9839.89,-0.00821564,-0.00857635,-66.3255,8,0.0043784,10,0.000568831,-1.17832,0.46805,0.126055,-325.624,-0.00857635,
2,0,0,1,0,9839.9,-0.0210196,-0.0213977,-61.7553,8,0.00335328,10,0.00132142,-1.20933,0.379062,0.155647,-374.776,-0.02139773,
2,0,0,1,0,9839.92,-0.0338153,-0.0341746,-57.075,8,0.00240387,10,0.00195051,-1.24355,0.399634,0.147635,-329.543,-0.0341746,
2,0,0,1,0,9839.93,-0.0466193,-0.0469769,-53.4923,8,0.00152153,10,0.0025129,-1.27171,0.55511,0.106285,-222.625,-0.0469769,
2,0,0,1,0,9839.95,-0.0594121,-0.0597633,-51.3502,8,0.000684629,10,0.00306885,-1.28946,1.02256,0.0576981,-116.003,-0.0597633,
2,0,0,1,0,9839.97,-0.0722189,-0.0725518,-50.4629,8,-0.000128566,10,0.00366118,-1.29703,3.38039,0.0174536,-34.4402,-0.0725518,
2,0,0,1,0,9839.98,-0.0850146,-0.085335,-50.4265,8,-0.000934726,10,0.00430314,-1.29734,-4.61763,-0.0127771,25.1821,-0.085335,
2,0,0,1,0,9840,-0.0978158,-0.0981542,-51.0364,8,-0.00174587,10,0.00500943,-1.29212,-1.72539,-0.0341952,68.1907,-0.0981542,
2,0,0,1,0,9840.01,-0.110611,-0.110945,-52.0984,8,-0.00257073,10,0.00578004,-1.28318,-1.20332,-0.0490308,99.8344,-0.110945,
2,0,0,1,0,9840.03,-0.123418,-0.123743,-53.5882,8,-0.00341623,10,0.00663116,-1.27093,-0.954477,-0.061814,129.393,-0.123743,
2,0,0,1,0,9840.05,-0.136214,-0.136538,-55.384,8,-0.00428792,10,0.007562,-1.25662,-0.86115,-0.0685131,148.154,-0.136538,
2,0,0,1,0,9840.06,-0.149015,-0.149343,-57.4028,8,-0.00519027,10,0.00857272,-1.24107,-0.804875,-0.0733033,164.238,-0.149343,
2,0,0,1,0,9840.08,-0.161816,-0.162149,-59.5581,8,-0.00612612,10,0.00965727,-1.22506,-0.799492,-0.0737968,171.533,-0.162149,
2,0,0,1,0,9840.09,-0.174615,-0.174932,-61.7737,8,-0.00709709,10,0.0108062,-1.2092,-0.799373,-0.0738079,177.99,-0.174932,
2,0,0,1,0,9840.11,-0.187419,-0.187746,-64.0816,8,-0.00810427,10,0.012031,-1.19327,-0.810008,-0.0728388,182.196,-0.187746,
2,0,0,1,0,9840.13,-0.199647,-0.19996,-66.369,8,-0.00910243,10,0.0132711,-1.17803,0.361397,0.163255,-408.832,-0.19996,
2,0,0,1,1,9840.14,-0.192535,-0.193035,-47.5162,8,-0.00967594,10,0.0091723,-1.32316,-0.0513505,-1.14897,2148.41,-0.193035,
2,0,0,1,1,9840.15,-0.179739,-0.18015,-25.227,8,-0.0102452,10,0.00454465,-1.59813,-0.0385107,-1.53204,1479.24,-0.18015,
2,0,0,1,1,9840.17,-0.166932,-0.16736,-8.80331,8,-0.0105101,10,0.00147332,-2.05535,-0.0140112,-4.21091,1132.11,-0.16736,
2,1,0,1,1,9840.18,-0.154139,-0.154607,3.97418,8,-0.0105434,10,-0.000614436,-2.40075,0.0191111,3.08721,895.629,-0.154607,
2,1,0,1,1,9840.2,-0.141335,-0.141838,14.2888,8,-0.0103933,10,-0.00202669,-1.845,0.0428874,1.3757,728.259,-0.141838,
2,1,0,1,1,9840.22,-0.12854,-0.12898,22.8204,8,-0.0100932,10,-0.00294338,-1.64168,0.0865103,0.681999,595.965,-0.12898,
2,1,0,1,1,9840.23,-0.115736,-0.116095,29.6932,8,-0.00967042,10,-0.00344724,-1.52734,0.14013,0.421038,483.365,-0.116095,
2,1,0,1,1,9840.25,-0.102932,-0.103317,35.241,8,-0.00914885,10,-0.00364101,-1.45295,0.207888,0.283807,388.164,-0.103317,
2,1,0,1,1,9840.26,-0.0901362,-0.090532,39.6884,8,-0.00854751,10,-0.00359307,-1.40134,0.292505,0.201706,311.383,-0.09053202,
2,1,0,1,1,9840.28,-0.0773322,-0.0777011,43.2371,8,-0.0078825,10,-0.00335957,-1.36414,0.406884,0.145004,244.049,-0.0777011,
2,1,0,1,1,9840.3,-0.0645393,-0.0649221,45.9991,8,-0.00716739,10,-0.00298636,-1.33725,0.558794,0.105585,189.146,-0.0649221,
2,1,0,1,1,9840.31,-0.0517325,-0.0521273,48.1222,8,-0.00641348,10,-0.00250848,-1.31765,0.770435,0.0765801,143.568,-0.0521273,
2,1,0,1,1,9840.33,-0.0389369,-0.0392857,49.666,8,-0.00563031,10,-0.00195116,-1.30394,1.13397,0.0520295,100.728,-0.0392857,
2,1,0,1,1,9840.34,-0.0261357,-0.0265142,50.6984,8,-0.00482645,10,-0.00134423,-1.29501,1.88338,0.0313266,61.9257,-0.0265142,
2,1,0,1,1,9840.36,-0.01334,-0.0137045,51.2472,8,-0.00401001,10,-0.000702316,-1.29033,4.73481,0.0124609,24.9025,-0.01370448,
2,1,0,1,1,9840.38,-0.000774628,-0.00118584,51.3627,8,-0.00320379,10,-6.09081e-05,-1.28935, , , ,-0.00118584,
2,1,0,0,1,9840.38,-0.000125413,-0.000592546,51.3683,8,-0.0031627,10,-3.04381e-05,-1.2893, , , ,-0.000592546,