Folder: Figs_alphaMnO2_OER_Tafel_sleope/Figure_codes/Fig_3-5/rawdata_trumpetplot_data/before 10th (part 6)

File: 20221101_1-115_002_TrumpetPlot_ParaChange_04_CV_C01_7.csv
mode,ox/red,error,control changes,counter inc.,time/s,control/V,Ewe/V,<I>/mA,cycle number,(Q-Qo)/C,I Range,P/W,log(|I|),Tafel slope mV/dec,alpha_eff,dI/d(E-IR),E-IR/V,
2,0,0,1,0,8980.2,2.44065e-05,-0.000287149,-0.396012,8,0.0000000E+000,11,1.13715e-07,-3.40229, , , ,-0.0002871489,
2,0,0,1,0,8987.47,0.00729061,0.00698722,-0.0914149,8,-0.000829284,11,-6.38736e-07,-4.03898,-0.0335568,-1.75821,6.36428,0.00698722,
2,0,0,1,0,8994.96,0.0147815,0.0144662,-0.0592275,8,-0.00125102,11,-8.56798e-07,-4.22748,-0.0453798,-1.30014,3.01755,0.0144662,
2,0,0,1,0,9002.45,0.0222725,0.0220015,-0.0410504,8,-0.0014928,11,-9.0317e-07,-4.38668,-0.0415622,-1.41956,2.27055,0.0220015,
2,0,0,1,0,9009.94,0.0297635,0.0294796,-0.0274644,8,-0.0016178,11,-8.09639e-07,-4.56123,-0.0373988,-1.57759,1.6807,0.0294796,
2,0,0,1,0,9017.43,0.0372544,0.0369533,-0.0158006,8,-0.00164903,11,-5.83885e-07,-4.80133,-0.022423,-2.63123,1.54641,0.0369533,
2,0,0,1,0,9024.92,0.0447454,0.0444737,-0.00399627,8,-0.00159441,11,-1.77729e-07,-5.39834,-0.00639842,-9.22102,1.40052,0.0444737,
2,0,0,1,0,9032.41,0.0522363,0.0519336,0.00686484,8,-0.00145448,11,3.56516e-07,-5.16337,0.00798832,7.38578,1.70343,0.0519336,
2,1,0,1,0,9039.9,0.0597273,0.0594445,0.0179117,8,-0.0012297,11,1.06475e-06,-4.74686,0.0254065,2.32224,1.59278,0.0594445,
2,1,0,1,0,9047.39,0.0672183,0.0669639,0.028995,8,-0.000922267,11,1.94162e-06,-4.53768,0.0469925,1.25552,1.3885,0.0669639,
2,1,0,1,0,9054.88,0.0747092,0.0744143,0.0376421,8,-0.000539461,11,2.80111e-06,-4.42433,0.0667065,0.884472,1.31277,0.0744143,
2,1,0,1,0,9062.38,0.0822001,0.0818933,0.0454824,8,-8.79969e-05,11,3.7247e-06,-4.34216,0.0910994,0.647644,1.17482,0.08189325,
2,1,0,1,0,9069.87,0.0896911,0.0893745,0.0543009,8,0.000425769,11,4.85311e-06,-4.26519,0.105915,0.557053,1.20228,0.0893745,
2,1,0,1,0,9077.36,0.0971821,0.0969077,0.0643277,8,0.00100731,11,6.23384e-06,-4.1916,0.0813575,0.725194,1.81968,0.09690766,
2,1,0,1,0,9084.85,0.104673,0.104359,0.0781752,8,0.00167288,11,8.15829e-06,-4.10693,0.0794065,0.743012,2.23314,0.104359,
2,1,0,1,0,9092.34,0.112164,0.111872,0.0928374,8,0.00245019,11,1.03859e-05,-4.03228,0.113504,0.519804,1.89347,0.111872,
2,1,0,1,0,9099.83,0.119655,0.11939,0.110472,8,0.00335241,11,1.31892e-05,-3.95675,0.121981,0.483681,2.07439,0.11939,
2,1,0,1,0,9107.32,0.127146,0.126813,0.12407,8,0.00437624,11,1.57337e-05,-3.90633,0.150296,0.392559,1.9275,0.126813,
2,1,0,1,0,9114.81,0.134637,0.134324,0.13717,8,0.0055076,11,1.84253e-05,-3.86274,0.314499,0.1876,1.00863,0.134324,
2,1,0,1,0,9122.3,0.142128,0.141787,0.136644,8,0.00668551,11,1.93744e-05,-3.86441,-0.185727,-0.31767,-1.66853,0.1417871,
2,1,0,1,0,9129.79,0.149619,0.149299,0.114032,8,0.00777211,11,1.70249e-05,-3.94297,-0.0726552,-0.812055,-3.61298,0.149299,
2,1,0,1,0,9137.29,0.15711,0.156804,0.0862484,8,0.00865585,11,1.35241e-05,-4.06425,-0.054144,-1.08969,-3.67818,0.156804,
2,1,0,1,0,9144.78,0.164601,0.164315,0.0675325,8,0.00935795,11,1.10966e-05,-4.17049,-0.0922544,-0.639536,-1.68644,0.164315,
2,1,0,1,0,9152.27,0.172091,0.17181,0.0569781,8,0.00995026,11,9.78943e-06,-4.24429,-0.120734,-0.488677,-1.09697,0.17181,
2,1,0,1,0,9159.76,0.179582,0.179275,0.0512378,8,0.0104831,11,9.18564e-06,-4.29041,-0.222109,-0.265635,-0.534216,0.179275,
2,1,0,1,0,9167.25,0.187073,0.186766,0.0483874,8,0.0109835,11,9.03714e-06,-4.31527,-0.939196,-0.0628197,-0.118811,0.186766,
2,1,0,1,0,9174.74,0.194564,0.194281,0.0464133,8,0.0114657,11,9.01725e-06,-4.33336,-0.990176,-0.0595854,-0.109692,0.1942815,
2,1,0,1,0,9182.23,0.202055,0.201766,0.0467842,8,0.0119387,11,9.43945e-06,-4.3299,-2.31952,-0.0254363,-0.0460839,0.201766,
2,1,0,1,0,9189.72,0.209546,0.209249,0.0460983,8,0.0124078,11,9.64603e-06,-4.33631,-1.68015,-0.0351158,-0.0634066,0.209249,
2,1,0,1,0,9197.21,0.217037,0.216756,0.0463733,8,0.0128756,11,1.00517e-05,-4.33373,0.568429,0.103795,0.186984,0.216756,
2,1,0,1,0,9204.7,0.224528,0.224228,0.0465733,8,0.0133448,11,1.0443e-05,-4.33186,2.06807,0.0285291,0.0518472,0.224228,
2,1,0,1,0,9212.19,0.232019,0.231773,0.0469373,8,0.0138172,11,1.08788e-05,-4.32848,1.33762,0.0441082,0.0809437,0.231773,
2,1,0,1,0,9219.69,0.23951,0.239216,0.047404,8,0.014293,11,1.13398e-05,-4.32418,0.877667,0.0672237,0.125116,0.239216,
2,1,0,1,0,9227.18,0.247001,0.246704,0.048707,8,0.0147735,11,1.20162e-05,-4.31241,-2.2579,-0.0261304,-0.049563,0.246704,
2,1,0,1,0,9234.67,0.254492,0.25423,0.0495043,8,0.0152583,11,1.25855e-05,-4.30536,0.608479,0.0969631,0.187304,0.25423,
2,1,0,1,0,9242.16,0.261983,0.261685,0.050057,8,0.0157483,11,1.30992e-05,-4.30054,-2.32164,-0.0254131,-0.0495047,0.261685,
2,1,0,1,0,9249.65,0.269474,0.26918,0.05039,8,0.0162428,11,1.3564e-05,-4.29766,1.08159,0.0545494,0.107493,0.26918,
2,1,0,1,0,9257.14,0.276965,0.276632,0.0512746,8,0.0167428,11,1.41842e-05,-4.2901,0.847543,0.069613,0.139638,0.276632,
2,1,0,1,0,9264.63,0.284456,0.284156,0.0522699,8,0.0172473,11,1.48528e-05,-4.28175,0.825108,0.0715058,0.144866,0.284156,
2,1,0,1,0,9272.12,0.291947,0.291662,0.0527748,8,0.0177567,11,1.53924e-05,-4.27757,1.27222,0.0463757,0.0958996,0.291662,
2,1,0,1,0,9279.61,0.299438,0.299161,0.0531394,8,0.0182703,11,1.58972e-05,-4.27458,-0.00527297,-11.1891,-16.1634,0.299161,
2,1,0,1,0,9286.46,0.293745,0.293451,0.0106922,8,0.0183215,11,3.13763e-06,-4.97093,0.0180845,3.26246,1.30028,0.293451,
2,1,0,1,0,9293.95,0.286254,0.28598,0.00185208,8,0.0182493,11,5.29659e-07,-5.73234,0.00493529,11.9547,0.869404,0.28598,
2,1,0,1,0,9301.44,0.278763,0.278455,-0.00354363,8,0.0181254,11,-9.86739e-07,-5.45055,-0.0129654,-4.55056,0.579368,0.278455,
2,1,0,1,0,9308.93,0.271272,0.270998,-0.00788898,8,0.0179625,11,-2.1379e-06,-5.10298,-0.0313999,-1.87899,0.583533,0.270998,
2,0,0,1,0,9316.42,0.263781,0.263474,-0.0123004,8,0.0177663,11,-3.24084e-06,-4.91008,-0.0488121,-1.20872,0.574697,0.263474,
2,0,0,1,0,9323.91,0.25629,0.255957,-0.0161565,8,0.0175406,11,-4.13537e-06,-4.79165,-0.0716802,-0.8231,0.515271,0.255957,
2,0,0,1,0,9331.4,0.248799,0.248425,-0.0195358,8,0.017288,11,-4.85317e-06,-4.70917,-0.0909006,-0.649061,0.491536,0.248425,
2,0,0,1,0,9338.89,0.241308,0.241025,-0.0229376,8,0.01701,11,-5.52855e-06,-4.63945,-0.126287,-0.467189,0.4129,0.2410254,
2,0,0,1,0,9346.38,0.233817,0.233497,-0.0259393,8,0.0167072,11,-6.05675e-06,-4.58604,-0.137215,-0.429983,0.431739,0.2334975,
2,0,0,1,0,9353.87,0.226326,0.226021,-0.0291693,8,0.0163799,11,-6.59286e-06,-4.53507,-0.126351,-0.466954,0.533086,0.2260205,
2,0,0,1,0,9361.37,0.218835,0.218535,-0.0325001,8,0.0160281,11,-7.10241e-06,-4.48812,-0.139515,-0.422893,0.528448,0.218535,
2,0,0,1,0,9368.86,0.211344,0.211003,-0.0355459,8,0.0156516,11,-7.50029e-06,-4.44921,-0.232582,-0.253674,0.352207,0.211003,
2,0,0,1,0,9376.35,0.203853,0.203578,-0.0393674,8,0.0152479,11,-8.01435e-06,-4.40486,-0.16958,-0.347919,0.53182,0.203578,
2,0,0,1,0,9383.84,0.196362,0.196073,-0.0434544,8,0.0148154,11,-8.52022e-06,-4.36197,-0.195949,-0.301099,0.509167,0.196073,
2,0,0,1,0,9391.33,0.188871,0.18856,-0.0476418,8,0.0143493,11,-8.98331e-06,-4.32201,-0.125652,-0.46955,0.875333,0.18856,
2,0,0,1,0,9398.82,0.18138,0.181092,-0.0536207,8,0.013843,11,-9.71028e-06,-4.27067,-0.153868,-0.383445,0.797976,0.181092,
2,0,0,1,0,9406.31,0.173889,0.173577,-0.0612527,8,0.0132849,11,-1.06321e-05,-4.21287,-0.120669,-0.488942,1.1672,0.173577,
2,0,0,1,0,9413.8,0.166398,0.166046,-0.0726196,8,0.012654,11,-1.20582e-05,-4.13895,-0.0921329,-0.64038,1.82901,0.1660461,
2,0,0,1,0,9421.29,0.158907,0.15861,-0.090889,8,0.0119136,11,-1.44159e-05,-4.04149,-0.0726793,-0.811785,2.87592,0.15861,
2,0,0,1,0,9428.78,0.151417,0.151116,-0.118315,8,0.0109996,11,-1.78793e-05,-3.92696,-0.060036,-0.982744,4.5593,0.151116,
2,0,0,1,0,9436.27,0.143926,0.143633,-0.15245,8,0.00984421,11,-2.18969e-05,-3.81687,-0.0755171,-0.78128,4.62077,0.143633,
2,0,0,1,0,9443.77,0.136435,0.136101,-0.177896,8,0.00845797,11,-2.42119e-05,-3.74983,-0.180415,-0.327024,2.25413,0.136101,
2,0,0,1,0,9451.26,0.128944,0.128621,-0.183467,8,0.00695401,11,-2.35978e-05,-3.73644,0.836602,0.0705234,-0.502752,0.128621,
2,0,0,1,0,9458.75,0.121453,0.121163,-0.179894,8,0.0054476,11,-2.17966e-05,-3.74498,0.3724,0.158432,-1.10907,0.121163,
2,0,0,1,0,9466.24,0.113962,0.113654,-0.169034,8,0.00399695,11,-1.92114e-05,-3.77202,0.296827,0.198769,-1.31761,0.113654,
2,0,0,1,0,9473.73,0.106471,0.106164,-0.158472,8,0.00262599,11,-1.6824e-05,-3.80005,0.258856,0.227926,-1.41528,0.106164,
2,0,0,1,0,9481.22,0.0989798,0.0986657,-0.148484,8,0.00133852,11,-1.46502e-05,-3.82832,0.341874,0.172578,-0.997207,0.0986657,
2,0,0,1,0,9488.71,0.0914889,0.0912217,-0.140664,8,0.00012113,11,-1.28316e-05,-3.85182,0.396388,0.148844,-0.817596,0.0912217,
2,0,0,1,0,9496.2,0.083998,0.0837045,-0.135044,8,-0.00104702,11,-1.13038e-05,-3.86952,0.319434,0.184701,-0.97182,0.0837045,
2,0,0,1,0,9503.69,0.076507,0.0762021,-0.130602,8,-0.0021772,11,-9.95216e-06,-3.88405,0.50902,0.115909,-0.589671,0.07620208,
2,0,0,1,0,9511.18,0.069016,0.0687166,-0.125481,8,-0.00327111,11,-8.62263e-06,-3.90142,0.395623,0.149132,-0.73282,0.0687166,
2,0,0,1,0,9518.68,0.0615251,0.0612207,-0.120194,8,-0.00432804,11,-7.35835e-06,-3.92012,0.430553,0.137033,-0.642438,0.0612207,
2,0,0,1,0,9526.17,0.0540342,0.0537311,-0.115373,8,-0.00534351,11,-6.1991e-06,-3.9379,0.380561,0.155034,-0.696198,0.0537311,
2,0,0,1,0,9533.66,0.0465432,0.0462424,-0.109657,8,-0.00631968,11,-5.07082e-06,-3.95996,0.468864,0.125836,-0.540162,0.0462424,
2,0,0,1,0,9541.15,0.0390522,0.0387581,-0.106732,8,-0.00726217,11,-4.13672e-06,-3.97171,0.539455,0.10937,-0.453595,0.0387581,
2,0,0,1,0,9548.64,0.0315613,0.0312483,-0.104416,8,-0.00818238,11,-3.26283e-06,-3.98123,1.00765,0.058552,-0.238802,0.0312483,
2,0,0,1,0,9556.13,0.0240703,0.0237862,-0.104011,8,-0.0090924,11,-2.47403e-06,-3.98292,-1.38362,-0.0426417,0.173313,0.0237862,
2,0,0,1,0,9563.62,0.0165794,0.0162616,-0.104752,8,-0.010005,11,-1.70344e-06,-3.97984,-0.912384,-0.0646657,0.265368,0.0162616,
2,0,0,1,0,9571.11,0.00908843,0.00874431,-0.107649,8,-0.0109308,11,-9.41315e-07,-3.96799,-0.689954,-0.085513,0.359223,0.00874431,
2,0,0,1,0,9578.6,0.00159744,0.00122597,-0.11215,8,-0.0118827,11,-1.37492e-07,-3.9502, , , ,0.00122597,
2,0,0,1,0,9580,0.000199235,-0.000172594,-0.111575,8,-0.0120637,11,1.92572e-08,-3.95243, , , ,-0.000172594,

File: 20221101_1-115_002_TrumpetPlot_ParaChange_05_CV_C01.mpt
EC-Lab ASCII FILE
Nb header lines : 68

Cyclic Voltammetry

Run on channel : 1 (SN 65296)
User :
CE vs. WE compliance from -10 V to 10 V
Electrode connection : standard
Potential control : Ewe
Ewe ctrl range : min = -1.00 V, max = 1.00 V
Safety Limits :
	Do not start on E overload
Acquisition started on : 11/08/2022 17:30:03.488
Loaded Setting File :  NONE
Saved on :
	File : 20221101_1-115_002_TrumpetPlot_ParaChange_05_CV_C01.mpr
	Directory : C:\Users\NakamuraT\Documents\EC-Lab\Data\Yatsuzuka\20221108_1-115_001_TrumpetPlot\
	Host : 192.109.209.100
Device : SP-50e (SN .003219)
Address : 192.109.209.128
EC-Lab for windows v11.43 (software)
Internet server v11.40 (firmware)
Command interpretor v11.40 (firmware)
Electrode material : Au/Pd
Initial state :
Electrolyte : NaCl (0.2M)
Comments : Fe(CN)63-/Fe(CN)64- 5.10-3 M
Reference electrode : SCE Saturated Calomel Electrode (0.241 V)
Electrode surface area : 0.001 cm2
Characteristic mass : 0.001 g
Equivalent Weight : 0.000 g/eq.
Density : 0.000 g/cm3
Volume (V) : 0.001 cm3
Cycle Definition : Charge/Discharge alternance
Ei (V)              0.000
vs.                 Ref
dE/dt               5.000
dE/dt unit          mV/s
E1 (V)              0.300
vs.                 Ref
Step percent        50
N                   10
E range min (V)     -1.000
E range max (V)     1.000
I Range             10 mA
I Range min         Unset
I Range max         Unset
I Range init        Unset
Bandwidth           5
E2 (V)              0.000
vs.                 Ref
nc cycles           0
Reverse Scan        0
Ef (V)              0.000
vs.                 Eoc

Number of loops : 8
Loop 0 from point number 0 to 1204
Loop 1 from point number 1205 to 2409
Loop 2 from point number 2410 to 3614
Loop 3 from point number 3615 to 4819
Loop 4 from point number 4820 to 6024
Loop 5 from point number 6025 to 7229
Loop 6 from point number 7230 to 8434
Loop 7 from point number 8435 to 9639

mode	ox/red	error	control changes	counter inc.	time/s	control/V	Ewe/V	<I>/mA	cycle number	(Q-Qo)/C	I Range	P/W
2	1	0	0	0	958.886	2.44065e-05	-0.000401673	0.0161509	1	0.0000000E+000	11	-6.48739e-09
2	1	0	0	0	965.933	0.0352568	0.0349936	0.254069	1	0.00173563	11	8.8908e-06
2	1	0	1	0	973.024	0.070714	0.0704101	0.330666	1	0.00389219	11	2.32823e-05
2	1	0	0	0	980.116	0.106171	0.105919	0.502998	1	0.00693859	11	5.3277e-05
2	1	0	1	0	987.207	0.141629	0.141316	0.990396	1	0.0123404	11	0.000139958
2	1	0	1	0	994.299	0.177085	0.176799	0.440308	1	0.0177566	11	7.78462e-05
2	1	0	1	0	1001.39	0.212542	0.212218	0.301549	1	0.0203826	11	6.39941e-05
2	1	0	1	0	1008.48	0.248	0.24772	0.269547	1	0.0225265	11	6.67722e-05
2	1	0	0	0	1015.57	0.283457	0.283156	0.257959	1	0.0245323	11	7.30426e-05
2	0	0	1	0	1022.54	0.281759	0.281458	-0.0716636	1	0.0252316	11	-2.01703e-05
2	0	0	0	0	1029.63	0.246302	0.245984	-0.13451	1	0.0243295	11	-3.30872e-05
2	0	0	1	0	1036.72	0.210845	0.210524	-0.196875	1	0.0230198	11	-4.14468e-05
2	0	0	1	0	1043.81	0.175387	0.175105	-0.348182	1	0.0210718	11	-6.09684e-05
2	0	0	1	0	1050.9	0.13993	0.139635	-0.968988	1	0.0163951	11	-0.000135305
2	0	0	1	0	1057.99	0.104474	0.104183	-0.613359	1	0.0103757	11	-6.39017e-05
2	0	0	0	0	1065.08	0.069016	0.0687252	-0.441119	1	0.00657026	11	-3.0316e-05
2	0	0	1	0	1072.18	0.0335589	0.0332864	-0.391729	1	0.00355354	11	-1.30392e-05
2	1	0	1	0	2190.67	0.000798582	0.000448967	0.164855	2	2.63108e-05	11	7.40145e-08
2	1	0	1	0	2197.76	0.0362554	0.0359573	0.259455	2	0.00181484	11	9.32928e-06
2	1	0	1	0	2204.85	0.0717128	0.071426	0.359352	2	0.00408483	11	2.56671e-05
2	1	0	0	0	2211.94	0.10717	0.106884	0.534585	2	0.00735405	11	5.71385e-05
2	1	0	1	0	2219.04	0.142627	0.142345	0.965811	2	0.0128936	11	0.000137478
2	1	0	1	0	2226.13	0.178085	0.177768	0.415864	2	0.0180155	11	7.39274e-05
2	1	0	1	0	2233.22	0.213541	0.21323	0.296101	2	0.0205718	11	6.31376e-05
2	1	0	1	0	2240.31	0.248998	0.248701	0.267616	2	0.0227032	11	6.65564e-05
2	1	0	0	0	2247.4	0.284456	0.284181	0.256138	2	0.0247082	11	7.27896e-05
2	0	0	1	0	2254.36	0.28076	0.280451	-0.0733543	2	0.0253352	11	-2.05723e-05
2	0	0	0	0	2261.45	0.245303	0.24499	-0.136434	2	0.0244261	11	-3.3425e-05
2	0	0	1	0	2268.55	0.209846	0.209572	-0.191265	2	0.0231201	11	-4.00837e-05
2	0	0	0	0	2275.64	0.174389	0.174094	-0.342373	2	0.0211942	11	-5.9605e-05
2	0	0	1	0	2282.73	0.138931	0.138602	-0.950735	2	0.0165678	11	-0.000131773
2	0	0	1	0	2289.82	0.103474	0.103205	-0.622953	2	0.0106011	11	-6.42921e-05
2	0	0	1	0	2296.91	0.0680176	0.0677106	-0.460656	2	0.00666124	11	-3.11913e-05
2	0	0	1	0	2304	0.0325601	0.032297	-0.393217	2	0.00358236	11	-1.26997e-05
2	1	0	1	0	3422.5	0.00179771	0.00141955	0.173259	3	5.89956e-05	11	2.4595e-07
2	1	0	1	0	3429.59	0.0372545	0.0369821	0.263707	3	0.00185582	11	9.75245e-06
2	1	0	1	0	3436.68	0.0727114	0.0724173	0.386531	3	0.00421804	11	2.79916e-05
2	1	0	1	0	3443.77	0.108169	0.107888	0.551895	3	0.00763775	11	5.95429e-05
2	1	0	0	0	3450.86	0.143626	0.143348	0.934439	3	0.0132114	11	0.00013395
2	1	0	1	0	3457.95	0.179083	0.178785	0.403702	3	0.0180352	11	7.21758e-05
2	1	0	1	0	3465.05	0.214541	0.214274	0.295057	3	0.020541	11	6.32229e-05
2	1	0	1	0	3472.14	0.249997	0.249732	0.27146	3	0.0226698	11	6.77924e-05
2	1	0	1	0	3479.23	0.285454	0.285176	0.25846	3	0.0246774	11	7.37066e-05
2	0	0	1	0	3486.19	0.279761	0.279447	-0.0770992	3	0.0252431	11	-2.15451e-05
2	0	0	1	0	3493.28	0.244304	0.244014	-0.13727	3	0.0243366	11	-3.34957e-05
2	0	0	1	0	3500.37	0.208848	0.208556	-0.193832	3	0.0230406	11	-4.04249e-05
2	0	0	1	0	3507.47	0.17339	0.173094	-0.33568	3	0.0211477	11	-5.81041e-05
2	0	0	0	0	3514.56	0.137933	0.137616	-0.922596	3	0.0166517	11	-0.000126964
2	0	0	1	0	3521.65	0.102475	0.102146	-0.633474	3	0.0107552	11	-6.47066e-05
2	0	0	1	0	3528.74	0.0670183	0.0667336	-0.479027	3	0.00670789	11	-3.19672e-05
2	0	0	1	0	3535.83	0.0315615	0.0312413	-0.398184	3	0.00356868	11	-1.24398e-05
2	1	0	0	0	4654.33	0.00279606	0.0025049	0.187601	4	9.89879e-05	11	4.69921e-07
2	1	0	1	0	4661.42	0.0382532	0.0379607	0.273028	4	0.00191963	11	1.03643e-05
2	1	0	1	0	4668.51	0.0737106	0.0734219	0.405934	4	0.00438335	11	2.98045e-05
2	1	0	1	0	4675.6	0.109167	0.108855	0.574024	4	0.00792627	11	6.24854e-05
2	1	0	1	0	4682.69	0.144624	0.144341	0.899616	4	0.0135364	11	0.000129852
2	1	0	0	0	4689.78	0.180082	0.179768	0.383776	4	0.0180645	11	6.89905e-05
2	1	0	1	0	4696.87	0.215539	0.215247	0.293768	4	0.0205121	11	6.32326e-05
2	1	0	1	0	4703.97	0.250997	0.250726	0.269839	4	0.0226283	11	6.76558e-05
2	1	0	1	0	4711.06	0.286453	0.286161	0.257984	4	0.0246324	11	7.3825e-05
2	0	0	0	0	4718.02	0.278763	0.278484	-0.0787034	4	0.0251246	11	-2.19176e-05
2	0	0	1	0	4725.11	0.243305	0.243041	-0.137015	4	0.0242101	11	-3.33002e-05
2	0	0	1	0	4732.2	0.207848	0.207558	-0.192967	4	0.0229151	11	-4.00519e-05
2	0	0	1	0	4739.29	0.172392	0.172076	-0.329756	4	0.0210446	11	-5.67432e-05
2	0	0	1	0	4746.39	0.136934	0.136593	-0.898575	4	0.0166502	11	-0.000122739
2	0	0	0	0	4753.48	0.101477	0.101164	-0.636998	4	0.0108175	11	-6.44413e-05
2	0	0	1	0	4760.57	0.0660192	0.0657406	-0.494079	4	0.00670977	11	-3.24811e-05
2	0	0	1	0	4767.66	0.0305624	0.0302769	-0.398137	4	0.00352487	11	-1.20543e-05
2	1	0	1	0	5886.15	0.00379485	0.00352819	0.192506	5	0.000139572	11	6.79198e-07
2	1	0	0	0	5893.25	0.039252	0.0389182	0.279633	5	0.0019903	11	1.08828e-05
2	1	0	1	0	5900.34	0.0747092	0.0744386	0.421122	5	0.00455606	11	3.13477e-05
[...]
2	1	0	1	0	7139.26	0.111165	0.110883	0.616112	6	0.00844442	11	6.83162e-05
2	1	0	1	0	7146.35	0.146623	0.146355	0.815253	6	0.0140536	11	0.000119316
2	1	0	1	0	7153.44	0.182079	0.181796	0.352568	6	0.0179806	11	6.40956e-05
2	1	0	1	0	7160.53	0.217536	0.217241	0.28698	6	0.0203121	11	6.23437e-05
2	1	0	0	0	7167.62	0.252994	0.252722	0.268773	6	0.0223997	11	6.79247e-05
2	1	0	1	0	7174.71	0.288451	0.288148	0.258145	6	0.024392	11	7.43839e-05
2	0	0	0	0	7181.68	0.276765	0.276444	-0.0808139	6	0.024735	11	-2.23405e-05
2	0	0	1	0	7188.77	0.241308	0.241041	-0.138119	6	0.0238078	11	-3.32923e-05
2	0	0	0	0	7195.86	0.205851	0.20553	-0.191187	6	0.0225147	11	-3.92946e-05
2	0	0	1	0	7202.95	0.170393	0.170112	-0.317111	6	0.0206865	11	-5.39444e-05
2	0	0	1	0	7210.04	0.134936	0.13464	-0.856156	6	0.0164852	11	-0.000115273
2	0	0	1	0	7217.13	0.0994796	0.0991656	-0.642059	6	0.0108228	11	-6.36702e-05
2	0	0	1	0	7224.22	0.0640221	0.0637306	-0.503134	6	0.00666353	11	-3.2065e-05
2	0	0	0	0	7231.32	0.0285649	0.0282495	-0.403834	6	0.00340457	11	-1.14081e-05
2	1	0	1	0	8349.81	0.00579255	0.00546789	0.197965	7	0.000218299	11	1.08245e-06
2	1	0	1	0	8356.9	0.0412494	0.0409613	0.296097	7	0.00211012	11	1.21285e-05
2	1	0	1	0	8363.99	0.0767068	0.076393	0.442941	7	0.00484367	11	3.38376e-05
2	1	0	0	0	8371.08	0.112164	0.111897	0.626366	7	0.00863081	11	7.00888e-05
2	1	0	1	0	8378.18	0.147621	0.147339	0.769987	7	0.0141485	11	0.00011345
2	1	0	1	0	8385.27	0.183079	0.18278	0.345537	7	0.0178286	11	6.31571e-05
2	1	0	1	0	8392.36	0.218535	0.218271	0.287324	7	0.0201432	11	6.27146e-05
2	1	0	1	0	8399.45	0.253992	0.253733	0.268288	7	0.0222292	11	6.80735e-05
2	1	0	0	0	8406.54	0.28945	0.289162	0.257903	7	0.0242203	11	7.4576e-05
2	0	0	1	0	8413.5	0.275766	0.275433	-0.0831227	7	0.0244974	11	-2.28948e-05
2	0	0	1	0	8420.6	0.24031	0.23998	-0.140445	7	0.0235676	11	-3.37041e-05
2	0	0	1	0	8427.69	0.204852	0.204519	-0.191012	7	0.0222769	11	-3.90656e-05
2	0	0	0	0	8434.78	0.169395	0.169077	-0.312404	7	0.0204683	11	-5.28203e-05
2	0	0	1	0	8441.87	0.133937	0.133659	-0.828365	7	0.0163914	11	-0.000110718
2	0	0	1	0	8448.96	0.0984804	0.0981938	-0.643578	7	0.0108211	11	-6.31954e-05
2	0	0	1	0	8456.05	0.0630235	0.0627277	-0.50738	7	0.00664211	11	-3.18268e-05
2	0	0	1	0	8463.14	0.0275661	0.0272654	-0.407253	7	0.00334633	11	-1.11039e-05
2	1	0	1	0	9581.64	0.00679123	0.00648673	0.20666	8	0.000267431	11	1.34055e-06
2	1	0	1	0	9588.73	0.0422486	0.0419586	0.305855	8	0.00221182	11	1.28333e-05
2	1	0	1	0	9595.82	0.0777054	0.0773886	0.452673	8	0.00503525	11	3.50318e-05
2	1	0	1	0	9602.91	0.113162	0.112893	0.644078	8	0.00890736	11	7.27117e-05
2	1	0	0	0	9610	0.14862	0.148329	0.730358	8	0.0144064	11	0.000108333
2	1	0	1	0	9617.1	0.184077	0.183794	0.332722	8	0.017868	11	6.11523e-05
2	1	0	1	0	9624.19	0.219535	0.219262	0.284409	8	0.0201381	11	6.23602e-05
2	1	0	1	0	9631.28	0.254991	0.254705	0.265446	8	0.02221	11	6.76103e-05
2	1	0	1	0	9638.37	0.290448	0.290155	0.258103	8	0.0241981	11	7.48898e-05
2	0	0	1	0	9645.33	0.274767	0.27446	-0.0860471	8	0.0243934	11	-2.36165e-05
2	0	0	1	0	9652.42	0.23931	0.238973	-0.140495	8	0.0234494	11	-3.35747e-05
2	0	0	1	0	9659.51	0.203854	0.203516	-0.191082	8	0.022151	11	-3.88882e-05
2	0	0	1	0	9666.61	0.168396	0.168128	-0.311586	8	0.0203436	11	-5.23862e-05
2	0	0	0	0	9673.7	0.132939	0.132615	-0.815908	8	0.0162962	11	-0.000108201
2	0	0	1	0	9680.79	0.0974812	0.0971701	-0.643295	8	0.0107817	11	-6.2509e-05
2	0	0	1	0	9687.88	0.0620244	0.0616913	-0.512566	8	0.00660184	11	-3.16209e-05
2	0	0	1	0	9694.97	0.0265676	0.0262496	-0.41048	8	0.00327578	11	-1.07749e-05
2	0	0	1	0	9700.28	2.44065e-05	-0.000306236	-0.417126	8	0.00099941	11	1.27739e-07