Folder: Figs_alphaMnO2_OER_Tafel_sleope/Figure_codes/Fig_3-5/rawdata_trumpetplot_data/before 10th (part 7)

File: 20221101_1-115_002_TrumpetPlot_ParaChange_05_CV_C01_0.csv
mode,ox/red,error,control changes,counter inc.,time/s,control/V,Ewe/V,<I>/mA,cycle number,(Q-Qo)/C,I Range,P/W,log(|I|),Tafel slope mV/dec,alpha_eff,dI/d(E-IR),E-IR/V,
2,1,0,0,0,958.886,2.44065e-05,-0.000401673,0.0161509,1,0.0000000E+000,11,-6.48739e-09,-4.7918, , , ,-0.000401673,
2,1,0,1,0,960.34,0.0072904,0.00700306,0.209306,1,0.000301697,11,1.46578e-06,-3.67922,0.115711,0.509892,4.12625,0.00700306,
2,1,0,1,0,961.838,0.0147815,0.0144726,0.22871,1,0.000661661,11,3.31002e-06,-3.64071,0.3637,0.162222,1.44902,0.0144726,
2,1,0,1,0,963.336,0.0222725,0.0219751,0.239964,1,0.00104296,11,5.27322e-06,-3.61985,0.44594,0.132305,1.23073,0.02197508,
2,1,0,1,0,964.834,0.0297635,0.0294329,0.248119,1,0.00143821,11,7.30287e-06,-3.60534,0.97532,0.060493,0.583781,0.0294329,
2,1,0,1,0,966.332,0.0372545,0.0369503,0.254186,1,0.00184552,11,9.39227e-06,-3.59485,0.552432,0.1068,1.06769,0.0369503,
2,1,0,1,0,967.831,0.0447456,0.0444377,0.267162,1,0.00226606,11,1.18721e-05,-3.57323,0.394884,0.149411,1.5424,0.0444377,
2,1,0,1,0,969.329,0.0522367,0.0519382,0.278337,1,0.00270301,11,1.44563e-05,-3.55543,0.224552,0.262745,2.84851,0.0519382,
2,1,0,1,0,970.827,0.0597277,0.0594312,0.2952,1,0.0031623,11,1.75441e-05,-3.52988,0.246298,0.239547,2.76045,0.0594312,
2,1,0,1,0,972.325,0.0672187,0.0669164,0.319502,1,0.00365146,11,2.13799e-05,-3.49553,0.220778,0.267237,3.30274,0.0669164,
2,1,0,0,0,973.823,0.0747092,0.0744111,0.346322,1,0.00417903,11,2.57702e-05,-3.46052,0.187974,0.313874,4.25593,0.0744111,
2,1,0,1,0,975.322,0.0822001,0.0818774,0.376651,1,0.00475221,11,3.08392e-05,-3.42406,0.201204,0.293235,4.33428,0.0818774,
2,1,0,0,0,976.82,0.0896911,0.0894413,0.41235,1,0.00537456,11,3.68811e-05,-3.38473,0.195788,0.301347,4.85954,0.0894413,
2,1,0,1,0,978.318,0.097182,0.0969055,0.447665,1,0.00604969,11,4.33812e-05,-3.34905,0.170353,0.346339,6.04911,0.0969055,
2,1,0,0,0,979.816,0.104673,0.104409,0.49509,1,0.00678315,11,5.16918e-05,-3.30532,0.177121,0.333105,6.40418,0.104409,
2,1,0,1,0,981.314,0.112164,0.111879,0.556748,1,0.00759545,11,6.22886e-05,-3.25434,0.139973,0.42151,9.15042,0.111879,
2,1,0,0,0,982.813,0.119655,0.119374,0.656449,1,0.00852874,11,7.83633e-05,-3.1828,0.0981859,0.600901,15.4569,0.119374,
2,1,0,1,0,984.311,0.127146,0.126856,0.787445,1,0.00964113,11,9.98918e-05,-3.10378,0.0923394,0.638947,19.7508,0.126856,
2,1,0,0,0,985.809,0.134637,0.134371,0.925175,1,0.0109637,11,0.000124316,-3.03378,0.141506,0.416943,15.0678,0.134371,
2,1,0,1,0,987.307,0.142127,0.141878,0.991151,1,0.0124413,11,0.000140622,-3.00386,0.637245,0.0925861,3.56435,0.141878,
2,1,0,1,0,988.805,0.149618,0.149316,0.954908,1,0.0139438,11,0.000142583,-3.02004,-0.174209,-0.338674,-12.5506,0.149316,
2,1,0,1,0,990.303,0.157109,0.156813,0.807738,1,0.0153062,11,0.000126664,-3.09273,-0.0709013,-0.832142,-26.153,0.156813,
2,1,0,1,0,991.802,0.1646,0.164313,0.629552,1,0.016408,11,0.000103444,-3.20097,-0.0651731,-0.905282,-22.1608,0.164313,
2,1,0,1,0,993.3,0.172091,0.171815,0.494332,1,0.0172702,11,8.49335e-05,-3.30598,-0.0882896,-0.668255,-13.0266,0.171815,
2,1,0,1,0,994.798,0.179582,0.179278,0.418763,1,0.017981,11,7.5075e-05,-3.37803,-0.124693,-0.473162,-7.77112,0.179278,
2,1,0,1,0,996.296,0.187074,0.18679,0.372708,1,0.0186018,11,6.96181e-05,-3.42863,-0.191799,-0.307613,-4.47625,0.18679,
2,1,0,1,0,997.794,0.194564,0.194324,0.340219,1,0.0191655,11,6.61127e-05,-3.46824,-0.24,-0.245833,-3.27615,0.194324,
2,1,0,1,0,999.293,0.202056,0.201787,0.320666,1,0.0196906,11,6.47062e-05,-3.49395,-0.311293,-0.189532,-2.36306,0.201787,
2,1,0,1,0,1000.79,0.209547,0.209288,0.306422,1,0.0201893,11,6.41303e-05,-3.51368,-0.391405,-0.150739,-1.79696,0.209288,
2,1,0,1,0,1002.29,0.217038,0.216732,0.2948,1,0.0206678,11,6.38924e-05,-3.53047,-0.539071,-0.109447,-1.25687,0.216732,
2,1,0,1,0,1003.79,0.224529,0.224241,0.285017,1,0.0211323,11,6.39124e-05,-3.54513,-0.637877,-0.0924943,-1.02912,0.224241,
2,1,0,0,0,1005.29,0.232019,0.23173,0.278389,1,0.0215856,11,6.45111e-05,-3.55535,-0.644141,-0.0915949,-0.996585,0.23173,
2,1,0,1,0,1006.78,0.23951,0.239219,0.273899,1,0.0220305,11,6.5522e-05,-3.56241,-1.10983,-0.0531614,-0.567346,0.239219,
2,1,0,0,0,1008.28,0.247001,0.246741,0.270658,1,0.0224685,11,6.67825e-05,-3.56758,-1.70302,-0.0346444,-0.364566,0.246741,
2,1,0,1,0,1009.78,0.254492,0.254213,0.265931,1,0.0229008,11,6.76029e-05,-3.57523,-7.88205,-0.00748537,-0.0779865,0.254213,
2,1,0,0,0,1011.28,0.261983,0.261706,0.263474,1,0.0233281,11,6.89529e-05,-3.57926,-0.905552,-0.0651536,-0.667899,0.261706,
2,1,0,1,0,1012.78,0.269474,0.269219,0.260938,1,0.0237515,11,7.02494e-05,-3.58346,4.1031,0.0143794,0.146028,0.2692194,
2,1,0,0,0,1014.27,0.276965,0.276719,0.258412,1,0.0241713,11,7.15074e-05,-3.58769,-1.32023,-0.0446891,-0.450484,0.276719,
2,1,0,1,0,1015.77,0.284456,0.284174,0.25685,1,0.0245877,11,7.29902e-05,-3.59032,-2.03693,-0.0289652,-0.290051,0.284174,
2,1,0,0,0,1017.27,0.291947,0.291652,0.254664,1,0.0250011,11,7.42734e-05,-3.59403,-1.42841,-0.0413047,-0.411927,0.291652,
2,1,0,1,0,1018.77,0.299437,0.299194,0.251356,1,0.0254119,11,7.52042e-05,-3.59971,-0.00166959,-35.338,-128.876,0.2991935,
2,0,0,1,0,1020.14,0.293744,0.293473,-0.0320196,1,0.0254108,11,-9.39688e-06,-4.49458,-0.0129638,-4.55114,5.09284,0.293473,
2,0,0,1,0,1021.64,0.286253,0.285902,-0.0598254,1,0.0253098,11,-1.71042e-05,-4.22311,-0.0452411,-1.30412,3.0542,0.285902,
2,0,0,1,0,1023.13,0.278763,0.278479,-0.0795827,1,0.025174,11,-2.21621e-05,-4.09918,-0.0855247,-0.689859,2.09473,0.278479,
2,0,0,0,0,1024.63,0.271272,0.271013,-0.0953253,1,0.0250125,11,-2.58344e-05,-4.02079,-0.151128,-0.390398,1.44422,0.271013,
2,0,0,1,0,1026.13,0.263781,0.26349,-0.108395,1,0.0248291,11,-2.8561e-05,-3.96499,-0.1491,-0.395707,1.68518,0.26349,
2,0,0,0,0,1027.63,0.25629,0.256016,-0.120759,1,0.0246267,11,-3.09163e-05,-3.91808,-0.165447,-0.35661,1.67526,0.256016,
2,0,0,1,0,1029.13,0.248799,0.248508,-0.130513,1,0.0244065,11,-3.24334e-05,-3.88435,-0.223771,-0.263662,1.3645,0.248508,
2,0,0,0,0,1030.63,0.241308,0.241018,-0.143911,1,0.0241692,11,-3.4685e-05,-3.84191,-0.209721,-0.281326,1.58318,0.241018,
2,0,0,1,0,1032.12,0.233817,0.233555,-0.155722,1,0.0239151,11,-3.63695e-05,-3.80765,-0.307214,-0.192048,1.16643,0.233555,
2,0,0,0,0,1033.62,0.226326,0.226039,-0.164976,1,0.0236432,11,-3.72909e-05,-3.78258,-0.22758,-0.259249,1.68788,0.226039,
2,0,0,1,0,1035.12,0.218835,0.218567,-0.180154,1,0.0233525,11,-3.93757e-05,-3.74436,-0.191848,-0.307536,2.15423,0.218567,
2,0,0,0,0,1036.62,0.211344,0.211,-0.194045,1,0.0230414,11,-4.09434e-05,-3.7121,-0.174256,-0.338582,2.58581,0.211,
2,0,0,1,0,1038.12,0.203854,0.203504,-0.211124,1,0.0227057,11,-4.29647e-05,-3.67546,-0.197189,-0.299206,2.49882,0.203504,
2,0,0,1,0,1039.61,0.196363,0.196047,-0.235621,1,0.0223411,11,-4.61929e-05,-3.62779,-0.161098,-0.366237,3.34055,0.196047,
2,0,0,1,0,1041.11,0.188871,0.188562,-0.263436,1,0.0219383,11,-4.96741e-05,-3.57932,-0.118676,-0.497152,5.1139,0.188562,
2,0,0,1,0,1042.61,0.181381,0.181062,-0.304652,1,0.0214849,11,-5.51608e-05,-3.5162,-0.107041,-0.551191,6.52306,0.181062,
2,0,0,1,0,1044.11,0.173889,0.173544,-0.362789,1,0.0209594,11,-6.296e-05,-3.44035,-0.0858349,-0.687366,9.66092,0.173544,
2,0,0,1,0,1045.61,0.166398,0.166115,-0.449983,1,0.0203256,11,-7.47489e-05,-3.3468,-0.0720193,-0.819225,14.5381,0.1661149,
2,0,0,1,0,1047.11,0.158907,0.158628,-0.586917,1,0.0195221,11,-9.31017e-05,-3.23142,-0.0624522,-0.944722,21.7479,0.158628,
2,0,0,1,0,1048.6,0.151416,0.151153,-0.770166,1,0.0184751,11,-0.000116413,-3.11342,-0.0772137,-0.764113,22.8847,0.151153,
2,0,0,1,0,1050.1,0.143925,0.143628,-0.922473,1,0.01717,11,-0.000132493,-3.03505,-0.121314,-0.486339,17.3881,0.143628,
2,0,0,1,0,1051.6,0.136434,0.13615,-0.990773,1,0.0156955,11,-0.000134894,-3.00403,-1.28011,-0.0460899,1.76926,0.13615,
2,0,0,1,0,1053.1,0.128943,0.128669,-0.949039,1,0.0142014,11,-0.000122112,-3.02272,0.158409,0.372455,-13.7048,0.128669,
2,0,0,1,0,1054.6,0.121453,0.121138,-0.831674,1,0.0128343,11,-0.000100747,-3.08005,0.10622,0.555453,-18.0101,0.121138,
2,0,0,0,0,1056.09,0.113962,0.113654,-0.705361,1,0.0116543,11,-8.01667e-05,-3.15159,0.113708,0.518875,-14.3754,0.113654,
2,0,0,1,0,1057.59,0.106471,0.106205,-0.624561,1,0.0106301,11,-6.63317e-05,-3.20442,0.191576,0.307972,-7.5517,0.106205,
2,0,0,0,0,1059.09,0.0989798,0.0986795,-0.571404,1,0.00970678,11,-5.63858e-05,-3.24306,0.26504,0.222608,-4.96252,0.0986795,
2,0,0,1,0,1060.59,0.0914889,0.0912132,-0.537746,1,0.00884963,11,-4.90495e-05,-3.26942,0.292672,0.201591,-4.20934,0.0912132,
2,0,0,0,0,1062.09,0.083998,0.0836949,-0.50167,1,0.0080434,11,-4.19872e-05,-3.29958,0.220607,0.267444,-5.23026,0.08369492,
2,0,0,1,0,1063.59,0.076507,0.0761894,-0.471466,1,0.00728417,11,-3.59207e-05,-3.32655,0.276055,0.213725,-3.93021,0.0761894,
2,0,0,0,0,1065.08,0.069016,0.0687252,-0.441119,1,0.00657026,11,-3.0316e-05,-3.35544,0.287115,0.205492,-3.56038,0.0687252,
2,0,0,1,0,1066.58,0.0615251,0.0612482,-0.419952,1,0.00589464,11,-2.57213e-05,-3.3768,0.437864,0.134745,-2.2172,0.0612482,
2,0,0,0,0,1068.08,0.0540341,0.0537618,-0.405136,1,0.00524879,11,-2.17808e-05,-3.3924,0.535494,0.110179,-1.73357,0.0537618,
2,0,0,1,0,1069.58,0.0465436,0.0462407,-0.393927,1,0.00462183,11,-1.82155e-05,-3.40458,1.3515,0.0436553,-0.672514,0.0462407,
2,0,0,1,0,1071.08,0.0390526,0.0387425,-0.390698,1,0.00400443,11,-1.51366e-05,-3.40816,1.36084,0.0433557,-0.660136,0.0387425,
2,0,0,1,0,1072.57,0.0315615,0.0312824,-0.391941,1,0.00338917,11,-1.22609e-05,-3.40678,-2.35705,-0.0250313,0.383428,0.0312824,
2,0,0,1,0,1074.07,0.0240706,0.0238033,-0.396203,1,0.00276977,11,-9.43092e-06,-3.40208,-0.728526,-0.0809854,1.25782,0.0238033,
2,0,0,1,0,1075.57,0.0165795,0.0162542,-0.404648,1,0.00214079,11,-6.57722e-06,-3.39292,-0.635454,-0.0928469,1.4616,0.0162542,
2,0,0,1,0,1077.07,0.00908845,0.00882173,-0.414775,1,0.00149803,11,-3.65903e-06,-3.38219,-0.551385,-0.107003,1.73003,0.00882173,
2,0,0,1,0,1078.57,0.00159739,0.00120693,-0.429046,1,0.000835919,11,-5.1783e-07,-3.3675, , , ,0.00120693,
2,0,0,1,0,1078.85,0.000199195,-0.000151629,-0.428454,1,0.000710379,11,6.49659e-08,-3.3681, , , ,-0.000151629,

File: 20221101_1-115_002_TrumpetPlot_ParaChange_05_CV_C01_1.csv
mode,ox/red,error,control changes,counter inc.,time/s,control/V,Ewe/V,<I>/mA,cycle number,(Q-Qo)/C,I Range,P/W,log(|I|),Tafel slope mV/dec,alpha_eff,dI/d(E-IR),E-IR/V,
2,1,0,1,0,2190.51,2.44065e-05,-0.000325324,0.0686023,2,0.0000000E+000,11,-2.23179e-08,-4.16366, , , ,-0.000325324,
2,1,0,1,0,2191.97,0.0072904,0.0069669,0.210833,2,0.00030634,11,1.46885e-06,-3.67606,0.1221,0.483212,3.95524,0.0069669,
2,1,0,1,0,2193.47,0.0147815,0.0144757,0.228421,2,0.0006695,11,3.30655e-06,-3.64126,0.34481,0.171109,1.52782,0.0144757,
2,1,0,1,0,2194.96,0.0222725,0.0219866,0.240971,2,0.00105525,11,5.29815e-06,-3.61803,0.426437,0.138356,1.30207,0.0219866,
2,1,0,1,0,2196.46,0.0297635,0.0294965,0.253112,2,0.00145603,11,7.46592e-06,-3.59669,0.448451,0.131564,1.28848,0.0294965,
2,1,0,1,0,2197.96,0.0372545,0.0369556,0.261035,2,0.00187104,11,9.6467e-06,-3.5833,0.353562,0.166873,1.69929,0.0369556,
2,1,0,1,0,2199.46,0.0447456,0.0444263,0.273213,2,0.00230201,11,1.21378e-05,-3.5635,0.413441,0.142705,1.52003,0.04442627,
2,1,0,1,0,2200.96,0.0522367,0.051952,0.287891,2,0.00275408,11,1.49565e-05,-3.54077,0.205643,0.286904,3.23181,0.051952,
2,1,0,1,0,2202.46,0.0597277,0.0593961,0.3126,2,0.0032345,11,1.85672e-05,-3.50501,0.199523,0.295705,3.59457,0.0593961,
2,1,0,1,0,2203.95,0.0672187,0.0669389,0.340192,2,0.00375251,11,2.27721e-05,-3.46828,0.206273,0.286028,3.78026,0.0669389,
2,1,0,1,0,2205.45,0.0747092,0.0744111,0.371983,2,0.00431636,11,2.76797e-05,-3.42948,0.195219,0.302224,4.40388,0.0744111,
2,1,0,0,0,2206.95,0.0822001,0.0819092,0.403805,2,0.00493088,11,3.30753e-05,-3.39383,0.219073,0.269316,4.2722,0.0819092,
2,1,0,1,0,2208.45,0.0896911,0.0894285,0.440919,2,0.00559591,11,3.94307e-05,-3.35564,0.230213,0.256285,4.41377,0.0894285,
2,1,0,0,0,2209.95,0.097182,0.0968811,0.473782,2,0.0063114,11,4.59005e-05,-3.32442,0.196506,0.300245,5.53538,0.0968811,
2,1,0,1,0,2211.44,0.104673,0.104408,0.519514,2,0.00708168,11,5.42413e-05,-3.2844,0.177191,0.332974,6.71314,0.104408,
2,1,0,0,0,2212.94,0.112164,0.111876,0.577939,2,0.00792809,11,6.46577e-05,-3.23812,0.138891,0.424793,9.5527,0.111876,
2,1,0,1,0,2214.44,0.119655,0.119378,0.674308,2,0.00889239,11,8.04972e-05,-3.17114,0.102908,0.57333,15.1266,0.119378,
2,1,0,0,0,2215.94,0.127146,0.126844,0.792691,2,0.0100252,11,0.000100548,-3.1009,0.109207,0.54026,16.8352,0.126844,
2,1,0,1,0,2217.44,0.134637,0.134345,0.912068,2,0.0113449,11,0.000122532,-3.03997,0.171911,0.343201,12.2316,0.134345,
2,1,0,1,0,2218.94,0.142127,0.141814,0.96652,2,0.012795,11,0.000137066,-3.01479,0.777774,0.0758575,2.847,0.141814,
2,1,0,1,0,2220.43,0.149618,0.149334,0.922685,2,0.014255,11,0.000137788,-3.03495,-0.162513,-0.363047,-13.0151,0.1493337,
2,1,0,1,0,2221.93,0.157109,0.156827,0.775556,2,0.0155675,11,0.000121628,-3.11039,-0.0703598,-0.838547,-25.227,0.156827,
2,1,0,1,0,2223.43,0.1646,0.164321,0.602329,2,0.016625,11,9.89756e-05,-3.22017,-0.0657974,-0.896692,-21.0524,0.164321,
2,1,0,1,0,2224.93,0.172091,0.171789,0.475797,2,0.0174559,11,8.17367e-05,-3.32258,-0.0910844,-0.647751,-12.1531,0.171789,
2,1,0,1,0,2226.43,0.179582,0.179296,0.408157,2,0.0181451,11,7.31808e-05,-3.38917,-0.137336,-0.429603,-6.85044,0.179296,
2,1,0,1,0,2227.92,0.187074,0.186851,0.36304,2,0.0187511,11,6.78345e-05,-3.44005,-0.195494,-0.3018,-4.29667,0.186851,
2,1,0,1,0,2229.42,0.194564,0.194288,0.334799,2,0.0193046,11,6.50474e-05,-3.47522,-0.284832,-0.20714,-2.7151,0.194288,
2,1,0,1,0,2230.92,0.202056,0.201771,0.316347,2,0.0198227,11,6.38299e-05,-3.49984,-0.281942,-0.209263,-2.57009,0.201771,
2,1,0,1,0,2232.42,0.209547,0.209257,0.302595,2,0.0203164,11,6.33201e-05,-3.51914,-0.344034,-0.171494,-2.00974,0.209257,
2,1,0,1,0,2233.92,0.217038,0.216712,0.291044,2,0.0207917,11,6.30726e-05,-3.53604,-0.817667,-0.0721565,-0.820817,0.2167117,
2,1,0,1,0,2235.42,0.224529,0.224275,0.283657,2,0.021254,11,6.36171e-05,-3.54721,-0.940912,-0.0627051,-0.695474,0.224275,
2,1,0,1,0,2236.91,0.232019,0.231773,0.276364,2,0.021706,11,6.40538e-05,-3.55852,-0.444125,-0.132845,-1.44199,0.231773,
2,1,0,0,0,2238.41,0.23951,0.239261,0.274757,2,0.02215,11,6.57385e-05,-3.56105,-1.73807,-0.0339457,-0.360828,0.239261,
2,1,0,1,0,2239.91,0.247001,0.246697,0.268764,2,0.0225875,11,6.63033e-05,-3.57063,-0.742717,-0.0794381,-0.834788,0.246697,
2,1,0,0,0,2241.41,0.254492,0.254185,0.264121,2,0.0230197,11,6.71357e-05,-3.5782,-1.19251,-0.0494753,-0.51359,0.254185,
2,1,0,1,0,2242.91,0.261983,0.26171,0.263613,2,0.0234472,11,6.89901e-05,-3.57903,-1.11133,-0.0530896,-0.544522,0.2617096,
2,1,0,0,0,2244.4,0.269474,0.269232,0.259793,2,0.0238709,11,6.99447e-05,-3.58537,1.25124,0.0471533,0.478103,0.269232,
2,1,0,1,0,2245.9,0.276965,0.276716,0.257183,2,0.0242911,11,7.11668e-05,-3.58976,-1.71226,-0.0344573,-0.347438,0.276716,
2,1,0,0,0,2247.4,0.284456,0.284181,0.256138,2,0.0247082,11,7.27896e-05,-3.59153,-1.42463,-0.0414143,-0.414005,0.284181,
2,1,0,1,0,2248.9,0.291947,0.291639,0.252947,2,0.0251223,11,7.37691e-05,-3.59697,-2.26137,-0.0260904,-0.259835,0.291639,
2,1,0,1,0,2250.4,0.299437,0.299222,0.251523,2,0.0255337,11,7.52611e-05,-3.59942,-0.00160539,-36.7512,-131.527,0.299222,
2,0,0,1,0,2251.77,0.293744,0.293442,-0.0324241,2,0.0255324,11,-9.51459e-06,-4.48913,-0.012292,-4.79986,5.1879,0.2934418,
2,0,0,1,0,2253.26,0.286253,0.285966,-0.0580891,2,0.0254317,11,-1.66115e-05,-4.23591,-0.0443434,-1.33053,3.05966,0.285966,
2,0,0,0,0,2254.76,0.278763,0.278458,-0.0791357,2,0.0252966,11,-2.20359e-05,-4.10163,-0.0897319,-0.657514,1.98144,0.278458,
2,0,0,1,0,2256.26,0.271272,0.271015,-0.0944374,2,0.0251359,11,-2.55939e-05,-4.02486,-0.105312,-0.560239,2.04763,0.271015,
2,0,0,0,0,2257.76,0.263781,0.263484,-0.106433,2,0.0249537,11,-2.80434e-05,-3.97292,-0.141595,-0.416681,1.73933,0.263484,
2,0,0,1,0,2259.26,0.25629,0.255936,-0.119591,2,0.0247525,11,-3.06076e-05,-3.9223,-0.181925,-0.324309,1.50144,0.255936,
2,0,0,0,0,2260.76,0.248799,0.248533,-0.129893,2,0.0245339,11,-3.22828e-05,-3.88641,-0.192779,-0.306051,1.56384,0.248533,
2,0,0,1,0,2262.25,0.241308,0.241025,-0.141725,2,0.0242985,11,-3.41593e-05,-3.84855,-0.219545,-0.268737,1.47745,0.241025,
2,0,0,0,0,2263.75,0.233817,0.233526,-0.153094,2,0.0240465,11,-3.57515e-05,-3.81504,-0.257329,-0.229278,1.36055,0.233526,
2,0,0,1,0,2265.25,0.226326,0.226056,-0.162507,2,0.0237775,11,-3.67357e-05,-3.78913,-0.328815,-0.179432,1.14342,0.226056,
2,0,0,0,0,2266.75,0.218835,0.218552,-0.175994,2,0.0234905,11,-3.84639e-05,-3.7545,-0.206556,-0.285636,1.96466,0.218552,
2,0,0,1,0,2268.25,0.211344,0.211069,-0.189119,2,0.0231839,11,-3.99171e-05,-3.72327,-0.207705,-0.284056,2.11807,0.211069,
2,0,0,1,0,2269.74,0.203854,0.203579,-0.207394,2,0.0228541,11,-4.2221e-05,-3.6832,-0.169536,-0.348009,2.83199,0.203579,
2,0,0,1,0,2271.24,0.196363,0.196071,-0.229072,2,0.0224972,11,-4.49142e-05,-3.64003,-0.178919,-0.329759,2.9237,0.196071,
2,0,0,1,0,2272.74,0.188871,0.188532,-0.254843,2,0.0221046,11,-4.80461e-05,-3.59373,-0.113066,-0.521821,5.19266,0.1885322,
2,0,0,1,0,2274.24,0.181381,0.181101,-0.292688,2,0.0216648,11,-5.30061e-05,-3.5336,-0.115762,-0.509666,5.83825,0.181101,
2,0,0,1,0,2275.74,0.173889,0.17359,-0.346723,2,0.0211577,11,-6.01876e-05,-3.46002,-0.0907318,-0.650268,8.79286,0.17359,
2,0,0,1,0,2277.24,0.166398,0.166117,-0.42903,2,0.0205487,11,-7.12693e-05,-3.36751,-0.0758356,-0.777999,13.2008,0.166117,
2,0,0,1,0,2278.73,0.158907,0.158628,-0.561715,2,0.0197787,11,-8.91039e-05,-3.25048,-0.0614839,-0.959601,21.1389,0.158628,
2,0,0,1,0,2280.23,0.151416,0.151104,-0.73951,2,0.0187736,11,-0.000111743,-3.13106,-0.0729027,-0.809298,23.2732,0.151104,
2,0,0,1,0,2281.73,0.143925,0.143636,-0.892964,2,0.0175132,11,-0.000128262,-3.04917,-0.116041,-0.508439,17.6205,0.143636,
2,0,0,1,0,2283.23,0.136434,0.136143,-0.968079,2,0.0160787,11,-0.000131798,-3.01409,-0.695367,-0.0848473,3.17832,0.136143,
2,0,0,1,0,2284.73,0.128943,0.128632,-0.937465,2,0.0146114,11,-0.000120588,-3.02804,0.197212,0.299171,-10.8808,0.128632,
2,0,0,0,0,2286.22,0.121453,0.121175,-0.83815,2,0.0132464,11,-0.000101563,-3.07668,0.12057,0.489342,-15.9977,0.121175,
2,0,0,1,0,2287.72,0.113962,0.113672,-0.721888,2,0.012046,11,-8.20581e-05,-3.14153,0.120255,0.490622,-13.9213,0.113672,
2,0,0,0,0,2289.22,0.106471,0.10615,-0.644112,2,0.010993,11,-6.83725e-05,-3.19104,0.178956,0.32969,-8.33818,0.10615,
2,0,0,1,0,2290.72,0.0989798,0.0986456,-0.593383,2,0.0100382,11,-5.85346e-05,-3.22667,0.31156,0.18937,-4.37571,0.0986456,
2,0,0,0,0,2292.22,0.0914889,0.0911931,-0.561052,2,0.00914701,11,-5.1164e-05,-3.251,0.346351,0.170347,-3.7083,0.0911931,
2,0,0,1,0,2293.72,0.083998,0.0837257,-0.527328,2,0.008304,11,-4.41509e-05,-3.27792,0.234057,0.252075,-5.1795,0.0837257,
2,0,0,0,0,2295.21,0.076507,0.0761957,-0.496242,2,0.00750671,11,-3.78115e-05,-3.30431,0.250684,0.235356,-4.54119,0.0761957,
2,0,0,1,0,2296.71,0.069016,0.068723,-0.462394,2,0.00675758,11,-3.17771e-05,-3.33499,0.27421,0.215164,-3.89982,0.068723,
2,0,0,0,0,2298.21,0.0615251,0.0612567,-0.436172,2,0.00605336,11,-2.67184e-05,-3.36034,0.314785,0.187429,-3.19493,0.0612567,
2,0,0,1,0,2299.71,0.0540341,0.0537141,-0.415651,2,0.0053868,11,-2.23263e-05,-3.38127,0.464991,0.126884,-2.05081,0.0537141,
2,0,0,1,0,2301.21,0.0465436,0.0462545,-0.398896,2,0.00474587,11,-1.84508e-05,-3.39914,0.78787,0.0748855,-1.17705,0.0462545,
2,0,0,1,0,2302.7,0.0390526,0.0387668,-0.394246,2,0.00411996,11,-1.52837e-05,-3.40423,1.24503,0.0473885,-0.730431,0.0387668,
2,0,0,1,0,2304.2,0.0315615,0.0312434,-0.394755,2,0.00349959,11,-1.23335e-05,-3.40367,-6.6045,-0.0089333,0.137184,0.03124344,
2,0,0,1,0,2305.7,0.0240706,0.0237906,-0.396521,2,0.00287761,11,-9.43347e-06,-3.40173,-3.14908,-0.0187356,0.29057,0.0237906,
2,0,0,1,0,2307.2,0.0165795,0.016264,-0.404649,2,0.00224765,11,-6.5812e-06,-3.39292,-0.945851,-0.0623777,0.979716,0.016264,
2,0,0,1,0,2308.7,0.00908845,0.008809,-0.411968,2,0.00160527,11,-3.62903e-06,-3.38514,-0.7037,-0.0838425,1.35265,0.008809,
2,0,0,1,0,2310.2,0.00159739,0.00127778,-0.426067,2,0.000944591,11,-5.44419e-07,-3.37052, , , ,0.00127778,
2,0,0,0,0,2310.48,0.000199195,-0.000151629,-0.42648,2,0.000819475,11,6.46667e-08,-3.3701, , , ,-0.000151629,