Folder: Figs_alphaMnO2_OER_Tafel_sleope/Figure_codes/Fig_3-5/rawdata_trumpetplot_data/before 10th (part 13)

File: 20221101_1-115_002_TrumpetPlot_ParaChange_06_CV_C01_3.csv
mode,ox/red,error,control changes,counter inc.,time/s,control/V,Ewe/V,<I>/mA,cycle number,(Q-Qo)/C,I Range,P/W,log(|I|),Tafel slope mV/dec,alpha_eff,dI/d(E-IR),E-IR/V,
2,0,0,1,0,4773.87,2.44065e-05,-0.000344411,-0.524722,4,0.0000000E+000,11,1.8072e-07,-3.28007, , , ,-0.000344411,
2,1,0,1,0,4774.6,0.00729063,0.00698618,0.399462,4,0.000241949,11,2.79071e-06,-3.39852,0.103019,0.572707,8.87909,0.00698618,
2,1,0,1,0,4775.35,0.0147814,0.0144872,0.446147,4,0.000570654,11,6.46343e-06,-3.35052,0.215045,0.274361,4.78139,0.0144872,
2,1,0,1,0,4776.1,0.0222725,0.0219782,0.473085,4,0.000926192,11,1.03976e-05,-3.32506,0.328775,0.179454,3.31343,0.0219782,
2,1,0,1,0,4776.85,0.0297635,0.0294657,0.498102,4,0.00130063,11,1.46769e-05,-3.30268,0.348304,0.169392,3.29437,0.0294657,
2,1,0,1,0,4777.6,0.0372544,0.0369533,0.523031,4,0.00169387,11,1.93277e-05,-3.28147,0.31345,0.188228,3.86177,0.0369533,
2,1,0,1,0,4778.34,0.0447458,0.0444517,0.55852,4,0.00210942,11,2.48271e-05,-3.25296,0.22743,0.25942,5.66008,0.04445165,
2,1,0,1,0,4779.09,0.0522363,0.0518997,0.602206,4,0.00255411,11,3.12543e-05,-3.22026,0.174329,0.338441,7.95057,0.0518997,
2,1,0,1,0,4779.84,0.0597282,0.0594134,0.660937,4,0.00303716,11,3.92685e-05,-3.17984,0.180524,0.326826,8.40922,0.0594134,
2,1,0,1,0,4780.59,0.0672182,0.0669564,0.728406,4,0.00356642,11,4.87714e-05,-3.13763,0.189749,0.310938,8.79857,0.0669564,
2,1,0,1,0,4781.34,0.0747092,0.0744196,0.794569,4,0.00414639,11,5.91314e-05,-3.09987,0.20637,0.285894,8.88099,0.0744196,
2,1,0,1,0,4782.09,0.0822001,0.0818944,0.853964,4,0.00477606,11,6.99348e-05,-3.06856,0.271303,0.217469,7.27675,0.0818944,
2,1,0,1,0,4782.84,0.0896911,0.0894126,0.914557,4,0.00544998,11,8.1773e-05,-3.03879,0.289339,0.203913,7.28736,0.0894126,
2,1,0,1,0,4783.59,0.097182,0.0968917,0.971293,4,0.00616725,11,9.41102e-05,-3.01265,0.219014,0.269389,10.2185,0.0968917,
2,1,0,1,0,4784.34,0.104673,0.104373,1.05482,4,0.00693353,11,0.000110094,-2.97682,0.198646,0.297011,12.1904,0.104373,
2,1,0,1,0,4785.09,0.112164,0.111907,1.16647,4,0.00777103,11,0.000130537,-2.93312,0.148856,0.396355,18.0334,0.111907,
2,1,0,1,0,4785.84,0.119655,0.119367,1.33125,4,0.00871364,11,0.000158907,-2.87574,0.138348,0.426462,22.1627,0.119367,
2,1,0,1,0,4786.58,0.127146,0.126841,1.50925,4,0.00978946,11,0.000191435,-2.82124,0.142765,0.413265,24.3726,0.126841,
2,1,0,1,0,4787.33,0.134637,0.134356,1.67195,4,0.0109964,11,0.000224636,-2.77678,0.246163,0.239679,15.6348,0.134356,
2,1,0,1,0,4788.08,0.142127,0.141818,1.74969,4,0.0122946,11,0.000248137,-2.75704,1.14652,0.0514603,3.49483,0.141818,
2,1,0,1,0,4788.83,0.149619,0.149374,1.67033,4,0.0135961,11,0.000249504,-2.7772,-0.159992,-0.368767,-23.9011,0.1493744,
2,1,0,1,0,4789.58,0.157109,0.156852,1.41577,4,0.0147706,11,0.000222065,-2.84901,-0.0763189,-0.773072,-42.5716,0.156852,
2,1,0,1,0,4790.33,0.164601,0.164347,1.1104,4,0.0157245,11,0.000182491,-2.95452,-0.0693629,-0.850599,-36.9283,0.164347,
2,1,0,1,0,4791.08,0.172091,0.171792,0.882006,4,0.0164756,11,0.000151522,-3.05453,-0.0905328,-0.651697,-22.6408,0.171792,
2,1,0,1,0,4791.83,0.179582,0.179304,0.751817,4,0.0170946,11,0.000134804,-3.12389,-0.128387,-0.459548,-13.5309,0.179304,
2,1,0,1,0,4792.58,0.187074,0.186769,0.677928,4,0.0176368,11,0.000126616,-3.16882,-0.203951,-0.289285,-7.6273,0.186769,
2,1,0,1,0,4793.33,0.194564,0.194297,0.624476,4,0.0181324,11,0.000121334,-3.20448,-0.264481,-0.223078,-5.44106,0.194297,
2,1,0,1,0,4794.08,0.202056,0.201754,0.592492,4,0.0185974,11,0.000119538,-3.22732,-0.322267,-0.183078,-4.22198,0.201754,
2,1,0,1,0,4794.82,0.209546,0.20927,0.568407,4,0.0190419,11,0.000118951,-3.24534,-0.457942,-0.128837,-2.8609,0.2092704,
2,1,0,1,0,4795.57,0.217038,0.216738,0.551359,4,0.0194704,11,0.000119501,-3.25857,-0.692995,-0.0851377,-1.83203,0.216738,
2,1,0,1,0,4796.32,0.224528,0.224217,0.536051,4,0.0198879,11,0.000120192,-3.27079,-0.644185,-0.0915886,-1.91835,0.2242168,
2,1,0,1,0,4797.07,0.232019,0.231724,0.526638,4,0.0202961,11,0.000122035,-3.27849,-0.748256,-0.07885,-1.61888,0.2317245,
2,1,0,1,0,4797.82,0.23951,0.239213,0.517586,4,0.0206971,11,0.000123813,-3.28602,-1.31953,-0.044713,-0.901706,0.239213,
2,1,0,1,0,4798.57,0.247001,0.246722,0.509674,4,0.0210917,11,0.000125748,-3.29271,-0.79884,-0.0738571,-1.4642,0.246722,
2,1,0,1,0,4799.32,0.254492,0.254227,0.503325,4,0.0214811,11,0.000127959,-3.29815,-1.12915,-0.0522515,-1.02607,0.254227,
2,1,0,1,0,4800.07,0.261983,0.261689,0.497282,4,0.0218657,11,0.000130133,-3.3034,-0.93523,-0.0630861,-1.2215,0.261689,
2,1,0,1,0,4800.82,0.269474,0.269183,0.491121,4,0.022246,11,0.000132202,-3.30881,-5.41561,-0.0108944,-0.208638,0.269183,
2,1,0,1,0,4801.57,0.276965,0.276697,0.486481,4,0.0226225,11,0.000134608,-3.31293,-1.86877,-0.0315716,-0.59996,0.2766974,
2,1,0,1,0,4802.32,0.284456,0.28419,0.482409,4,0.0229954,11,0.000137096,-3.31658,-32.8138,-0.00179802,-0.0337639,0.28419,
2,1,0,1,0,4803.06,0.291947,0.29166,0.477354,4,0.0233647,11,0.000139225,-3.32116,-1.02781,-0.0574036,-1.0687,0.29166,
2,1,0,1,0,4803.81,0.299437,0.299154,0.470848,4,0.0237308,11,0.000140856,-3.32712,-0.00109455,-53.9032,-277.481,0.299154,
2,0,0,1,0,4804.5,0.293745,0.293461,-0.111889,4,0.0237143,11,-3.28352e-05,-3.95121,-0.0253489,-2.32752,9.67353,0.293461,
2,0,0,1,0,4805.25,0.286253,0.285966,-0.161187,4,0.0235999,11,-4.60939e-05,-3.79267,-0.0675037,-0.874026,5.48782,0.285966,
2,0,0,1,0,4806,0.278763,0.278482,-0.194765,4,0.0234555,11,-5.42385e-05,-3.71049,-0.103873,-0.568,4.29418,0.278482,
2,0,0,1,0,4806.75,0.271272,0.270987,-0.22082,4,0.0232894,11,-5.98395e-05,-3.65596,-0.199696,-0.295449,2.54532,0.270987,
2,0,0,1,0,4807.49,0.263781,0.263455,-0.242403,4,0.0231052,11,-6.38624e-05,-3.61546,-0.194939,-0.302659,2.88045,0.263455,
2,0,0,1,0,4808.24,0.25629,0.256012,-0.262709,4,0.0229054,11,-6.72566e-05,-3.58053,-0.290658,-0.202988,2.07325,0.256012,
2,0,0,1,0,4808.99,0.248799,0.248496,-0.281664,4,0.0226911,11,-6.99924e-05,-3.55027,-0.252496,-0.233667,2.5791,0.248496,
2,0,0,1,0,4809.74,0.241308,0.241054,-0.301049,4,0.022463,11,-7.2569e-05,-3.52136,-0.319714,-0.18454,2.16183,0.241054,
2,0,0,1,0,4810.49,0.233817,0.233488,-0.31868,4,0.0222214,11,-7.44078e-05,-3.49665,-0.246178,-0.239664,2.96537,0.233488,
2,0,0,1,0,4811.24,0.226326,0.226057,-0.336172,4,0.0219661,11,-7.5994e-05,-3.47344,-0.410523,-0.143719,1.88878,0.226057,
2,0,0,1,0,4811.99,0.218835,0.218585,-0.356909,4,0.0216962,11,-7.8015e-05,-3.44744,-0.290975,-0.202767,2.81996,0.218585,
2,0,0,1,0,4812.74,0.211344,0.21106,-0.37888,4,0.0214108,11,-7.99666e-05,-3.4215,-0.268236,-0.219955,3.25484,0.21106,
2,0,0,1,0,4813.49,0.203854,0.203558,-0.404685,4,0.0211071,11,-8.23769e-05,-3.39288,-0.269914,-0.218588,3.46515,0.203558,
2,0,0,1,0,4814.24,0.196362,0.196039,-0.437618,4,0.0207824,11,-8.579e-05,-3.3589,-0.220154,-0.267994,4.55719,0.196039,
2,0,0,1,0,4814.99,0.188872,0.188583,-0.478757,4,0.0204302,11,-9.02854e-05,-3.31989,-0.143938,-0.409898,7.63967,0.188583,
2,0,0,1,0,4815.73,0.18138,0.181089,-0.538356,4,0.0200416,11,-9.74904e-05,-3.26893,-0.137717,-0.428414,8.96736,0.181089,
2,0,0,1,0,4816.48,0.17389,0.173583,-0.62051,4,0.019601,11,-0.00010771,-3.20725,-0.100681,-0.586011,14.1723,0.173583,
2,0,0,1,0,4817.23,0.166398,0.166115,-0.747719,4,0.0190819,11,-0.000124207,-3.12626,-0.0861217,-0.685077,20.1516,0.166115,
2,0,0,1,0,4817.98,0.158907,0.158602,-0.949964,4,0.018439,11,-0.000150666,-3.02229,-0.0659631,-0.89444,33.3548,0.158602,
2,0,0,1,0,4818.73,0.151417,0.151107,-1.24367,4,0.0176087,11,-0.000187928,-2.90529,-0.0709527,-0.831539,40.3169,0.151107,
2,0,0,1,0,4819.48,0.143925,0.143614,-1.5359,4,0.0165536,11,-0.000220576,-2.81364,-0.0945903,-0.623743,37.3002,0.143614,
2,0,0,1,0,4820.23,0.136435,0.136152,-1.72812,4,0.0153113,11,-0.000235287,-2.76243,-0.255209,-0.231183,15.5157,0.136152,
2,0,0,1,0,4820.98,0.128943,0.128668,-1.76668,4,0.0139842,11,-0.000227315,-2.75284,0.737988,0.0799471,-5.48248,0.128668,
2,0,0,1,0,4821.73,0.121453,0.121098,-1.66204,4,0.012684,11,-0.000201269,-2.77936,0.187332,0.314949,-20.4206,0.121098,
2,0,0,1,0,4822.48,0.113962,0.113636,-1.48769,4,0.0114897,11,-0.000169055,-2.82749,0.14436,0.4087,-23.8312,0.1136355,
2,0,0,1,0,4823.23,0.106471,0.106174,-1.32655,4,0.0104257,11,-0.000140845,-2.87728,0.171136,0.344755,-17.9339,0.106174,
2,0,0,1,0,4823.97,0.0989799,0.0986795,-1.21596,4,0.00946631,11,-0.00011999,-2.91508,0.247223,0.238651,-11.3188,0.0986795,
2,0,0,1,0,4824.72,0.0914889,0.0911697,-1.14537,4,0.00857578,11,-0.000104423,-2.94105,0.352813,0.167227,-7.44002,0.0911697,
2,0,0,1,0,4825.47,0.083998,0.0836971,-1.08745,4,0.00773153,11,-9.10166e-05,-2.96359,0.277365,0.212716,-9.01306,0.0836971,
2,0,0,1,0,4826.22,0.076507,0.0761841,-1.03598,4,0.00692605,11,-7.89252e-05,-2.98465,0.313351,0.188287,-7.60162,0.0761841,
2,0,0,1,0,4826.97,0.0690161,0.0687146,-0.972164,4,0.00616259,11,-6.68018e-05,-3.01226,0.266402,0.22147,-8.43756,0.0687146,
2,0,0,1,0,4827.72,0.0615251,0.0612111,-0.911098,4,0.00544548,11,-5.57693e-05,-3.04044,0.249654,0.236327,-8.42535,0.0612111,
2,0,0,1,0,4828.47,0.0540342,0.0537162,-0.85154,4,0.0047763,11,-4.57415e-05,-3.0698,0.272552,0.216472,-7.17137,0.0537162,
2,0,0,1,0,4829.22,0.0465441,0.0462478,-0.803109,4,0.00414725,11,-3.71421e-05,-3.09523,0.402003,0.146765,-4.61735,0.0462478,
2,0,0,1,0,4829.97,0.0390523,0.0387454,-0.773955,4,0.00354724,11,-2.99871e-05,-3.11128,0.396249,0.148896,-4.48341,0.0387454,
2,0,0,1,0,4830.72,0.0315618,0.0312561,-0.758057,4,0.00296481,11,-2.36939e-05,-3.1203,1.88386,0.0313187,-0.927354,0.03125605,
2,0,0,1,0,4831.47,0.0240704,0.0238339,-0.749767,4,0.0023899,11,-1.78699e-05,-3.12507,9.11309,0.0064742,-0.190442,0.0238339,
2,0,0,1,0,4832.22,0.0165796,0.0162414,-0.757977,4,0.00181471,11,-1.23106e-05,-3.12034,-0.88431,-0.0667187,1.97244,0.0162414,
2,0,0,1,0,4832.96,0.00908846,0.00874539,-0.769534,4,0.00123299,11,-6.72988e-06,-3.11377,-0.870499,-0.0677772,2.03611,0.00874539,
2,0,0,1,0,4833.71,0.00159728,0.00127158,-0.793503,4,0.0006389,11,-1.009e-06,-3.10045, , , ,0.00127158,
2,0,0,1,0,4833.85,0.000199195,-0.000161173,-0.789975,4,0.000526386,11,1.27322e-07,-3.10239, , , ,-0.000161173,

File: 20221101_1-115_002_TrumpetPlot_ParaChange_06_CV_C01_4.csv
mode,ox/red,error,control changes,counter inc.,time/s,control/V,Ewe/V,<I>/mA,cycle number,(Q-Qo)/C,I Range,P/W,log(|I|),Tafel slope mV/dec,alpha_eff,dI/d(E-IR),E-IR/V,
2,0,0,1,0,6005.5,2.44065e-05,-0.000401673,-0.562024,5,0.0000000E+000,11,2.2575e-07,-3.25025, , , ,-0.000401673,
2,1,0,1,0,6006.23,0.00729063,0.00698724,0.401186,5,0.000239576,11,2.80318e-06,-3.39665,0.106616,0.553385,8.57657,0.00698724,
2,1,0,1,0,6006.98,0.0147814,0.014503,0.445075,5,0.000569764,11,6.45493e-06,-3.35157,0.205323,0.287351,5.00534,0.014503,
2,1,0,1,0,6007.73,0.0222725,0.0219634,0.479614,5,0.000927515,11,1.05339e-05,-3.31911,0.328175,0.179782,3.35606,0.0219634,
2,1,0,1,0,6008.47,0.0297635,0.0294837,0.50298,5,0.0013057,11,1.48297e-05,-3.29845,0.334579,0.176341,3.46819,0.0294837,
2,1,0,1,0,6009.22,0.0372544,0.0369374,0.532543,5,0.00170476,11,1.96707e-05,-3.27365,0.333795,0.176755,3.69821,0.0369374,
2,1,0,1,0,6009.97,0.0447458,0.0444637,0.575808,5,0.00212944,11,2.56025e-05,-3.23972,0.233648,0.252517,5.65243,0.0444637,
2,1,0,1,0,6010.72,0.0522363,0.0519103,0.62177,5,0.00258715,11,3.22763e-05,-3.20637,0.176881,0.333558,8.09688,0.0519103,
2,1,0,1,0,6011.47,0.0597282,0.059423,0.685688,5,0.00308685,11,4.07457e-05,-3.16387,0.17942,0.328837,8.80109,0.059423,
2,1,0,1,0,6012.22,0.0672182,0.0669161,0.752436,5,0.00363526,11,5.03501e-05,-3.12353,0.197767,0.29833,8.7342,0.0669161,
2,1,0,1,0,6012.97,0.0747092,0.0744058,0.820884,5,0.00423418,11,6.10785e-05,-3.08572,0.227632,0.259191,8.29076,0.0744058,
2,1,0,1,0,6013.72,0.0822001,0.0819675,0.873595,5,0.00488078,11,7.16064e-05,-3.05869,0.297603,0.198251,6.78576,0.0819675,
2,1,0,1,0,6014.47,0.0896911,0.0894169,0.934163,5,0.00556921,11,8.353e-05,-3.02958,0.301543,0.19566,7.13941,0.0894169,
2,1,0,1,0,6015.22,0.097182,0.0968673,0.989018,5,0.00629918,11,9.58035e-05,-3.0048,0.219378,0.268942,10.3889,0.0968673,
2,1,0,1,0,6015.97,0.104673,0.104394,1.07313,5,0.00707871,11,0.000112029,-2.96935,0.193428,0.305024,12.7356,0.104394,
2,1,0,1,0,6016.71,0.112164,0.111874,1.18884,5,0.00793151,11,0.000133,-2.92488,0.15263,0.386555,17.9002,0.111874,
2,1,0,1,0,6017.46,0.119655,0.119362,1.34536,5,0.00888895,11,0.000160585,-2.87116,0.146523,0.402668,21.179,0.119362,
2,1,0,1,0,6018.21,0.127146,0.126822,1.50469,5,0.00996962,11,0.000190828,-2.82255,0.166389,0.354591,20.8836,0.126822,
2,1,0,1,0,6018.96,0.134637,0.134274,1.644,5,0.0111646,11,0.000220747,-2.7841,0.280191,0.210571,13.5191,0.134274,
2,1,0,1,0,6019.71,0.142127,0.141874,1.7061,5,0.0124363,11,0.000242052,-2.768,2.59374,0.022747,1.50613,0.141874,
2,1,0,1,0,6020.46,0.149619,0.149337,1.61079,5,0.0136994,11,0.000240551,-2.79296,-0.150915,-0.390949,-24.4597,0.149337,
2,1,0,1,0,6021.21,0.157109,0.156794,1.34888,5,0.014825,11,0.000211496,-2.87003,-0.0737282,-0.800236,-41.9498,0.156794,
2,1,0,1,0,6021.96,0.164601,0.164356,1.05512,5,0.0157314,11,0.000173415,-2.9767,-0.0699031,-0.844025,-34.759,0.164356,
2,1,0,1,0,6022.71,0.172091,0.171799,0.844107,5,0.0164469,11,0.000145016,-3.0736,-0.0968301,-0.609315,-20.2325,0.171799,
2,1,0,1,0,6023.46,0.179582,0.17933,0.726388,5,0.0170423,11,0.000130263,-3.13883,-0.136505,-0.432219,-12.3039,0.17933,
2,1,0,1,0,6024.21,0.187074,0.186786,0.657791,5,0.0175683,11,0.000122866,-3.18191,-0.227664,-0.259154,-6.62847,0.186786,
2,1,0,1,0,6024.95,0.194564,0.194252,0.613025,5,0.0180523,11,0.000119081,-3.21252,-0.273466,-0.215749,-5.16191,0.194252,
2,1,0,1,0,6025.7,0.202056,0.201777,0.581921,5,0.018509,11,0.000117418,-3.23514,-0.345915,-0.170562,-3.85836,0.201777,
2,1,0,1,0,6026.45,0.209546,0.209291,0.561994,5,0.0189471,11,0.00011762,-3.25027,-0.471278,-0.125192,-2.74619,0.209291,
2,1,0,1,0,6027.2,0.217038,0.216764,0.544284,5,0.0193708,11,0.000117981,-3.26417,-0.865137,-0.0681973,-1.44899,0.216764,
2,1,0,1,0,6027.95,0.224528,0.224228,0.5309,5,0.0197842,11,0.000119043,-3.27499,-0.836339,-0.0705456,-1.46209,0.224228,
2,1,0,1,0,6028.7,0.232019,0.231693,0.522809,5,0.0201891,11,0.000121131,-3.28166,-1.37913,-0.0427807,-0.873959,0.231693,
2,1,0,1,0,6029.45,0.23951,0.239224,0.513942,5,0.0205873,11,0.000122947,-3.28909,-0.898639,-0.0656549,-1.31596,0.2392237,
2,1,0,1,0,6030.2,0.247001,0.24676,0.507657,5,0.0209798,11,0.000125269,-3.29443,-0.72065,-0.0818705,-1.61951,0.24676,
2,1,0,1,0,6030.95,0.254492,0.254198,0.498651,5,0.0213673,11,0.000126756,-3.3022,-1.46295,-0.0403293,-0.784269,0.254198,
2,1,0,1,0,6031.7,0.261983,0.261678,0.495025,5,0.0217502,11,0.000129537,-3.30537,-0.892076,-0.0661379,-1.27807,0.2616778,
2,1,0,1,0,6032.45,0.269474,0.26923,0.489144,5,0.0221293,11,0.000131692,-3.31056,-13.5821,-0.00434395,-0.082822,0.26923,
2,1,0,1,0,6033.19,0.276965,0.276669,0.483941,5,0.0225046,11,0.000133891,-3.31521,-1.19212,-0.0494915,-0.938417,0.276669,
2,1,0,1,0,6033.94,0.284456,0.284184,0.481266,5,0.0228767,11,0.000136768,-3.31761,-9.68662,-0.00609087,-0.113889,0.284184,
2,1,0,1,0,6034.69,0.291947,0.291641,0.476177,5,0.0232452,11,0.000138872,-3.32223,-1.00811,-0.0585252,-1.08936,0.291641,
2,1,0,1,0,6035.44,0.299437,0.299108,0.470413,5,0.0236107,11,0.000140704,-3.32752,-0.00105068,-56.1543,-267.767,0.299108,
2,0,0,1,0,6036.13,0.293745,0.293433,-0.114259,5,0.0235936,11,-3.35274e-05,-3.94211,-0.026045,-2.26531,9.75904,0.293433,
2,0,0,1,0,6036.88,0.286253,0.285968,-0.161945,5,0.023478,11,-4.63111e-05,-3.79063,-0.0798552,-0.738838,4.68239,0.285968,
2,0,0,1,0,6037.63,0.278763,0.278464,-0.195716,5,0.0233329,11,-5.44999e-05,-3.70837,-0.111283,-0.530179,4.015,0.278464,
2,0,0,1,0,6038.37,0.271272,0.270993,-0.222292,5,0.0231663,11,-6.02397e-05,-3.65308,-0.153897,-0.383372,3.30692,0.270993,
2,0,0,1,0,6039.12,0.263781,0.263455,-0.240922,5,0.0229821,11,-6.3472e-05,-3.61812,-0.192781,-0.306048,2.9054,0.263455,
2,0,0,1,0,6039.87,0.25629,0.255995,-0.263328,5,0.0227822,11,-6.74108e-05,-3.5795,-0.320667,-0.183992,1.88924,0.255995,
2,0,0,1,0,6040.62,0.248799,0.248497,-0.278628,5,0.0225681,11,-6.92383e-05,-3.55497,-0.281901,-0.209294,2.2915,0.248497,
2,0,0,1,0,6041.37,0.241308,0.240983,-0.299494,5,0.0223405,11,-7.21728e-05,-3.52361,-0.362475,-0.16277,1.90224,0.240983,
2,0,0,1,0,6042.12,0.233817,0.233513,-0.316646,5,0.0220997,11,-7.39411e-05,-3.49943,-0.230938,-0.25548,3.14437,0.233513,
2,0,0,1,0,6042.87,0.226326,0.226025,-0.334782,5,0.0218455,11,-7.56691e-05,-3.47524,-0.376543,-0.156689,2.04928,0.226025,
2,0,0,1,0,6043.62,0.218835,0.218545,-0.354336,5,0.0215773,11,-7.74383e-05,-3.45058,-0.266276,-0.221575,3.06415,0.218545,
2,0,0,1,0,6044.37,0.211344,0.211035,-0.375166,5,0.0212942,11,-7.91731e-05,-3.42578,-0.312232,-0.188962,2.76284,0.211035,
2,0,0,1,0,6045.12,0.203854,0.20351,-0.398214,5,0.0209938,11,-8.10407e-05,-3.39988,-0.248644,-0.237287,3.70244,0.20351,
2,0,0,1,0,6045.87,0.196362,0.196097,-0.429644,5,0.0206738,11,-8.42519e-05,-3.36689,-0.219953,-0.268239,4.48244,0.196097,
2,0,0,1,0,6046.61,0.188872,0.188525,-0.467239,5,0.0203283,11,-8.80862e-05,-3.33046,-0.148055,-0.398501,7.25874,0.188525,
2,0,0,1,0,6047.36,0.18138,0.181069,-0.520778,5,0.0199494,11,-9.42967e-05,-3.28335,-0.139093,-0.424177,8.61039,0.181069,
2,0,0,1,0,6048.11,0.17389,0.173596,-0.599154,5,0.019523,11,-0.000104011,-3.22246,-0.105755,-0.557892,13.0099,0.173596,
2,0,0,1,0,6048.86,0.166398,0.166084,-0.713456,5,0.0190252,11,-0.000118494,-3.14663,-0.0865148,-0.681964,19.0973,0.166084,
2,0,0,1,0,6049.61,0.158907,0.158629,-0.90146,5,0.0184141,11,-0.000142998,-3.04505,-0.0662317,-0.890813,31.5337,0.158629,
2,0,0,1,0,6050.36,0.151417,0.151094,-1.17569,5,0.0176281,11,-0.00017764,-2.92971,-0.0682745,-0.864159,39.6591,0.151094,
2,0,0,1,0,6051.11,0.143925,0.143608,-1.46948,5,0.0166243,11,-0.00021103,-2.83284,-0.0888298,-0.664192,37.9087,0.143608,
2,0,0,1,0,6051.86,0.136435,0.136143,-1.67271,5,0.0154294,11,-0.000227728,-2.77658,-0.223564,-0.263906,17.1378,0.136143,
2,0,0,1,0,6052.61,0.128943,0.128641,-1.72803,5,0.0141378,11,-0.000222296,-2.76245,1.40515,0.0419884,-2.81586,0.128641,
2,0,0,1,0,6053.36,0.121453,0.121134,-1.65401,5,0.0128557,11,-0.000200356,-2.78146,0.220993,0.266976,-17.1916,0.121134,
2,0,0,1,0,6054.11,0.113962,0.113636,-1.50136,5,0.0116599,11,-0.000170608,-2.82352,0.159366,0.370217,-21.7664,0.113636,
2,0,0,1,0,6054.85,0.106471,0.106168,-1.35144,5,0.0105807,11,-0.000143479,-2.8692,0.174262,0.338571,-17.915,0.106168,
2,0,0,1,0,6055.6,0.0989799,0.0986827,-1.23562,5,0.0096048,11,-0.000121935,-2.90811,0.256688,0.229851,-11.0672,0.0986827,
2,0,0,1,0,6056.35,0.0914889,0.0911718,-1.16262,5,0.00870021,11,-0.000105999,-2.93456,0.32647,0.180721,-8.17575,0.0911718,
2,0,0,1,0,6057.1,0.083998,0.0837236,-1.10491,5,0.00784343,11,-9.2507e-05,-2.95667,0.302098,0.195301,-8.40076,0.08372356,
2,0,0,1,0,6057.85,0.076507,0.0761501,-1.05725,5,0.00702439,11,-8.05094e-05,-2.97582,0.313419,0.188246,-7.75356,0.0761501,
2,0,0,1,0,6058.6,0.0690161,0.068723,-0.995252,5,0.00624487,11,-6.83967e-05,-3.00207,0.299324,0.197111,-7.68293,0.068723,
2,0,0,1,0,6059.35,0.0615251,0.0612472,-0.935716,5,0.0055092,11,-5.731e-05,-3.02886,0.262396,0.224851,-8.24326,0.0612472,
2,0,0,1,0,6060.1,0.0540342,0.0537353,-0.874274,5,0.0048216,11,-4.69794e-05,-3.05835,0.291838,0.202167,-6.89018,0.0537353,
2,0,0,1,0,6060.85,0.0465441,0.0462018,-0.819952,5,0.00417744,11,-3.78833e-05,-3.08621,0.357018,0.165258,-5.29997,0.0462018,
2,0,0,1,0,6061.6,0.0390523,0.0387326,-0.78616,5,0.00356638,11,-3.045e-05,-3.10449,0.373656,0.157899,-4.82898,0.0387326,
2,0,0,1,0,6062.35,0.0315618,0.0312436,-0.76531,5,0.00297707,11,-2.3911e-05,-3.11616,0.91331,0.0646002,-1.927,0.0312436,
2,0,0,1,0,6063.09,0.0240704,0.0237077,-0.754569,5,0.00239828,11,-1.78891e-05,-3.1223,39.0021,0.00151274,-0.0447742,0.0237077,
2,0,0,1,0,6063.84,0.0165796,0.0162724,-0.75859,5,0.00182133,11,-1.23441e-05,-3.11999,-1.00059,-0.0589651,1.74501,0.01627242,
2,0,0,1,0,6064.59,0.00908846,0.00875918,-0.768106,5,0.00123954,11,-6.72798e-06,-3.11458,-0.806368,-0.0731676,2.19492,0.00875918,
2,0,0,1,0,6065.34,0.00159728,0.00121853,-0.794686,5,0.000646258,11,-9.68352e-07,-3.0998, , , ,0.00121853,
2,0,0,1,0,6065.48,0.000199195,-0.000187895,-0.788092,5,0.00053392,11,1.48078e-07,-3.10342, , , ,-0.000187895,