Folder: Figs_alphaMnO2_OER_Tafel_sleope/Figure_codes/Fig_3-5/rawdata_trumpetplot_data/before 10th (part 12)

File: 20221101_1-115_002_TrumpetPlot_ParaChange_06_CV_C01_1.csv
mode,ox/red,error,control changes,counter inc.,time/s,control/V,Ewe/V,<I>/mA,cycle number,(Q-Qo)/C,I Range,P/W,log(|I|),Tafel slope mV/dec,alpha_eff,dI/d(E-IR),E-IR/V,
2,0,0,1,0,2310.62,2.44065e-05,-0.000325324,-0.4174,2,0.0000000E+000,11,1.3579e-07,-3.37945, , , ,-0.000325324,
2,1,0,1,0,2311.34,0.00729063,0.00708692,0.410222,2,0.000261923,11,2.90721e-06,-3.38698,0.117459,0.502304,7.99432,0.00708692,
2,1,0,1,0,2312.09,0.0147814,0.0144806,0.454223,2,0.000596999,11,6.5774e-06,-3.34273,0.240822,0.244994,4.33473,0.0144806,
2,1,0,1,0,2312.84,0.0222725,0.0219973,0.475718,2,0.000955545,11,1.04645e-05,-3.32265,0.42614,0.138452,2.56773,0.0219973,
2,1,0,1,0,2313.59,0.0297635,0.0295124,0.496447,2,0.0013296,11,1.46513e-05,-3.30413,0.570553,0.103408,1.99746,0.0295124,
2,1,0,1,0,2314.34,0.0372544,0.0369458,0.512494,2,0.00171766,11,1.89345e-05,-3.29031,0.395806,0.149063,2.99926,0.0369458,
2,1,0,1,0,2315.09,0.0447458,0.0444591,0.539701,2,0.00212139,11,2.39946e-05,-3.26785,0.345545,0.170745,3.57535,0.04445906,
2,1,0,1,0,2315.84,0.0522363,0.0519792,0.567128,2,0.00254562,11,2.94789e-05,-3.24632,0.217981,0.270665,5.99476,0.0519792,
2,1,0,1,0,2316.59,0.0597282,0.0594695,0.613476,2,0.00299753,11,3.64831e-05,-3.2122,0.218792,0.269662,6.43637,0.0594695,
2,1,0,1,0,2317.34,0.0672182,0.0669681,0.66859,2,0.00348605,11,4.47742e-05,-3.17484,0.17918,0.329278,8.53766,0.0669681,
2,1,0,1,0,2318.08,0.0747092,0.0744408,0.72937,2,0.0040189,11,5.42948e-05,-3.13705,0.198124,0.297793,8.49326,0.0744408,
2,1,0,1,0,2318.83,0.0822001,0.0819018,0.79214,2,0.00460156,11,6.48776e-05,-3.1012,0.225602,0.261523,8.13413,0.0819018,
2,1,0,1,0,2319.58,0.0896911,0.0893861,0.862881,2,0.0052329,11,7.71296e-05,-3.06405,0.2276,0.259227,8.73147,0.0893861,
2,1,0,1,0,2320.33,0.097182,0.096933,0.92569,2,0.00591297,11,8.97299e-05,-3.03353,0.198065,0.297882,10.7458,0.096933,
2,1,0,1,0,2321.08,0.104673,0.104394,1.00904,2,0.00664546,11,0.000105338,-2.99609,0.181328,0.325376,12.7723,0.104394,
2,1,0,1,0,2321.83,0.112164,0.11187,1.12505,2,0.00745027,11,0.00012586,-2.94883,0.136778,0.431355,18.8918,0.11187,
2,1,0,1,0,2322.58,0.119655,0.119356,1.30572,2,0.00836581,11,0.000155846,-2.88415,0.11369,0.518954,26.5072,0.119356,
2,1,0,1,0,2323.33,0.127146,0.12686,1.53045,2,0.00943944,11,0.000194153,-2.81518,0.109812,0.537282,32.2624,0.12686,
2,1,0,1,0,2324.08,0.134637,0.134314,1.75765,2,0.0106898,11,0.000236078,-2.75507,0.173166,0.340713,23.3873,0.134314,
2,1,0,1,0,2324.83,0.142127,0.141846,1.8771,2,0.0120712,11,0.00026626,-2.72651,0.518737,0.113738,8.29083,0.141846,
2,1,0,1,0,2325.58,0.149619,0.149353,1.82026,2,0.0134772,11,0.000271862,-2.73987,-0.185508,-0.318045,-22.4233,0.149353,
2,1,0,1,0,2326.32,0.157109,0.156816,1.55397,2,0.0147599,11,0.000243688,-2.80856,-0.075907,-0.777267,-46.8019,0.156816,
2,1,0,1,0,2327.07,0.164601,0.164353,1.20377,2,0.0158,11,0.000197843,-2.91946,-0.0646274,-0.912925,-42.8991,0.164353,
2,1,0,1,0,2327.82,0.172091,0.1718,0.9435,2,0.0166077,11,0.000162093,-3.02526,-0.0811967,-0.726631,-26.9901,0.1718,
2,1,0,1,0,2328.57,0.179582,0.179324,0.796634,2,0.0172648,11,0.000142856,-3.09874,-0.123911,-0.47615,-14.7941,0.179324,
2,1,0,1,0,2329.32,0.187074,0.18678,0.70688,2,0.0178337,11,0.000132031,-3.15065,-0.178309,-0.330886,-9.09829,0.18678,
2,1,0,1,0,2330.07,0.194564,0.194265,0.644046,2,0.018348,11,0.000125115,-3.19108,-0.23823,-0.247659,-6.23937,0.194265,
2,1,0,1,0,2330.82,0.202056,0.201786,0.607778,2,0.0188258,11,0.000122641,-3.21626,-0.274307,-0.215087,-5.0815,0.201786,
2,1,0,1,0,2331.57,0.209546,0.209297,0.576206,2,0.0192788,11,0.000120598,-3.23942,-0.426616,-0.138298,-3.11664,0.2092969,
2,1,0,1,0,2332.32,0.217038,0.216726,0.556365,2,0.0197132,11,0.000120579,-3.25464,-0.519874,-0.113489,-2.46948,0.216726,
2,1,0,1,0,2333.07,0.224528,0.224286,0.53975,2,0.0201343,11,0.000121058,-3.26781,-0.790774,-0.0746104,-1.56881,0.224286,
2,1,0,1,0,2333.82,0.232019,0.231746,0.529532,2,0.0205446,11,0.000122717,-3.27611,-0.66929,-0.0881531,-1.81487,0.231746,
2,1,0,1,0,2334.56,0.23951,0.239282,0.518128,2,0.0209469,11,0.000123979,-3.28556,-0.783711,-0.0752828,-1.51952,0.239282,
2,1,0,1,0,2335.31,0.247001,0.246794,0.511338,2,0.0213422,11,0.000126195,-3.29129,-0.669156,-0.0881708,-1.75213,0.246794,
2,1,0,1,0,2336.06,0.254492,0.254241,0.501674,2,0.0217317,11,0.000127546,-3.29958,-1.87315,-0.0314977,-0.618367,0.254241,
2,1,0,1,0,2336.81,0.261983,0.261717,0.495149,2,0.0221161,11,0.000129589,-3.30526,-1.21615,-0.0485136,-0.9373,0.261717,
2,1,0,1,0,2337.56,0.269474,0.269191,0.49095,2,0.022496,11,0.000132159,-3.30896,-11.1542,-0.00528949,-0.101056,0.269191,
2,1,0,1,0,2338.31,0.276965,0.276673,0.484974,2,0.0228719,11,0.000134179,-3.31428,-0.908883,-0.0649149,-1.23207,0.276673,
2,1,0,1,0,2339.06,0.284456,0.284191,0.48059,2,0.0232441,11,0.00013658,-3.31822,-2.65108,-0.0222551,-0.4163,0.284191,
2,1,0,1,0,2339.81,0.291947,0.291663,0.474736,2,0.0236127,11,0.000138463,-3.32355,-0.826323,-0.0714006,-1.32953,0.2916629,
2,1,0,1,0,2340.56,0.299437,0.299212,0.468367,2,0.0239782,11,0.000140141,-3.32941,-0.00155705,-37.8922,-281.561,0.299212,
2,0,0,1,0,2341.24,0.293745,0.293448,-0.118727,2,0.0239536,11,-3.48401e-05,-3.92545,-0.0279584,-2.11028,9.4475,0.293448,
2,0,0,1,0,2341.99,0.286253,0.285944,-0.166316,2,0.0238347,11,-4.75571e-05,-3.77907,-0.0844465,-0.698667,4.54835,0.285944,
2,0,0,1,0,2342.74,0.278763,0.278483,-0.200451,2,0.0236862,11,-5.58223e-05,-3.69799,-0.120279,-0.490526,3.82947,0.278483,
2,0,0,1,0,2343.49,0.271272,0.271008,-0.225032,2,0.023516,11,-6.09857e-05,-3.64775,-0.170134,-0.346786,3.05493,0.271008,
2,0,0,1,0,2344.24,0.263781,0.263506,-0.248504,2,0.0233277,11,-6.54823e-05,-3.60467,-0.199334,-0.295985,2.88196,0.263506,
2,0,0,1,0,2344.99,0.25629,0.255989,-0.269376,2,0.0231235,11,-6.89572e-05,-3.56964,-0.320983,-0.18381,1.91325,0.255989,
2,0,0,1,0,2345.74,0.248799,0.248532,-0.288437,2,0.0229045,11,-7.16857e-05,-3.53995,-0.264153,-0.223355,2.51186,0.248532,
2,0,0,1,0,2346.49,0.241308,0.241028,-0.305455,2,0.0226713,11,-7.36234e-05,-3.51505,-0.280217,-0.210551,2.5142,0.241028,
2,0,0,1,0,2347.23,0.233817,0.233563,-0.326181,2,0.0224241,11,-7.61838e-05,-3.48654,-0.243475,-0.242325,3.07272,0.233563,
2,0,0,1,0,2347.98,0.226326,0.226051,-0.343689,2,0.0221621,11,-7.76914e-05,-3.46383,-0.362967,-0.162549,2.1933,0.226051,
2,0,0,1,0,2348.73,0.218835,0.218555,-0.369748,2,0.0218845,11,-8.08103e-05,-3.43209,-0.282396,-0.208927,2.99072,0.218555,
2,0,0,1,0,2349.48,0.211344,0.211023,-0.3909,2,0.0215895,11,-8.2489e-05,-3.40793,-0.268187,-0.219996,3.36606,0.211023,
2,0,0,1,0,2350.23,0.203854,0.203519,-0.421205,2,0.0212739,11,-8.57233e-05,-3.37551,-0.215139,-0.274242,4.53712,0.203519,
2,0,0,1,0,2350.98,0.196362,0.196029,-0.462435,2,0.0209336,11,-9.06507e-05,-3.33495,-0.19807,-0.297875,5.3478,0.196029,
2,0,0,1,0,2351.73,0.188872,0.188573,-0.509258,2,0.0205605,11,-9.60321e-05,-3.29306,-0.131626,-0.448239,8.90381,0.188573,
2,0,0,1,0,2352.48,0.18138,0.181095,-0.581535,2,0.0201433,11,-0.000105313,-3.23542,-0.121506,-0.485575,11.0069,0.181095,
2,0,0,1,0,2353.23,0.17389,0.173596,-0.685346,2,0.019663,11,-0.000118973,-3.16409,-0.0961016,-0.613934,16.3469,0.173596,
2,0,0,1,0,2353.98,0.166398,0.166084,-0.839849,2,0.0190866,11,-0.000139486,-3.0758,-0.076439,-0.771857,25.4933,0.166084,
2,0,0,1,0,2354.73,0.158907,0.158596,-1.08766,2,0.0183588,11,-0.000172499,-2.96351,-0.0634543,-0.929803,39.6157,0.158596,
2,0,0,1,0,2355.47,0.151417,0.151116,-1.41677,2,0.0174113,11,-0.000214096,-2.8487,-0.0739208,-0.798152,44.0529,0.151116,
2,0,0,1,0,2356.22,0.143925,0.143671,-1.71376,2,0.0162227,11,-0.000246217,-2.76605,-0.108956,-0.541501,35.9942,0.143671,
2,0,0,1,0,2356.97,0.136435,0.136176,-1.87254,2,0.0148583,11,-0.000254994,-2.72757,-0.466716,-0.126415,9.18497,0.1361755,
2,0,0,1,0,2357.72,0.128943,0.128612,-1.84483,2,0.0134456,11,-0.000237267,-2.73404,0.235237,0.250811,-17.95,0.1286121,
2,0,0,1,0,2358.47,0.121453,0.121148,-1.65733,2,0.0121187,11,-0.000200783,-2.78059,0.123683,0.477028,-30.7781,0.121148,
2,0,0,1,0,2359.22,0.113962,0.113694,-1.42462,2,0.0109538,11,-0.000161971,-2.8463,0.118558,0.497646,-27.8019,0.113694,
2,0,0,1,0,2359.97,0.106471,0.106188,-1.25778,2,0.0099401,11,-0.000133561,-2.9004,0.169688,0.347697,-17.1939,0.106188,
2,0,0,1,0,2360.72,0.0989798,0.0987272,-1.15394,2,0.0090293,11,-0.000113926,-2.93782,0.257079,0.229502,-10.3053,0.0987272,
2,0,0,1,0,2361.47,0.0914889,0.0911909,-1.08564,2,0.00818386,11,-9.90003e-05,-2.96432,0.290497,0.2031,-8.57148,0.0911909,
2,0,0,1,0,2362.22,0.083998,0.0837246,-1.01942,2,0.0073867,11,-8.53502e-05,-2.99165,0.238137,0.247756,-9.84909,0.0837246,
2,0,0,1,0,2362.97,0.076507,0.0762212,-0.961929,2,0.00663372,11,-7.33193e-05,-3.01686,0.267982,0.220164,-8.25291,0.0762212,
2,0,0,1,0,2363.71,0.069016,0.0687538,-0.897022,2,0.00592747,11,-6.16737e-05,-3.0472,0.244101,0.241704,-8.48581,0.0687538,
2,0,0,1,0,2364.46,0.0615251,0.0612535,-0.841141,2,0.00526605,11,-5.15228e-05,-3.07513,0.285363,0.206754,-6.80202,0.0612535,
2,0,0,1,0,2365.21,0.0540341,0.0537331,-0.797583,2,0.00464339,11,-4.28567e-05,-3.09822,0.340208,0.173423,-5.38156,0.0537331,
2,0,0,1,0,2365.96,0.0465441,0.0462454,-0.766075,2,0.0040481,11,-3.54274e-05,-3.11573,0.692497,0.085199,-2.55776,0.0462454,
2,0,0,1,0,2366.71,0.0390523,0.0387517,-0.751113,2,0.00346994,11,-2.91069e-05,-3.12429,0.788493,0.0748263,-2.18819,0.03875171,
2,0,0,1,0,2367.46,0.0315618,0.0312785,-0.745695,2,0.00289992,11,-2.33242e-05,-3.12744,-2.81757,-0.02094,0.610192,0.0312785,
2,0,0,1,0,2368.21,0.0240704,0.0237809,-0.745392,2,0.00233034,11,-1.77261e-05,-3.12762,-2.21119,-0.0266825,0.780754,0.0237809,
2,0,0,1,0,2368.96,0.0165796,0.0162862,-0.758672,2,0.00175563,11,-1.23559e-05,-3.11995,-0.85998,-0.0686062,2.03281,0.0162862,
2,0,0,1,0,2369.71,0.00908845,0.00876766,-0.772911,2,0.00117117,11,-6.77662e-06,-3.11187,-0.817549,-0.0721669,2.17789,0.00876766,
2,0,0,1,0,2370.46,0.00159728,0.00125961,-0.802859,2,0.000571532,11,-1.01129e-06,-3.09536, , , ,0.00125961,
2,0,0,1,0,2370.6,0.000199195,-0.000155446,-0.796924,2,0.000457935,11,1.23879e-07,-3.09858, , , ,-0.0001554464,

File: 20221101_1-115_002_TrumpetPlot_ParaChange_06_CV_C01_2.csv
mode,ox/red,error,control changes,counter inc.,time/s,control/V,Ewe/V,<I>/mA,cycle number,(Q-Qo)/C,I Range,P/W,log(|I|),Tafel slope mV/dec,alpha_eff,dI/d(E-IR),E-IR/V,
2,0,0,1,0,3542.24,2.44065e-05,-0.0002108,-0.526313,3,0.0000000E+000,11,1.10947e-07,-3.27876, , , ,-0.0002108,
2,1,0,1,0,3542.97,0.00729063,0.00701587,0.401329,3,0.000245366,11,2.81567e-06,-3.3965,0.110098,0.535887,8.2994,0.00701587,
2,1,0,1,0,3543.72,0.0147814,0.0144682,0.444774,3,0.000574263,11,6.43508e-06,-3.35186,0.200152,0.294776,5.12469,0.0144682,
2,1,0,1,0,3544.47,0.0222725,0.0219867,0.470828,3,0.000928682,11,1.0352e-05,-3.32714,0.363632,0.162252,2.98186,0.0219867,
2,1,0,1,0,3545.22,0.0297635,0.029467,0.494202,3,0.00130063,11,1.45627e-05,-3.3061,0.379708,0.155382,2.99421,0.029467,
2,1,0,1,0,3545.97,0.0372544,0.0369501,0.517966,3,0.00168901,11,1.91389e-05,-3.2857,0.43346,0.136114,2.74946,0.0369501,
2,1,0,1,0,3546.72,0.0447458,0.0444615,0.544917,3,0.0020965,11,2.42278e-05,-3.26367,0.242829,0.242969,5.179,0.0444615,
2,1,0,1,0,3547.47,0.0522363,0.0518827,0.584814,3,0.00252916,11,3.03417e-05,-3.23298,0.202171,0.291832,6.63656,0.0518827,
2,1,0,1,0,3548.21,0.0597282,0.0594593,0.635216,3,0.00299547,11,3.77695e-05,-3.19708,0.188319,0.313298,7.76319,0.0594593,
2,1,0,1,0,3548.96,0.0672182,0.0669384,0.699277,3,0.00350408,11,4.68084e-05,-3.15535,0.180265,0.327297,8.88696,0.0669384,
2,1,0,1,0,3549.71,0.0747092,0.0744333,0.766537,3,0.00406158,11,5.70559e-05,-3.11547,0.190277,0.310074,9.25427,0.0744333,
2,1,0,1,0,3550.46,0.0822001,0.0819177,0.827376,3,0.00466997,11,6.77767e-05,-3.0823,0.21766,0.271065,8.78504,0.0819177,
2,1,0,1,0,3551.21,0.0896911,0.0894073,0.892246,3,0.0053252,11,7.97734e-05,-3.04952,0.251692,0.234413,8.16802,0.0894073,
2,1,0,1,0,3551.96,0.097182,0.0969023,0.952048,3,0.00602623,11,9.22557e-05,-3.02134,0.208089,0.283533,10.5464,0.0969023,
2,1,0,1,0,3552.71,0.104673,0.104371,1.0311,3,0.00677632,11,0.000107617,-2.9867,0.189786,0.310876,12.4658,0.104371,
2,1,0,1,0,3553.46,0.112164,0.111923,1.14308,3,0.00759662,11,0.000127937,-2.94192,0.147471,0.400079,17.8349,0.111923,
2,1,0,1,0,3554.21,0.119655,0.119353,1.31276,3,0.00852292,11,0.000156682,-2.88182,0.129772,0.454644,23.3305,0.1193532,
2,1,0,1,0,3554.96,0.127146,0.126858,1.51411,3,0.00959355,11,0.000192076,-2.81984,0.122579,0.481321,28.5382,0.1268577,
2,1,0,1,0,3555.71,0.134637,0.134345,1.70844,3,0.0108165,11,0.00022952,-2.7674,0.19349,0.304926,20.3169,0.134345,
2,1,0,1,0,3556.45,0.142127,0.141871,1.80571,3,0.0121504,11,0.000256179,-2.74335,0.69212,0.0852453,5.98284,0.141871,
2,1,0,1,0,3557.2,0.149619,0.149349,1.7426,3,0.0135015,11,0.000260256,-2.7588,-0.183981,-0.320685,-21.6937,0.149349,
2,1,0,1,0,3557.95,0.157109,0.156806,1.49062,3,0.014732,11,0.000233738,-2.82663,-0.0756941,-0.779453,-45.08,0.156806,
2,1,0,1,0,3558.7,0.164601,0.164344,1.16125,3,0.0157321,11,0.000190844,-2.93507,-0.0669301,-0.881517,-39.9202,0.164344,
2,1,0,1,0,3559.45,0.172091,0.171822,0.913967,3,0.0165122,11,0.000157039,-3.03907,-0.0869699,-0.678395,-24.3522,0.171822,
2,1,0,1,0,3560.2,0.179582,0.179317,0.77347,3,0.0171504,11,0.000138696,-3.11156,-0.125197,-0.471258,-14.2843,0.179317,
2,1,0,1,0,3560.95,0.187074,0.186792,0.690272,3,0.0177064,11,0.000128937,-3.16098,-0.204428,-0.28861,-7.76438,0.1867919,
2,1,0,1,0,3561.7,0.194564,0.194291,0.635777,3,0.0182117,11,0.000123526,-3.1967,-0.25438,-0.231937,-5.76921,0.194291,
2,1,0,1,0,3562.45,0.202056,0.201798,0.599891,3,0.0186838,11,0.000121057,-3.22193,-0.351898,-0.167662,-3.9182,0.201798,
2,1,0,1,0,3563.2,0.209546,0.209275,0.575723,3,0.0191333,11,0.000120484,-3.23979,-0.431059,-0.136872,-3.07111,0.209275,
2,1,0,1,0,3563.95,0.217038,0.216794,0.553363,3,0.0195658,11,0.000119966,-3.25699,-0.695278,-0.0848581,-1.83948,0.216794,
2,1,0,1,0,3564.69,0.224528,0.22426,0.540106,3,0.0199862,11,0.000121124,-3.26752,-0.734341,-0.0803441,-1.69228,0.22426,
2,1,0,1,0,3565.44,0.232019,0.231775,0.529208,3,0.0203967,11,0.000122657,-3.27637,-0.862124,-0.0684356,-1.41133,0.231775,
2,1,0,1,0,3566.19,0.23951,0.239246,0.518667,3,0.0207995,11,0.000124089,-3.28511,-1.2969,-0.0454931,-0.921192,0.239246,
2,1,0,1,0,3566.94,0.247001,0.246726,0.511091,3,0.0211957,11,0.000126099,-3.2915,-0.704769,-0.0837153,-1.66959,0.246726,
2,1,0,1,0,3567.69,0.254492,0.254205,0.503528,3,0.0215861,11,0.000127999,-3.29798,-1.18715,-0.0496989,-0.980049,0.254205,
2,1,0,1,0,3568.44,0.261983,0.2617,0.498277,3,0.0219715,11,0.000130399,-3.30253,-1.51193,-0.0390229,-0.7584,0.2617,
2,1,0,1,0,3569.19,0.269474,0.269171,0.489903,3,0.0223525,11,0.000131868,-3.30989,-248.662,-0.00023727,-0.00454388,0.269171,
2,1,0,1,0,3569.94,0.276965,0.276688,0.487336,3,0.0227294,11,0.00013484,-3.31217,-0.761038,-0.0775257,-1.47878,0.276688,
2,1,0,1,0,3570.69,0.284456,0.284186,0.482691,3,0.0231025,11,0.000137174,-3.31633,-4.89959,-0.0120418,-0.226011,0.284186,
2,1,0,1,0,3571.44,0.291947,0.291688,0.477649,3,0.023472,11,0.000139325,-3.32089,-1.16257,-0.0507498,-0.947683,0.291688,
2,1,0,1,0,3572.19,0.299437,0.299189,0.471231,3,0.0238382,11,0.000140987,-3.32677,-0.00117591,-50.174,-281.223,0.299189,
2,0,0,1,0,3572.87,0.293745,0.29348,-0.112282,3,0.0238208,11,-3.29526e-05,-3.94969,-0.026248,-2.24779,9.51252,0.29348,
2,0,0,1,0,3573.62,0.286253,0.285943,-0.159382,3,0.0237065,11,-4.55741e-05,-3.79756,-0.0688225,-0.857278,5.37926,0.285943,
2,0,0,1,0,3574.37,0.278763,0.278464,-0.195022,3,0.0235621,11,-5.43066e-05,-3.70992,-0.108341,-0.544578,4.11873,0.278464,
2,0,0,1,0,3575.12,0.271272,0.270995,-0.221591,3,0.0233958,11,-6.005e-05,-3.65445,-0.153159,-0.38522,3.30706,0.270995,
2,0,0,1,0,3575.87,0.263781,0.263445,-0.242397,3,0.0232112,11,-6.38585e-05,-3.61547,-0.205109,-0.287652,2.74389,0.263445,
2,0,0,1,0,3576.62,0.25629,0.255998,-0.264123,3,0.0230107,11,-6.76151e-05,-3.57819,-0.276892,-0.213079,2.18645,0.255998,
2,0,0,1,0,3577.36,0.248799,0.248499,-0.282724,3,0.0227955,11,-7.02567e-05,-3.54864,-0.312386,-0.188869,2.08582,0.248499,
2,0,0,1,0,3578.11,0.241308,0.240979,-0.302301,3,0.0225662,11,-7.2848e-05,-3.51956,-0.271567,-0.217258,2.56068,0.240979,
2,0,0,1,0,3578.86,0.233817,0.233504,-0.320384,3,0.0223232,11,-7.4811e-05,-3.49433,-0.250864,-0.235188,2.92071,0.233504,
2,0,0,1,0,3579.61,0.226326,0.226052,-0.340228,3,0.0220659,11,-7.69093e-05,-3.46823,-0.347044,-0.170007,2.26244,0.226052,
2,0,0,1,0,3580.36,0.218835,0.21852,-0.361525,3,0.0217935,11,-7.90006e-05,-3.44186,-0.245879,-0.239955,3.37251,0.21852,
2,0,0,1,0,3581.11,0.211344,0.211045,-0.383031,3,0.0215049,11,-8.08369e-05,-3.41677,-0.291282,-0.202553,3.04221,0.211045,
2,0,0,1,0,3581.86,0.203854,0.203518,-0.411647,3,0.0211967,11,-8.37776e-05,-3.38548,-0.238701,-0.247171,3.99241,0.203518,
2,0,0,1,0,3582.61,0.196362,0.196077,-0.445631,3,0.0208658,11,-8.73779e-05,-3.35102,-0.198128,-0.297787,5.17039,0.196077,
2,0,0,1,0,3583.36,0.188872,0.188552,-0.490969,3,0.020505,11,-9.25734e-05,-3.30895,-0.14527,-0.406141,7.7877,0.188552,
2,0,0,1,0,3584.11,0.18138,0.181085,-0.556411,3,0.0201042,11,-0.000100758,-3.2546,-0.130474,-0.452196,9.81836,0.181085,
2,0,0,1,0,3584.86,0.17389,0.173567,-0.647082,3,0.0196465,11,-0.000112312,-3.18904,-0.0984291,-0.599417,15.1577,0.173567,
2,0,0,1,0,3585.6,0.166398,0.166085,-0.789997,3,0.0191019,11,-0.000131207,-3.10237,-0.0827635,-0.712874,22.0937,0.166085,
2,0,0,1,0,3586.35,0.158907,0.158621,-1.01214,3,0.0184209,11,-0.000160547,-2.99476,-0.0650868,-0.906481,35.9601,0.158621,
2,0,0,1,0,3587.1,0.151417,0.151128,-1.31949,3,0.0175379,11,-0.000199412,-2.8796,-0.071958,-0.819923,42.2286,0.151128,
2,0,0,1,0,3587.85,0.143925,0.143657,-1.61389,3,0.0164233,11,-0.000231847,-2.79213,-0.104122,-0.566641,35.5416,0.143657,
2,0,0,1,0,3588.6,0.136435,0.136136,-1.79186,3,0.0151278,11,-0.000243937,-2.7467,-0.322647,-0.182862,12.7258,0.136136,
2,0,0,1,0,3589.35,0.128943,0.128675,-1.80375,3,0.0137628,11,-0.000232098,-2.74382,0.40015,0.147445,-10.3164,0.1286754,
2,0,0,1,0,3590.1,0.121453,0.121146,-1.66332,3,0.0124481,11,-0.000201505,-2.77902,0.153404,0.384606,-24.9476,0.121146,
2,0,0,1,0,3590.85,0.113962,0.113641,-1.46213,3,0.0112648,11,-0.000166158,-2.83501,0.128551,0.458963,-26.3056,0.1136408,
2,0,0,1,0,3591.6,0.106471,0.106181,-1.29776,3,0.0102226,11,-0.000137798,-2.8868,0.17,0.34706,-17.6707,0.106181,
2,0,0,1,0,3592.35,0.0989798,0.0987071,-1.19054,3,0.0092836,11,-0.000117515,-2.92425,0.254656,0.231685,-10.7434,0.09870708,
2,0,0,1,0,3593.1,0.0914889,0.0911655,-1.1218,3,0.00841124,11,-0.00010227,-2.95008,0.361402,0.163253,-7.11872,0.0911655,
2,0,0,1,0,3593.84,0.083998,0.0836705,-1.06336,3,0.0075852,11,-8.89717e-05,-2.97332,0.287401,0.205288,-8.4983,0.0836705,
2,0,0,1,0,3594.59,0.076507,0.0761809,-1.00639,3,0.0068001,11,-7.66679e-05,-2.99723,0.266503,0.221385,-8.68467,0.0761809,
2,0,0,1,0,3595.34,0.069016,0.0687315,-0.938936,3,0.0060599,11,-6.45345e-05,-3.02736,0.25546,0.230956,-8.52672,0.0687315,
2,0,0,1,0,3596.09,0.0615251,0.0612175,-0.878775,3,0.00536696,11,-5.37964e-05,-3.05612,0.275282,0.214326,-7.37183,0.0612175,
2,0,0,1,0,3596.84,0.0540341,0.0537649,-0.827438,3,0.00471891,11,-4.44872e-05,-3.08226,0.294363,0.200433,-6.46008,0.0537649,
2,0,0,1,0,3597.59,0.0465441,0.0462412,-0.783997,3,0.0041058,11,-3.6253e-05,-3.10569,0.438228,0.134633,-4.13343,0.0462412,
2,0,0,1,0,3598.34,0.0390523,0.0387358,-0.763459,3,0.00351624,11,-2.95732e-05,-3.11721,0.445637,0.132395,-3.93262,0.0387358,
2,0,0,1,0,3599.09,0.0315618,0.0312687,-0.752955,3,0.0029398,11,-2.3544e-05,-3.12323,4.49459,0.0131269,-0.385347,0.0312687,
2,0,0,1,0,3599.84,0.0240704,0.0237798,-0.749035,3,0.00236759,11,-1.78119e-05,-3.1255,24.2783,0.00243015,-0.0714013,0.0237798,
2,0,0,1,0,3600.59,0.0165796,0.0163317,-0.75881,3,0.00179286,11,-1.23926e-05,-3.11987,-0.908922,-0.0649121,1.92236,0.0163317,
2,0,0,1,0,3601.34,0.00908845,0.00879735,-0.76947,3,0.00121032,11,-6.7693e-06,-3.11381,-0.888359,-0.0664146,1.99751,0.00879735,
2,0,0,1,0,3602.08,0.00159728,0.00129467,-0.798608,3,0.000614355,11,-1.03393e-06,-3.09767, , , ,0.00129467,
2,0,0,1,0,3602.22,0.000199195,-0.000147811,-0.791789,3,0.000501529,11,1.17036e-07,-3.10139, , , ,-0.000147811,