Folder: Figs_alphaMnO2_OER_Tafel_sleope/Figure_codes/Fig_3-5/rawdata_trumpetplot_data/before 10th (part 10)

File: 20221101_1-115_002_TrumpetPlot_ParaChange_05_CV_C01_6.csv
mode,ox/red,error,control changes,counter inc.,time/s,control/V,Ewe/V,<I>/mA,cycle number,(Q-Qo)/C,I Range,P/W,log(|I|),Tafel slope mV/dec,alpha_eff,dI/d(E-IR),E-IR/V,
2,0,0,1,0,8348.66,2.44065e-05,-0.000306236,-0.0273888,7,0.0000000E+000,11,8.38744e-09,-4.56243, , , ,-0.000306236,
2,1,0,1,0,8350.11,0.00729041,0.0069628,0.20677,7,0.000284352,11,1.4397e-06,-3.68451,0.106381,0.554609,4.42731,0.0069628,
2,1,0,1,0,8351.61,0.0147815,0.0144641,0.230611,7,0.000639229,11,3.33558e-06,-3.63712,0.21219,0.278052,2.50475,0.0144641,
2,1,0,1,0,8353.11,0.0222725,0.021955,0.247053,7,0.001023,11,5.42405e-06,-3.60721,0.268384,0.219834,2.11544,0.021955,
2,1,0,1,0,8354.6,0.0297635,0.0294678,0.263458,7,0.00143081,11,7.76354e-06,-3.57929,0.272534,0.216487,2.22587,0.0294678,
2,1,0,1,0,8356.1,0.0372545,0.0369416,0.283009,7,0.00186537,11,1.04548e-05,-3.5482,0.243044,0.242755,2.68572,0.0369416,
2,1,0,1,0,8357.6,0.0447456,0.0444303,0.307589,7,0.00233272,11,1.36663e-05,-3.51203,0.190181,0.310232,3.71225,0.0444303,
2,1,0,1,0,8359.1,0.0522367,0.0519171,0.336453,7,0.00284105,11,1.74676e-05,-3.47308,0.148793,0.396524,5.19595,0.0519171,
2,1,0,1,0,8360.6,0.0597277,0.0594174,0.372046,7,0.00339761,11,2.2106e-05,-3.4294,0.177112,0.333123,4.82001,0.0594174,
2,1,0,1,0,8362.1,0.0672187,0.0669442,0.406975,7,0.00400538,11,2.72446e-05,-3.39043,0.20715,0.284818,4.48939,0.0669442,
2,1,0,1,0,8363.59,0.0747092,0.0743687,0.435737,7,0.00466152,11,3.24052e-05,-3.36078,0.27027,0.218301,3.71076,0.0743687,
2,1,0,0,0,8365.09,0.0822001,0.0818689,0.459552,7,0.00536086,11,3.7623e-05,-3.33767,0.288507,0.204501,3.69057,0.0818689,
2,1,0,1,0,8366.59,0.0896911,0.0893957,0.487904,7,0.00609888,11,4.36165e-05,-3.31167,0.274958,0.214578,4.09948,0.0893957,
2,1,0,0,0,8368.09,0.097182,0.0968874,0.518153,7,0.00687861,11,5.02025e-05,-3.28554,0.20144,0.292891,5.92902,0.0968874,
2,1,0,1,0,8369.59,0.104673,0.104405,0.566233,7,0.00771368,11,5.91174e-05,-3.247,0.187258,0.315074,6.93677,0.104405,
2,1,0,0,0,8371.08,0.112164,0.111897,0.626366,7,0.00863081,11,7.00888e-05,-3.20317,0.164493,0.358678,8.76757,0.1118975,
2,1,0,1,0,8372.58,0.119655,0.119368,0.699446,7,0.00965223,11,8.34915e-05,-3.15525,0.187624,0.314459,8.60108,0.119368,
2,1,0,0,0,8374.08,0.127146,0.126804,0.760525,7,0.0107771,11,9.64374e-05,-3.11889,0.223816,0.26361,7.85981,0.126804,
2,1,0,1,0,8375.58,0.134637,0.134343,0.814604,7,0.0119904,11,0.000109436,-3.08905,0.466939,0.126355,4.01806,0.134343,
2,1,0,1,0,8377.08,0.142127,0.141805,0.821226,7,0.0132505,11,0.000116454,-3.08554,-0.565658,-0.104303,-3.32179,0.141805,
2,1,0,1,0,8378.58,0.149618,0.149308,0.740066,7,0.014457,11,0.000110498,-3.13073,-0.0995333,-0.592766,-17.0152,0.1493082,
2,1,0,1,0,8380.07,0.157109,0.156786,0.594534,7,0.0154841,11,9.32148e-05,-3.22582,-0.0672766,-0.876976,-20.3579,0.156786,
2,1,0,1,0,8381.57,0.1646,0.16433,0.474087,7,0.0163038,11,7.79067e-05,-3.32414,-0.0855141,-0.689945,-12.7772,0.16433,
2,1,0,1,0,8383.07,0.172091,0.171818,0.398615,7,0.0169788,11,6.84892e-05,-3.39945,-0.126268,-0.46726,-7.32597,0.171818,
2,1,0,1,0,8384.57,0.179582,0.179306,0.358112,7,0.0175704,11,6.42114e-05,-3.44598,-0.199777,-0.295329,-4.14768,0.179306,
2,1,0,1,0,8386.07,0.187074,0.18676,0.334124,7,0.0181129,11,6.24012e-05,-3.47609,-0.329357,-0.179137,-2.32015,0.18676,
2,1,0,1,0,8387.56,0.194564,0.194278,0.315981,7,0.0186241,11,6.13883e-05,-3.50034,-0.440469,-0.133948,-1.65475,0.1942784,
2,1,0,1,0,8389.06,0.202056,0.201759,0.304194,7,0.0191141,11,6.13737e-05,-3.51685,-0.452038,-0.13052,-1.54428,0.201759,
2,1,0,1,0,8390.56,0.209547,0.209253,0.295197,7,0.0195891,11,6.17709e-05,-3.52989,-0.577188,-0.10222,-1.17854,0.209253,
2,1,0,1,0,8392.06,0.217038,0.216721,0.288336,7,0.0200517,11,6.24884e-05,-3.5401,-0.788943,-0.0747836,-0.842483,0.216721,
2,1,0,1,0,8393.56,0.224529,0.224251,0.283419,7,0.0205057,11,6.35571e-05,-3.54757,-0.864952,-0.0682119,-0.753331,0.224251,
2,1,0,1,0,8395.06,0.232019,0.231695,0.279004,7,0.020952,11,6.46438e-05,-3.55439,-0.834533,-0.0706982,-0.768105,0.231695,
2,1,0,0,0,8396.55,0.23951,0.239205,0.274976,7,0.0213922,11,6.57756e-05,-3.5607,-1.17855,-0.0500614,-0.537,0.2392046,
2,1,0,1,0,8398.05,0.247001,0.246713,0.272553,7,0.0218272,11,6.72425e-05,-3.56455,-0.963367,-0.0612435,-0.649205,0.246713,
2,1,0,0,0,8399.55,0.254492,0.254227,0.268524,7,0.0222578,11,6.82661e-05,-3.57102,-1.6838,-0.0350398,-0.367589,0.254227,
2,1,0,1,0,8401.05,0.261983,0.261679,0.266309,7,0.0226843,11,6.96874e-05,-3.57461,-1.0891,-0.054173,-0.561265,0.261679,
2,1,0,0,0,8402.55,0.269474,0.26916,0.263959,7,0.0231074,11,7.10473e-05,-3.57846,1.86207,0.0316851,0.325824,0.26916,
2,1,0,1,0,8404.04,0.276965,0.276727,0.261622,7,0.0235272,11,7.23978e-05,-3.58233,-1.61861,-0.0364509,-0.373,0.276727,
2,1,0,0,0,8405.54,0.284456,0.284187,0.260624,7,0.0239442,11,7.4066e-05,-3.58399,-1.6084,-0.0366823,-0.371275,0.284187,
2,1,0,1,0,8407.04,0.291947,0.291629,0.256958,7,0.024358,11,7.49365e-05,-3.59014,-1.58147,-0.037307,-0.376925,0.291629,
2,1,0,1,0,8408.54,0.299437,0.299112,0.254513,7,0.0247689,11,7.61279e-05,-3.59429,-0.00181463,-32.5134,-128.343,0.299112,
2,0,0,1,0,8409.91,0.293744,0.293466,-0.0288421,7,0.0247773,11,-8.4642e-06,-4.53997,-0.0105559,-5.58931,5.584,0.293466,
2,0,0,1,0,8411.41,0.286253,0.285947,-0.0577386,7,0.0246842,11,-1.65102e-05,-4.23853,-0.0439414,-1.3427,3.01469,0.2859467,
2,0,0,0,0,8412.9,0.278763,0.278473,-0.0770079,7,0.0245562,11,-2.14446e-05,-4.11346,-0.0865856,-0.681407,2.05109,0.278473,
2,0,0,1,0,8414.4,0.271272,0.27096,-0.0912152,7,0.0244027,11,-2.47156e-05,-4.03993,-0.129338,-0.45617,1.64597,0.27096,
2,0,0,0,0,8415.9,0.263781,0.263484,-0.105017,7,0.024228,11,-2.76702e-05,-3.97874,-0.155059,-0.380501,1.57137,0.263484,
2,0,0,1,0,8417.4,0.25629,0.25601,-0.117312,7,0.0240347,11,-3.00329e-05,-3.93066,-0.201087,-0.293405,1.33817,0.25601,
2,0,0,0,0,8418.9,0.248799,0.248469,-0.127895,7,0.0238248,11,-3.17779e-05,-3.89315,-0.272364,-0.216622,1.08358,0.248469,
2,0,0,1,0,8420.4,0.241308,0.240983,-0.139034,7,0.0235989,11,-3.35049e-05,-3.85688,-0.209395,-0.281765,1.52923,0.240983,
2,0,0,0,0,8421.89,0.233817,0.233523,-0.148555,7,0.0233577,11,-3.46909e-05,-3.82811,-0.218143,-0.270465,1.55917,0.233523,
2,0,0,1,0,8423.39,0.226326,0.226018,-0.15791,7,0.0231014,11,-3.56905e-05,-3.80159,-0.234157,-0.251967,1.55852,0.226018,
2,0,0,0,0,8424.89,0.218835,0.218554,-0.170123,7,0.0228294,11,-3.71811e-05,-3.76924,-0.256071,-0.230405,1.51922,0.218554,
2,0,0,1,0,8426.39,0.211344,0.211035,-0.179564,7,0.0225412,11,-3.78943e-05,-3.74578,-0.24216,-0.24364,1.71927,0.211035,
2,0,0,1,0,8427.89,0.203854,0.203495,-0.193307,7,0.022235,11,-3.93371e-05,-3.71375,-0.300783,-0.196155,1.48543,0.203495,
2,0,0,1,0,8429.38,0.196363,0.196071,-0.208213,7,0.0219089,11,-4.08245e-05,-3.68149,-0.205883,-0.28657,2.31546,0.196071,
2,0,0,1,0,8430.88,0.188871,0.188542,-0.225988,7,0.0215581,11,-4.26081e-05,-3.64592,-0.169034,-0.349042,3.07988,0.188542,
2,0,0,1,0,8432.38,0.181381,0.181114,-0.25033,7,0.0211761,11,-4.53382e-05,-3.60149,-0.139906,-0.421712,4.1215,0.181114,
2,0,0,1,0,8433.88,0.173889,0.173601,-0.284069,7,0.0207514,11,-4.93146e-05,-3.54658,-0.128172,-0.46032,5.11651,0.173601,
2,0,0,1,0,8435.38,0.166398,0.166089,-0.33689,7,0.0202635,11,-5.59535e-05,-3.47251,-0.092432,-0.638307,8.40647,0.166089,
2,0,0,1,0,8436.88,0.158907,0.158613,-0.417338,7,0.0196764,11,-6.6195e-05,-3.37951,-0.0675914,-0.872892,14.3359,0.158613,
2,0,0,1,0,8438.37,0.151416,0.151115,-0.546408,7,0.0189311,11,-8.25707e-05,-3.26248,-0.0653482,-0.902856,19.2933,0.151115,
2,0,0,1,0,8439.87,0.143925,0.14361,-0.696819,7,0.0179716,11,-0.00010007,-3.15688,-0.0823179,-0.716734,19.4016,0.14361,
2,0,0,1,0,8441.37,0.136434,0.136137,-0.809115,7,0.016809,11,-0.000110151,-3.09199,-0.186136,-0.316972,9.93813,0.136137,
2,0,0,1,0,8442.87,0.128943,0.128632,-0.842458,7,0.0155374,11,-0.000108367,-3.07445,2.01342,0.0293033,-0.958454,0.128632,
2,0,0,0,0,8444.37,0.121453,0.121195,-0.818829,7,0.0142622,11,-9.92381e-05,-3.08681,0.301407,0.195749,-6.23818,0.121195,
2,0,0,1,0,8445.86,0.113962,0.113625,-0.762342,7,0.0130474,11,-8.66211e-05,-3.11785,0.227,0.259912,-7.75388,0.113625,
2,0,0,0,0,8447.36,0.106471,0.106204,-0.702235,7,0.0119223,11,-7.45803e-05,-3.15352,0.211914,0.278415,-7.65125,0.106204,
2,0,0,1,0,8448.86,0.0989799,0.0987166,-0.647497,7,0.0108874,11,-6.39187e-05,-3.18876,0.294571,0.200291,-5.05455,0.0987166,
2,0,0,0,0,8450.36,0.0914889,0.0911899,-0.611169,7,0.00992315,11,-5.57325e-05,-3.21384,0.328004,0.179876,-4.27657,0.0911899,
2,0,0,1,0,8451.86,0.083998,0.0837119,-0.580893,7,0.00900776,11,-4.86276e-05,-3.2359,0.326891,0.180489,-4.07762,0.0837119,
2,0,0,0,0,8453.36,0.076507,0.0761915,-0.558242,7,0.00812972,11,-4.25333e-05,-3.25318,0.430428,0.137073,-2.97988,0.0761915,
2,0,0,1,0,8454.85,0.0690161,0.0687347,-0.529195,7,0.0072878,11,-3.6374e-05,-3.27638,0.365065,0.161615,-3.35665,0.0687347,
2,0,0,0,0,8456.35,0.0615251,0.0612196,-0.502809,7,0.0064853,11,-3.07817e-05,-3.2986,0.285609,0.206576,-4.0658,0.06121961,
2,0,0,1,0,8457.85,0.0540342,0.05373,-0.474005,7,0.00572738,11,-2.54683e-05,-3.32422,0.301868,0.195449,-3.60479,0.05373,
2,0,0,1,0,8459.35,0.0465436,0.0462503,-0.445423,7,0.00501354,11,-2.06009e-05,-3.35123,0.343158,0.171933,-2.99061,0.04625028,
2,0,0,1,0,8460.85,0.0390526,0.0387235,-0.42389,7,0.00433674,11,-1.64145e-05,-3.37275,0.365276,0.161522,-2.67076,0.0387235,
2,0,0,1,0,8462.34,0.0315615,0.0312105,-0.410775,7,0.00368643,11,-1.28205e-05,-3.3864,0.714463,0.0825795,-1.3268,0.0312105,
2,0,0,1,0,8463.84,0.0240706,0.0237768,-0.403333,7,0.00305088,11,-9.58997e-06,-3.39434,-17.563,-0.00335933,0.0531844,0.0237768,
2,0,0,1,0,8465.34,0.0165795,0.016282,-0.4048,7,0.00241933,11,-6.59095e-06,-3.39276,-1.11874,-0.052738,0.8324,0.016282,
2,0,0,1,0,8466.84,0.00908846,0.00878364,-0.410123,7,0.00178344,11,-3.60237e-06,-3.38709,-0.862406,-0.0684132,1.0956,0.00878364,
2,0,0,1,0,8468.34,0.00159739,0.00129691,-0.420729,7,0.00113515,11,-5.45647e-07,-3.376, , , ,0.00129691,
2,0,0,0,0,8468.62,0.000199195,-0.000191712,-0.42091,7,0.00101256,11,8.06936e-08,-3.37581, , , ,-0.0001917123,

File: 20221101_1-115_002_TrumpetPlot_ParaChange_05_CV_C01_7.csv
mode,ox/red,error,control changes,counter inc.,time/s,control/V,Ewe/V,<I>/mA,cycle number,(Q-Qo)/C,I Range,P/W,log(|I|),Tafel slope mV/dec,alpha_eff,dI/d(E-IR),E-IR/V,
2,0,0,1,0,9580.29,2.44065e-05,-0.000363498,-0.0413291,8,0.0000000E+000,11,1.50231e-08,-4.38374, , , ,-0.000363498,
2,1,0,1,0,9581.74,0.00729041,0.00696378,0.208599,8,0.000289975,11,1.45264e-06,-3.68069,0.108956,0.541502,4.36997,0.00696378,
2,1,0,1,0,9583.24,0.0147815,0.0144639,0.231963,8,0.000649078,11,3.3551e-06,-3.63458,0.215775,0.273433,2.47892,0.0144639,
2,1,0,1,0,9584.73,0.0222725,0.0219316,0.25036,8,0.00103786,11,5.49081e-06,-3.60143,0.258036,0.228651,2.22719,0.0219316,
2,1,0,1,0,9586.23,0.0297635,0.0294774,0.268536,8,0.00145258,11,7.91574e-06,-3.571,0.26501,0.222633,2.33114,0.0294774,
2,1,0,1,0,9587.73,0.0372545,0.0369355,0.287878,8,0.00189652,11,1.06329e-05,-3.54079,0.232612,0.253641,2.86866,0.03693546,
2,1,0,1,0,9589.23,0.0447456,0.0444496,0.316254,8,0.00237577,11,1.40574e-05,-3.49996,0.187282,0.315033,3.87959,0.0444496,
2,1,0,1,0,9590.73,0.0522367,0.0519138,0.345114,8,0.00289802,11,1.79162e-05,-3.46204,0.143284,0.411771,5.56671,0.0519138,
2,1,0,1,0,9592.23,0.0597277,0.0594364,0.381371,8,0.00346926,11,2.26673e-05,-3.41865,0.192187,0.306993,4.55252,0.0594364,
2,1,0,1,0,9593.72,0.0672187,0.0668985,0.412956,8,0.00408992,11,2.76261e-05,-3.3841,0.24725,0.238625,3.8293,0.0668985,
2,1,0,1,0,9595.22,0.0747092,0.0744047,0.441153,8,0.00475682,11,3.28239e-05,-3.35541,0.296268,0.199144,3.4281,0.0744047,
2,1,0,0,0,9596.72,0.0822001,0.0818944,0.464618,8,0.00546499,11,3.80496e-05,-3.3329,0.3331,0.177124,3.23403,0.08189436,
2,1,0,1,0,9598.22,0.0896911,0.0894349,0.492555,8,0.00621089,11,4.40516e-05,-3.30755,0.318465,0.185264,3.57086,0.0894349,
2,1,0,0,0,9599.72,0.097182,0.0969002,0.524181,8,0.00699873,11,5.07932e-05,-3.28052,0.182982,0.322435,6.60177,0.0969002,
2,1,0,1,0,9601.21,0.104673,0.104361,0.57473,8,0.00784511,11,5.99795e-05,-3.24054,0.16555,0.356387,7.96162,0.104361,
2,1,0,0,0,9602.71,0.112164,0.111857,0.636405,8,0.00877579,11,7.11865e-05,-3.19627,0.167792,0.351626,8.69957,0.111857,
2,1,0,1,0,9604.21,0.119655,0.119351,0.702723,8,0.00980616,11,8.38708e-05,-3.15322,0.226688,0.26027,7.1506,0.1193511,
2,1,0,0,0,9605.71,0.127146,0.126845,0.756876,8,0.010931,11,9.60059e-05,-3.12098,0.250028,0.235974,7.01166,0.126845,
2,1,0,1,0,9607.21,0.134637,0.134314,0.807637,8,0.0121367,11,0.000108477,-3.09278,0.533225,0.110648,3.48285,0.134314,
2,1,0,1,0,9608.71,0.142127,0.141865,0.803569,8,0.0133799,11,0.000113998,-3.09498,-0.355614,-0.16591,-5.1866,0.141865,
2,1,0,1,0,9610.2,0.149618,0.149328,0.712002,8,0.0145539,11,0.000106322,-3.14752,-0.0935302,-0.630812,-17.4703,0.149328,
2,1,0,1,0,9611.7,0.157109,0.156833,0.566287,8,0.0155383,11,8.88125e-05,-3.24696,-0.0675385,-0.873576,-19.3042,0.156833,
2,1,0,1,0,9613.2,0.1646,0.164288,0.454326,8,0.0163216,11,7.46401e-05,-3.34263,-0.0889209,-0.663511,-11.7723,0.164288,
2,1,0,1,0,9614.7,0.172091,0.171809,0.385525,8,0.0169716,11,6.62368e-05,-3.41395,-0.140505,-0.419915,-6.3393,0.171809,
2,1,0,1,0,9616.2,0.179582,0.179312,0.346821,8,0.0175458,11,6.21892e-05,-3.45989,-0.216047,-0.273089,-3.72411,0.179312,
2,1,0,1,0,9617.69,0.187074,0.186796,0.324775,8,0.0180757,11,6.06668e-05,-3.48842,-0.287685,-0.205085,-2.59461,0.186796,
2,1,0,1,0,9619.19,0.194564,0.194237,0.310359,8,0.0185774,11,6.02833e-05,-3.50814,-0.454028,-0.129948,-1.57124,0.194237,
2,1,0,1,0,9620.69,0.202056,0.201768,0.299811,8,0.01906,11,6.04922e-05,-3.52315,-0.461122,-0.127949,-1.49027,0.201768,
2,1,0,1,0,9622.19,0.209547,0.209289,0.29206,8,0.019529,11,6.11248e-05,-3.53453,-0.52123,-0.113194,-1.29042,0.209289,
2,1,0,1,0,9623.69,0.217038,0.21673,0.284661,8,0.0199871,11,6.16945e-05,-3.54567,-1.08596,-0.0543298,-0.604493,0.21673,
2,1,0,1,0,9625.19,0.224529,0.224226,0.280695,8,0.0204374,11,6.29391e-05,-3.55177,-1.07209,-0.0550325,-0.601055,0.224226,
2,1,0,1,0,9626.68,0.232019,0.231691,0.276393,8,0.0208807,11,6.40377e-05,-3.55847,-0.6793,-0.0868542,-0.939835,0.231691,
2,1,0,0,0,9628.18,0.23951,0.239222,0.273232,8,0.0213188,11,6.5363e-05,-3.56347,-1.55958,-0.0378307,-0.403099,0.239222,
2,1,0,1,0,9629.68,0.247001,0.246718,0.269656,8,0.0217523,11,6.65288e-05,-3.56919,-1.58579,-0.0372054,-0.391728,0.246718,
2,1,0,0,0,9631.18,0.254492,0.254205,0.266722,8,0.0221816,11,6.78021e-05,-3.57394,-1.51123,-0.0390411,-0.408252,0.254205,
2,1,0,1,0,9632.68,0.261983,0.261681,0.265653,8,0.0226074,11,6.95164e-05,-3.57568,-5.38809,-0.0109501,-0.113487,0.261681,
2,1,0,0,0,9634.18,0.269474,0.269188,0.262063,8,0.02303,11,7.05441e-05,-3.58159,6.16298,0.0095733,0.098184,0.2691876,
2,1,0,1,0,9635.67,0.276965,0.276684,0.26157,8,0.0234499,11,7.23721e-05,-3.58241,-3.59121,-0.016429,-0.16785,0.2766836,
2,1,0,0,0,9637.17,0.284456,0.284161,0.260351,8,0.0238668,11,7.39814e-05,-3.58444,-1.65315,-0.0356893,-0.361479,0.284161,
2,1,0,1,0,9638.67,0.291947,0.291681,0.256827,8,0.0242807,11,7.49116e-05,-3.59036,-3.04093,-0.0194019,-0.195401,0.2916809,
2,1,0,1,0,9640.17,0.299437,0.299146,0.254836,8,0.024692,11,7.62332e-05,-3.59374,-0.00162048,-36.409,-135.188,0.299146,
2,0,0,1,0,9641.54,0.293744,0.293435,-0.030253,8,0.0246974,11,-8.87728e-06,-4.51923,-0.0125303,-4.7086,4.96584,0.293435,
2,0,0,1,0,9643.03,0.286253,0.285902,-0.0581774,8,0.0246024,11,-1.66331e-05,-4.23525,-0.0469875,-1.25565,2.86058,0.285902,
2,0,0,0,0,9644.53,0.278763,0.278436,-0.0783702,8,0.0244731,11,-2.18211e-05,-4.10585,-0.0827476,-0.713012,2.14666,0.278436,
2,0,0,1,0,9646.03,0.271272,0.27096,-0.0920792,8,0.0243186,11,-2.49497e-05,-4.03584,-0.0997203,-0.591655,2.14746,0.27096,
2,0,0,0,0,9647.53,0.263781,0.263489,-0.105622,8,0.0241429,11,-2.78302e-05,-3.97625,-0.154299,-0.382374,1.58504,0.263489,
2,0,0,1,0,9649.03,0.25629,0.25601,-0.117816,8,0.0239491,11,-3.01621e-05,-3.9288,-0.198021,-0.297949,1.35546,0.25601,
2,0,0,0,0,9650.53,0.248799,0.248495,-0.12815,8,0.0237385,11,-3.18446e-05,-3.89228,-0.208166,-0.283428,1.42033,0.248495,
2,0,0,1,0,9652.02,0.241308,0.241016,-0.138483,8,0.0235123,11,-3.33767e-05,-3.8586,-0.285753,-0.206472,1.11392,0.241016,
2,0,0,0,0,9653.52,0.233817,0.23352,-0.148578,8,0.0232711,11,-3.46959e-05,-3.82805,-0.269037,-0.2193,1.26745,0.23352,
2,0,0,1,0,9655.02,0.226326,0.226044,-0.157595,8,0.0230148,11,-3.56234e-05,-3.80246,-0.278872,-0.211566,1.30674,0.226044,
2,0,0,0,0,9656.52,0.218835,0.218528,-0.168781,8,0.0227433,11,-3.68834e-05,-3.77268,-0.215549,-0.273719,1.80124,0.218528,
2,0,0,1,0,9658.02,0.211344,0.21104,-0.179904,8,0.0224559,11,-3.7967e-05,-3.74496,-0.317232,-0.185984,1.30373,0.2110402,
2,0,0,1,0,9659.51,0.203854,0.203516,-0.191082,8,0.022151,11,-3.88882e-05,-3.71878,-0.226103,-0.260943,1.96076,0.203516,
2,0,0,1,0,9661.01,0.196363,0.196035,-0.205825,8,0.0218271,11,-4.03489e-05,-3.6865,-0.24157,-0.244235,1.95705,0.1960348,
2,0,0,1,0,9662.51,0.188871,0.188593,-0.223057,8,0.0214795,11,-4.20669e-05,-3.65158,-0.164135,-0.35946,3.12404,0.188593,
2,0,0,1,0,9664.01,0.181381,0.181094,-0.246295,8,0.0211023,11,-4.46026e-05,-3.60854,-0.164497,-0.358669,3.44524,0.181094,
2,0,0,1,0,9665.51,0.173889,0.173572,-0.278467,8,0.0206851,11,-4.83342e-05,-3.55523,-0.128062,-0.460714,4.98748,0.173572,
2,0,0,1,0,9667.01,0.166398,0.166106,-0.324744,8,0.0202094,11,-5.39417e-05,-3.48846,-0.0958236,-0.615715,7.86119,0.166106,
2,0,0,1,0,9668.5,0.158907,0.158603,-0.401742,8,0.0196418,11,-6.37174e-05,-3.39605,-0.0715224,-0.824916,13.0212,0.158603,
2,0,0,1,0,9670,0.151416,0.15109,-0.52426,8,0.018926,11,-7.92104e-05,-3.28045,-0.063756,-0.925403,18.9024,0.15109,
2,0,0,1,0,9671.5,0.143925,0.143604,-0.67239,8,0.0180024,11,-9.65582e-05,-3.17238,-0.0763941,-0.772311,20.1983,0.143604,
2,0,0,1,0,9673,0.136434,0.136135,-0.790064,8,0.0168715,11,-0.000107555,-3.10234,-0.167547,-0.35214,10.7995,0.136135,
2,0,0,1,0,9674.5,0.128943,0.128605,-0.832617,8,0.0156215,11,-0.000107078,-3.07955,4.94873,0.0119223,-0.384586,0.128605,
2,0,0,0,0,9676,0.121453,0.121138,-0.811101,8,0.0143597,11,-9.8255e-05,-3.09093,0.354354,0.1665,-5.26218,0.121138,
2,0,0,1,0,9677.49,0.113962,0.113662,-0.758513,8,0.0131514,11,-8.62142e-05,-3.12004,0.248017,0.237887,-7.08342,0.113662,
2,0,0,0,0,9678.99,0.106471,0.106189,-0.705788,8,0.0120239,11,-7.49471e-05,-3.15133,0.235535,0.250494,-6.91735,0.106189,
2,0,0,1,0,9680.49,0.0989799,0.0986477,-0.652915,8,0.0109813,11,-6.44086e-05,-3.18514,0.253694,0.232563,-5.91657,0.0986477,
2,0,0,0,0,9681.99,0.0914889,0.09114,-0.614411,8,0.0100099,11,-5.59974e-05,-3.21154,0.32818,0.179779,-4.29389,0.09114,
2,0,0,1,0,9683.49,0.083998,0.0837119,-0.581116,8,0.00908963,11,-4.86463e-05,-3.23574,0.325843,0.181069,-4.11505,0.0837119,
2,0,0,0,0,9684.98,0.076507,0.0762074,-0.560654,8,0.00820723,11,-4.2726e-05,-3.2513,0.453292,0.130159,-2.84837,0.0762074,
2,0,0,1,0,9686.48,0.0690161,0.0687347,-0.533191,8,0.00735964,11,-3.66487e-05,-3.27312,0.350375,0.168391,-3.52855,0.0687347,
2,0,0,0,0,9687.98,0.0615251,0.0611973,-0.510728,8,0.00654902,11,-3.12552e-05,-3.29181,0.321228,0.18367,-3.65955,0.0611973,
2,0,0,1,0,9689.48,0.0540342,0.0537851,-0.48088,8,0.00578036,11,-2.58642e-05,-3.31796,0.294065,0.200636,-3.7585,0.0537851,
2,0,0,1,0,9690.98,0.0465436,0.0462184,-0.454389,8,0.00505415,11,-2.10011e-05,-3.34257,0.288353,0.20461,-3.62772,0.0462184,
2,0,0,1,0,9692.48,0.0390526,0.0387393,-0.432177,8,0.00436566,11,-1.67422e-05,-3.36434,0.335609,0.1758,-2.95513,0.0387393,
2,0,0,1,0,9693.97,0.0315615,0.0312294,-0.417099,8,0.00370566,11,-1.30257e-05,-3.37976,0.594303,0.099276,-1.61386,0.03122939,
2,0,0,1,0,9695.47,0.0240706,0.0237747,-0.40733,8,0.00306297,11,-9.68414e-06,-3.39005,5.93611,0.00993918,-0.158753,0.0237747,
2,0,0,1,0,9696.97,0.0165795,0.016248,-0.407811,8,0.00242668,11,-6.6261e-06,-3.38954,-2.56832,-0.0229722,0.365661,0.016248,
2,0,0,1,0,9698.47,0.00908846,0.00876766,-0.410262,8,0.00178775,11,-3.59704e-06,-3.38694,-0.989558,-0.0596226,0.95858,0.00876766,
2,0,0,1,0,9699.97,0.00159739,0.00127901,-0.421796,8,0.00113746,11,-5.39482e-07,-3.3749, , , ,0.00127901,
2,0,0,0,0,9700.25,0.000199195,-0.000206982,-0.421863,8,0.00101469,11,8.7318e-08,-3.37483, , , ,-0.000206982,