Folder: Figs_alphaMnO2_OER_Tafel_sleope/Figure_codes/Fig_3-5/rawdata_trumpetplot_data/before 10th (part 36)

File: 20221101_1-115_002_TrumpetPlot_ParaChange_11_CV_C01_4.csv
mode,ox/red,error,control changes,counter inc.,time/s,control/V,Ewe/V,<I>/mA,cycle number,(Q-Qo)/C,I Range,P/W,log(|I|),Tafel slope mV/dec,alpha_eff,dI/d(E-IR),E-IR/V,
2,0,0,1,0,6128.5,2.44065e-05,0.000686305,-7.23525,5,0.0000000E+000,11,-4.96559e-06,-2.14055, , , ,0.000686305,
2,1,0,1,0,6128.6,0.00978761,0.00950464,3.32443,5,2.08022e-05,11,3.15976e-05,-2.47828,0.0362935,1.62563,203.037,0.00950464,
2,1,0,1,0,6128.7,0.0197755,0.0195226,4.13857,5,0.000405898,11,8.07955e-05,-2.38315,0.294184,0.200554,32.4224,0.0195226,
2,1,0,1,0,6128.8,0.0297635,0.0294895,4.44125,5,0.000835322,11,0.00013097,-2.35249,0.369171,0.159818,27.6512,0.0294895,
2,1,0,1,0,6128.9,0.0397514,0.0394265,4.74933,5,0.00129408,11,0.000187249,-2.32337,0.263302,0.224077,41.645,0.0394265,
2,1,0,1,0,6129,0.0497484,0.0494566,5.18892,5,0.0017894,11,0.000256626,-2.28492,0.234804,0.251273,50.7802,0.0494566,
2,1,0,1,0,6129.1,0.0597273,0.0594123,5.74488,5,0.0023336,11,0.000341317,-2.24072,0.200178,0.294738,66.0225,0.0594123,
2,1,0,1,0,6129.2,0.0697152,0.0694359,6.41937,5,0.00294109,11,0.000445735,-2.19251,0.221289,0.26662,66.8889,0.0694359,
2,1,0,1,0,6129.3,0.0797031,0.0794649,7.14385,5,0.00361893,11,0.000567685,-2.14607,0.229693,0.256865,71.5626,0.0794649,
2,1,0,1,0,6129.4,0.0896911,0.0894307,7.81158,5,0.00436699,11,0.000698595,-2.10726,0.273135,0.21601,65.9088,0.0894307,
2,1,0,1,0,6129.5,0.099679,0.0994167,8.45685,5,0.00517886,11,0.000840752,-2.07279,0.300946,0.196048,64.6171,0.0994167,
2,1,0,1,0,6129.6,0.109667,0.109306,9.19546,5,0.0060585,11,0.00100512,-2.03643,0.24738,0.238499,85.6656,0.109306,
2,1,0,1,0,6129.7,0.119655,0.119354,10.2931,5,0.00702809,11,0.00122853,-1.98745,0.189222,0.311802,125.299,0.119354,
2,1,0,1,0,6129.8,0.129643,0.129366,11.7216,5,0.00812612,11,0.00151637,-1.93101,0.176367,0.334531,152.948,0.129366,
2,1,0,1,0,6129.9,0.139631,0.139335,13.1766,5,0.00937216,11,0.00183597,-1.8802,0.225219,0.261968,134.738,0.139335,
2,1,0,1,0,6130,0.149619,0.14932,14.291,5,0.0107481,11,0.00213394,-1.84494,0.430874,0.136931,76.2067,0.14932,
2,1,0,1,0,6130.1,0.159607,0.159332,14.3158,5,0.0121907,11,0.00228096,-1.84418,-0.338054,-0.174528,-97.2293,0.159332,
2,1,0,1,0,6130.2,0.169595,0.169299,12.0602,5,0.01353,11,0.00204177,-1.91865,-0.0796865,-0.740401,-346.859,0.169299,
2,1,0,1,0,6130.3,0.179582,0.179328,8.46884,5,0.0145505,11,0.0015187,-2.07218,-0.0649198,-0.908814,-301.58,0.179328,
2,1,0,1,0,6130.4,0.18957,0.189255,6.44375,5,0.0152809,11,0.00121951,-2.19086,-0.115347,-0.511502,-128.895,0.189255,
2,1,0,1,0,6130.5,0.199558,0.19926,5.52233,5,0.0158732,11,0.00110038,-2.25788,-0.196046,-0.30095,-64.8565,0.19926,
2,1,0,1,0,6130.6,0.209546,0.209291,4.98056,5,0.0163957,11,0.00104239,-2.30272,-0.229135,-0.25749,-50.0926,0.209291,
2,1,0,1,0,6130.7,0.219534,0.219248,4.61957,5,0.0168737,11,0.00101283,-2.3354,-0.377763,-0.156183,-28.1833,0.219248,
2,1,0,1,0,6130.8,0.229522,0.229246,4.38203,5,0.0173232,11,0.00100456,-2.35832,-0.506179,-0.11656,-19.9695,0.229246,
2,1,0,1,0,6130.9,0.23951,0.239226,4.2342,5,0.0177537,11,0.00101293,-2.37323,-0.983781,-0.0599727,-9.91398,0.239226,
2,1,0,1,0,6131,0.249498,0.249212,4.12605,5,0.0181708,11,0.00102826,-2.38447,-0.932669,-0.0632593,-10.1748,0.249212,
2,1,0,1,0,6131.1,0.259486,0.25924,4.03706,5,0.0185783,11,0.00104657,-2.39393,-0.717397,-0.0822417,-12.9398,0.25924,
2,1,0,1,0,6131.2,0.269474,0.269185,3.95643,5,0.0189775,11,0.00106501,-2.4027,-1.25248,-0.0471064,-7.27859,0.269185,
2,1,0,1,0,6131.3,0.279462,0.279194,3.8883,5,0.0193697,11,0.00108559,-2.41024,-1.30629,-0.0451661,-6.85885,0.279194,
2,1,0,1,0,6131.4,0.28945,0.289183,3.82674,5,0.0197552,11,0.00110663,-2.41717,-3.73497,-0.0157966,-2.35709,0.2891832,
2,1,0,1,0,6131.5,0.299438,0.299173,3.76759,5,0.0201345,11,0.00112716,-2.42394,-0.0250101,-2.35904,-312.919,0.299173,
2,0,0,1,0,6131.59,0.291747,0.291445,-1.55,5,0.0201206,11,-0.000451739,-2.80967,-0.0476954,-1.23702,73.6088,0.291445,
2,0,0,1,0,6131.69,0.281759,0.281469,-1.98874,5,0.0199411,11,-0.000559771,-2.70142,-0.143888,-0.410041,31.6755,0.281469,
2,0,0,1,0,6131.79,0.271771,0.271475,-2.2599,5,0.0197286,11,-0.000613505,-2.64591,-0.186436,-0.316462,27.8679,0.271475,
2,0,0,1,0,6131.89,0.261783,0.261456,-2.47185,5,0.0194921,11,-0.000646282,-2.60698,-0.349457,-0.168833,16.2511,0.261456,
2,0,0,1,0,6131.99,0.251795,0.251499,-2.64332,5,0.0192366,11,-0.000664791,-2.57785,-0.347564,-0.169753,17.5249,0.251499,
2,0,0,1,0,6132.09,0.241807,0.241532,-2.80412,5,0.0189639,11,-0.000677283,-2.5522,-0.371413,-0.158853,17.4741,0.241532,
2,0,0,1,0,6132.19,0.231815,0.231513,-2.97988,5,0.0186751,11,-0.000689881,-2.5258,-0.350708,-0.168231,19.517,0.231513,
2,0,0,1,0,6132.29,0.221831,0.221546,-3.14022,5,0.0183701,11,-0.000695701,-2.50304,-0.404704,-0.145786,17.8714,0.221546,
2,0,0,1,0,6132.39,0.211843,0.211519,-3.33825,5,0.018047,11,-0.000706104,-2.47648,-0.469314,-0.125715,16.35,0.211519,
2,0,0,1,0,6132.49,0.201856,0.201552,-3.56135,5,0.0177029,11,-0.000717797,-2.44839,-0.338331,-0.174385,24.2729,0.201552,
2,0,0,1,0,6132.59,0.191868,0.191572,-3.86947,5,0.0173325,11,-0.000741282,-2.41235,-0.247582,-0.238305,36.0585,0.191572,
2,0,0,1,0,6132.69,0.18188,0.181584,-4.32081,5,0.0169258,11,-0.000784589,-2.36444,-0.172771,-0.341493,57.4749,0.181584,
2,0,0,1,0,6132.79,0.171892,0.171622,-5.00012,5,0.0164633,11,-0.000858132,-2.30102,-0.134975,-0.437117,85.3584,0.171622,
2,0,0,1,0,6132.88,0.161904,0.161612,-6.11473,5,0.015913,11,-0.000988214,-2.21362,-0.099397,-0.593579,141.885,0.161612,
2,0,0,1,0,6132.98,0.151916,0.151595,-7.88363,5,0.0152193,11,-0.00119512,-2.10327,-0.087396,-0.675088,207.833,0.1515954,
2,0,0,1,0,6133.08,0.141928,0.141683,-10.2509,5,0.0143168,11,-0.00145238,-1.98924,-0.0942689,-0.625869,250.109,0.141683,
2,0,0,1,0,6133.18,0.13194,0.131695,-12.5472,5,0.0131759,11,-0.00165241,-1.90145,-0.142091,-0.415227,203.031,0.131695,
2,0,0,1,0,6133.28,0.121952,0.121672,-14.1119,5,0.0118359,11,-0.00171702,-1.85042,-0.33704,-0.175053,96.1978,0.1216717,
2,0,0,1,0,6133.38,0.111964,0.111651,-14.4782,5,0.0103976,11,-0.00161651,-1.83928,1.27388,0.0463153,-26.1284,0.111651,
2,0,0,1,0,6133.48,0.101976,0.101702,-13.5697,5,0.00898674,11,-0.00138007,-1.86743,0.207174,0.284785,-150.585,0.101702,
2,0,0,1,0,6133.58,0.0919883,0.0916627,-11.8835,5,0.00771431,11,-0.00108927,-1.92506,0.172154,0.342716,-159.208,0.0916627,
2,0,0,1,0,6133.68,0.0820004,0.0816481,-10.5536,5,0.00660024,11,-0.000861685,-1.9766,0.236228,0.249759,-102.894,0.0816481,
2,0,0,1,0,6133.78,0.0720124,0.0717371,-9.73691,5,0.00559032,11,-0.000698498,-2.01158,0.327089,0.180379,-68.6091,0.0717371,
2,0,0,1,0,6133.88,0.0620245,0.0617018,-9.09028,5,0.00465018,11,-0.000560887,-2.04142,0.3001,0.196601,-69.7534,0.0617018,
2,0,0,1,0,6133.98,0.0520366,0.0517371,-8.35833,5,0.0037778,11,-0.000432435,-2.07788,0.230348,0.256134,-83.4646,0.0517371,
2,0,0,1,0,6134.08,0.0420486,0.0418269,-7.52229,5,0.00298489,11,-0.000314634,-2.12365,0.223814,0.263612,-77.5862,0.0418269,
2,0,0,1,0,6134.18,0.0320607,0.0317642,-6.8797,5,0.0022686,11,-0.000218528,-2.16243,0.305192,0.193321,-51.8854,0.0317642,
2,0,0,1,0,6134.28,0.0220728,0.0217925,-6.50671,5,0.00160305,11,-0.000141798,-2.18664,0.63037,0.0935958,-23.7728,0.0217925,
2,0,0,1,0,6134.38,0.0120848,0.0117777,-6.36857,5,0.00096199,11,-7.50071e-05,-2.19596,1.9206,0.0307196,-7.6436,0.0117777,
2,0,0,1,0,6134.48,0.0020969,0.00174001,-6.44398,5,0.000326482,11,-1.12126e-05,-2.19085,-0.860342,-0.0685774,17.1249,0.00174001,
2,0,0,1,0,6134.58,-0.00789103,-0.00823868,-6.49305,5,-0.000317962,11,5.34942e-05,-2.18755,-0.864297,-0.0682636,17.3342,-0.00823868,
2,0,0,1,0,6134.68,-0.017879,-0.0181757,-6.69451,5,-0.000975525,11,0.000121678,-2.17428,-0.649002,-0.0909089,23.7253,-0.0181757,
2,0,0,1,0,6134.78,-0.0278669,-0.0282206,-6.91889,5,-0.00165484,11,0.000195255,-2.15996,-0.706309,-0.0835328,22.5885,-0.0282206,
2,0,0,1,0,6134.88,-0.0378548,-0.0382166,-7.20195,5,-0.00235959,11,0.000275234,-2.14255,-0.620972,-0.0950123,26.6848,-0.0382166,
2,0,0,1,0,6134.98,-0.0478428,-0.0481712,-7.50631,5,-0.00309382,11,0.000361588,-2.12457,-0.463966,-0.127164,37.3253,-0.0481712,
2,0,0,1,0,6135.08,-0.0578216,-0.0581738,-7.88395,5,-0.00386147,11,0.000458639,-2.10326,-0.432354,-0.136462,42.0057,-0.0581738,
2,0,0,1,0,6135.18,-0.0678187,-0.0681837,-8.34633,5,-0.00467084,11,0.000569084,-2.0785,-0.355933,-0.165762,53.9341,-0.0681837,
2,0,0,1,0,6135.28,-0.0778066,-0.0781565,-8.89956,5,-0.00553082,11,0.000695559,-2.05063,-0.348018,-0.169531,58.9213,-0.0781565,
2,0,0,1,0,6135.38,-0.0877945,-0.0881461,-9.57211,5,-0.00645228,11,0.000843744,-2.01899,-0.313959,-0.187923,70.1443,-0.0881461,
2,0,0,1,0,6135.48,-0.0977825,-0.098101,-10.2258,5,-0.00744159,11,0.00100316,-1.9903,-0.365212,-0.16155,64.5193,-0.098101,
2,1,0,1,1,6135.58,-0.0927386,-0.0930876,0.160427,5,-0.00794192,11,-1.49338e-05,-3.79472,-0.109165,-0.540467,661.967,-0.0930876,
2,1,0,1,1,6135.68,-0.0827529,-0.0831162,3.57455,5,-0.00771792,11,-0.000297103,-2.44678,0.0464622,1.26985,174.663,-0.0831162,
2,1,0,1,1,6135.78,-0.0727627,-0.0730962,4.69652,5,-0.00729662,11,-0.000343297,-2.32822,0.149881,0.393646,71.7914,-0.0730962,
2,1,0,1,1,6135.88,-0.0627748,-0.0631066,5.21821,5,-0.00679842,11,-0.000329303,-2.28248,0.301632,0.195603,39.8128,-0.0631066,
2,1,0,1,1,6135.98,-0.0527868,-0.0530972,5.50496,5,-0.00626049,11,-0.000292298,-2.25925,0.70731,0.0834146,17.9137,-0.0530972,
2,1,0,1,1,6136.08,-0.0427989,-0.0431712,5.6469,5,-0.00570165,11,-0.000243783,-2.24819,0.922772,0.0639378,14.1085,-0.0431712,
2,1,0,1,1,6136.18,-0.0328109,-0.0331473,5.71499,5,-0.00513354,11,-0.000189436,-2.24298,8.4395,0.00699093,1.55746,-0.0331473,
2,1,0,1,1,6136.28,-0.022823,-0.0231185,5.70688,5,-0.00456274,11,-0.000131935,-2.2436,-4.73554,-0.012459,-2.77358,-0.0231185,
2,1,0,1,1,6136.38,-0.0128351,-0.0131576,5.65531,5,-0.00399439,11,-7.44105e-05,-2.24754,-1.43222,-0.0411947,-9.09861,-0.0131576,
2,1,0,1,1,6136.48,-0.00284713,-0.00320377,5.60312,5,-0.00343127,11,-1.79511e-05,-2.25157,-1.55725,-0.0378873,-8.27985,-0.003203775,
2,1,0,0,1,6136.5,-2.55332e-05,-0.000401673,5.58115,5,-0.00327409,11,-2.2418e-06,-2.25328, , , ,-0.000401673,

File: 20221101_1-115_002_TrumpetPlot_ParaChange_11_CV_C01_5.csv
mode,ox/red,error,control changes,counter inc.,time/s,control/V,Ewe/V,<I>/mA,cycle number,(Q-Qo)/C,I Range,P/W,log(|I|),Tafel slope mV/dec,alpha_eff,dI/d(E-IR),E-IR/V,
2,0,0,1,0,7360.13,2.44065e-05,0.000495431,-6.9749,6,0.0000000E+000,11,-3.45559e-06,-2.15646, , , ,0.0004954313,
2,1,0,1,0,7360.23,0.00978761,0.00946994,3.4591,6,3.60117e-05,11,3.27575e-05,-2.46104,0.037423,1.57657,205.008,0.00946994,
2,1,0,1,0,7360.33,0.0197755,0.0194678,4.24561,6,0.00043284,11,8.26527e-05,-2.37206,0.329553,0.17903,29.6453,0.0194678,
2,1,0,1,0,7360.43,0.0297635,0.0294318,4.52985,6,0.00087148,11,0.000133322,-2.34392,0.370461,0.159261,28.1314,0.0294318,
2,1,0,1,0,7360.53,0.0397514,0.039468,4.86697,6,0.00134039,11,0.000192089,-2.31274,0.241456,0.244351,46.5077,0.03946799,
2,1,0,1,0,7360.63,0.0497484,0.0494167,5.35299,6,0.00184938,11,0.000264527,-2.2714,0.224242,0.263108,54.8117,0.0494167,
2,1,0,1,0,7360.73,0.0597273,0.0594028,5.95081,6,0.00241172,11,0.000353495,-2.22542,0.197024,0.299456,69.4498,0.0594028,
2,1,0,1,0,7360.83,0.0697152,0.0694434,6.64512,6,0.00304065,11,0.000461459,-2.1775,0.224374,0.262954,68.2617,0.0694434,
2,1,0,1,0,7360.93,0.0797031,0.0794128,7.35121,6,0.0037403,11,0.000583781,-2.13364,0.245669,0.240161,68.9051,0.0794128,
2,1,0,1,0,7361.03,0.0896911,0.0894162,7.9936,6,0.00450771,11,0.000714757,-2.09726,0.28855,0.204471,63.8574,0.0894162,
2,1,0,1,0,7361.13,0.099679,0.0993711,8.62029,6,0.00533611,11,0.000856608,-2.06448,0.298553,0.19762,66.4172,0.0993711,
2,1,0,1,0,7361.23,0.109667,0.109379,9.37595,6,0.00623255,11,0.00102553,-2.02798,0.233913,0.25223,92.4429,0.109379,
2,1,0,1,0,7361.33,0.119655,0.119351,10.5218,6,0.00722344,11,0.0012558,-1.97791,0.189918,0.31066,127.634,0.119351,
2,1,0,1,0,7361.43,0.129643,0.129304,11.916,6,0.00834333,11,0.00154079,-1.92387,0.192415,0.306629,142.538,0.129304,
2,1,0,1,0,7361.53,0.139631,0.139345,13.2307,6,0.00960183,11,0.00184363,-1.87842,0.256284,0.230213,118.846,0.139345,
2,1,0,1,0,7361.63,0.149619,0.149322,14.143,6,0.010973,11,0.00211187,-1.84946,0.616951,0.0956315,52.6655,0.149322,
2,1,0,1,0,7361.73,0.159607,0.159291,13.8462,6,0.012386,11,0.00220557,-1.85867,-0.22482,-0.262432,-141.337,0.159291,
2,1,0,1,0,7361.83,0.169595,0.169294,11.1577,6,0.0136548,11,0.00188892,-1.95243,-0.0693713,-0.850495,-368.821,0.1692937,
2,1,0,1,0,7361.93,0.179582,0.179288,7.64889,6,0.014583,11,0.00137136,-2.1164,-0.0656894,-0.898166,-269.494,0.179288,
2,1,0,1,0,7362.03,0.18957,0.189274,5.93539,6,0.0152475,11,0.00112342,-2.22655,-0.13123,-0.449593,-104.389,0.189274,
2,1,0,1,0,7362.13,0.199558,0.199265,5.19618,6,0.0157981,11,0.00103542,-2.28432,-0.229412,-0.257179,-52.0608,0.199265,
2,1,0,1,0,7362.23,0.209546,0.209288,4.75833,6,0.0162927,11,0.000995863,-2.32255,-0.270493,-0.218121,-40.5608,0.209288,
2,1,0,1,0,7362.33,0.219534,0.219234,4.47053,6,0.0167518,11,0.000980092,-2.34964,-0.485344,-0.121563,-21.2277,0.219234,
2,1,0,1,0,7362.43,0.229522,0.229225,4.28268,6,0.0171886,11,0.000981697,-2.36828,-0.64264,-0.0918088,-15.3695,0.229225,
2,1,0,1,0,7362.53,0.23951,0.239233,4.16544,6,0.0176101,11,0.00099651,-2.38034,-1.18702,-0.0497044,-8.08655,0.239233,
2,1,0,1,0,7362.63,0.249498,0.249214,4.07398,6,0.0180206,11,0.00101529,-2.38998,-1.12189,-0.0525896,-8.35535,0.249214,
2,1,0,1,0,7362.73,0.259486,0.259191,3.99724,6,0.0184227,11,0.00103605,-2.39824,-0.71828,-0.0821406,-12.7938,0.259191,
2,1,0,1,0,7362.83,0.269474,0.269159,3.91841,6,0.0188174,11,0.00105467,-2.40689,-1.21984,-0.048367,-7.40905,0.269159,
2,1,0,1,0,7362.93,0.279462,0.279163,3.859,6,0.0192058,11,0.00107729,-2.41353,-1.52281,-0.0387441,-5.83834,0.2791633,
2,1,0,1,0,7363.03,0.28945,0.289202,3.79695,6,0.0195878,11,0.00109809,-2.42057,-2.883,-0.0204648,-3.03307,0.289202,
2,1,0,1,0,7363.13,0.299438,0.299161,3.74495,6,0.0199638,11,0.00112034,-2.42655,-0.0244308,-2.41498,-317.219,0.299161,
2,0,0,1,0,7363.21,0.291747,0.291435,-1.64042,6,0.0199429,11,-0.000478075,-2.78505,-0.0547828,-1.07698,67.8136,0.291435,
2,0,0,1,0,7363.31,0.281759,0.281413,-2.02649,6,0.0197579,11,-0.000570281,-2.69326,-0.156763,-0.376365,29.6701,0.281413,
2,0,0,1,0,7363.41,0.271771,0.271482,-2.28022,6,0.0195428,11,-0.000619038,-2.64202,-0.206735,-0.28539,25.3483,0.271482,
2,0,0,1,0,7363.51,0.261783,0.261517,-2.48373,6,0.019305,11,-0.000649537,-2.6049,-0.365416,-0.16146,15.6167,0.261517,
2,0,0,1,0,7363.61,0.251795,0.251514,-2.64813,6,0.0190489,11,-0.000666042,-2.57706,-0.377946,-0.156107,16.1586,0.2515136,
2,0,0,1,0,7363.71,0.241807,0.241489,-2.80471,6,0.0187762,11,-0.000677306,-2.55211,-0.373912,-0.157791,17.3595,0.241489,
2,0,0,1,0,7363.81,0.231815,0.2315,-2.9714,6,0.0184881,11,-0.000687878,-2.52704,-0.382458,-0.154265,17.8766,0.2315,
2,0,0,1,0,7363.91,0.221831,0.221522,-3.12761,6,0.0181845,11,-0.000692834,-2.50479,-0.420042,-0.140462,17.135,0.221522,
2,0,0,1,0,7364.01,0.211843,0.211539,-3.30956,6,0.0178637,11,-0.000700102,-2.48023,-0.469066,-0.125782,16.2119,0.211539,
2,0,0,1,0,7364.11,0.201856,0.201554,-3.51923,6,0.0175233,11,-0.000709314,-2.45355,-0.362634,-0.162699,22.3875,0.201554,
2,0,0,1,0,7364.21,0.191868,0.191535,-3.80579,6,0.0171584,11,-0.000728941,-2.41955,-0.264155,-0.223354,33.2337,0.191535,
2,0,0,1,0,7364.31,0.18188,0.181586,-4.22512,6,0.0167602,11,-0.000767223,-2.37416,-0.183805,-0.320993,52.7643,0.181586,
2,0,0,1,0,7364.41,0.171892,0.171598,-4.84168,6,0.0163107,11,-0.000830824,-2.315,-0.144443,-0.408467,77.2281,0.171598,
2,0,0,1,0,7364.51,0.161904,0.161642,-5.86954,6,0.0157805,11,-0.000948766,-2.2314,-0.101646,-0.580448,133.214,0.161642,
2,0,0,1,0,7364.61,0.151916,0.151667,-7.53146,6,0.0151166,11,-0.00114227,-2.12312,-0.0855871,-0.689356,203.176,0.151667,
2,0,0,1,0,7364.71,0.141928,0.141617,-9.85765,6,0.0142522,11,-0.00139601,-2.00623,-0.0904264,-0.652464,250.465,0.1416171,
2,0,0,1,0,7364.81,0.13194,0.131649,-12.1825,6,0.0131498,11,-0.00160381,-1.91426,-0.135542,-0.43529,206.621,0.131649,
2,0,0,1,0,7364.91,0.121952,0.121675,-13.821,6,0.011843,11,-0.00168167,-1.85946,-0.302346,-0.195141,105.043,0.121675,
2,0,0,1,0,7365.01,0.111964,0.111659,-14.3031,6,0.0104282,11,-0.00159707,-1.84457,2.31304,0.0255076,-14.215,0.111659,
2,0,0,1,0,7365.11,0.101976,0.101664,-13.5716,6,0.0090263,11,-0.00137975,-1.86737,0.236033,0.249965,-132.152,0.101664,
2,0,0,1,0,7365.21,0.0919883,0.0916515,-11.9756,6,0.00774749,11,-0.00109758,-1.9217,0.170296,0.346455,-162.143,0.0916515,
2,0,0,1,0,7365.31,0.0820004,0.0817443,-10.5878,6,0.00662645,11,-0.000865495,-1.97519,0.22785,0.258942,-107.076,0.0817443,
2,0,0,1,0,7365.41,0.0720124,0.0716751,-9.7581,6,0.00561428,11,-0.000699412,-2.01063,0.333343,0.176995,-67.4131,0.0716751,
2,0,0,1,0,7365.51,0.0620245,0.0617051,-9.13716,6,0.00467101,11,-0.00056381,-2.03919,0.326772,0.180554,-64.4112,0.0617051,
2,0,0,1,0,7365.61,0.0520366,0.0517045,-8.469,6,0.00379048,11,-0.000437886,-2.07217,0.243093,0.242705,-80.0759,0.0517045,
2,0,0,1,0,7365.71,0.0420486,0.0417099,-7.65003,6,0.00298492,11,-0.000319082,-2.11634,0.226612,0.260356,-77.8618,0.0417099,
2,0,0,1,0,7365.81,0.0320607,0.0317488,-6.94998,6,0.00225844,11,-0.000220654,-2.15802,0.281293,0.209746,-56.8669,0.0317488,
2,0,0,1,0,7365.91,0.0220728,0.0218025,-6.52231,6,0.00158865,11,-0.000142203,-2.1856,0.510034,0.115679,-29.4426,0.0218025,
2,0,0,1,0,7366.01,0.0120848,0.0117574,-6.34933,6,0.0009477,11,-7.46514e-05,-2.19727,1.23741,0.0476802,-11.8183,0.0117574,
2,0,0,1,0,7366.11,0.0020969,0.00174175,-6.40541,6,0.000314739,11,-1.11566e-05,-2.19345,-0.97177,-0.060714,15.0751,0.00174175,
2,0,0,1,0,7366.21,-0.00789103,-0.00824988,-6.44771,6,-0.000325944,11,5.31929e-05,-2.19059,-1.00896,-0.0584763,14.7531,-0.00824988,
2,0,0,1,0,7366.31,-0.017879,-0.0182097,-6.65138,6,-0.000979403,11,0.00012112,-2.17709,-0.67244,-0.0877402,22.7378,-0.0182097,
2,0,0,1,0,7366.41,-0.0278669,-0.0282149,-6.87637,6,-0.0016546,11,0.000194016,-2.16264,-0.664421,-0.0887991,23.8562,-0.0282149,
2,0,0,1,0,7366.51,-0.0378548,-0.0381979,-7.16102,6,-0.00235564,11,0.000273536,-2.14503,-0.600531,-0.0982463,27.43,-0.0381979,
2,0,0,1,0,7366.61,-0.0478428,-0.0481712,-7.47845,6,-0.0030867,11,0.000360246,-2.12619,-0.435765,-0.135394,39.5581,-0.0481712,
2,0,0,1,0,7366.71,-0.0578216,-0.0581382,-7.85666,6,-0.00385201,11,0.000456772,-2.10476,-0.430156,-0.13716,42.0757,-0.0581382,
2,0,0,1,0,7366.81,-0.0678187,-0.0681629,-8.32745,6,-0.00465997,11,0.000567624,-2.07949,-0.355208,-0.1661,53.949,-0.0681629,
2,0,0,1,0,7366.91,-0.0778066,-0.0781326,-8.89211,6,-0.00551979,11,0.000694764,-2.051,-0.349713,-0.16871,58.6024,-0.0781326,
2,0,0,1,0,7367.01,-0.0877945,-0.0881432,-9.57001,6,-0.00644205,11,0.000843531,-2.01909,-0.311173,-0.189605,70.8089,-0.0881432,
2,0,0,1,0,7367.11,-0.0977825,-0.0980767,-10.2327,6,-0.00743273,11,0.00100359,-1.99001,-0.383407,-0.153884,61.5015,-0.0980767,
2,1,0,1,1,7367.21,-0.0927386,-0.0931279,0.274483,6,-0.00792996,11,-2.5562e-05,-3.56148,0.117971,0.500125,680.26,-0.0931279,
2,1,0,1,1,7367.3,-0.0827529,-0.0831058,3.7458,6,-0.00769098,11,-0.000311298,-2.42645,0.048908,1.20635,174.227,-0.08310575,
2,1,0,1,1,7367.4,-0.0727627,-0.0730816,4.84809,6,-0.00725368,11,-0.000354306,-2.31443,0.164933,0.357721,67.346,-0.0730816,
2,1,0,1,1,7367.5,-0.0627748,-0.0631231,5.32632,6,-0.00674326,11,-0.000336214,-2.27357,0.343953,0.171535,35.6493,-0.0631231,
2,1,0,1,1,7367.6,-0.0527868,-0.0531026,5.57747,6,-0.00619715,11,-0.000296178,-2.25356,0.876658,0.0673011,14.6326,-0.0531026,
2,1,0,1,1,7367.7,-0.0427989,-0.0430801,5.69176,6,-0.00563362,11,-0.000245201,-2.24475,1.22586,0.0481295,10.6928,-0.0430801,
2,1,0,1,1,7367.8,-0.0328109,-0.0331403,5.73467,6,-0.00506365,11,-0.000190049,-2.24149,103.176,0.000571839,0.127742,-0.0331403,
2,1,0,1,1,7367.9,-0.022823,-0.0231583,5.70828,6,-0.00449303,11,-0.000132194,-2.24349,-3.85281,-0.0153135,-3.40726,-0.02315833,
2,1,0,1,1,7368,-0.0128351,-0.0131438,5.64191,6,-0.00392633,11,-7.4156e-05,-2.24857,-1.21958,-0.0483775,-10.6567,-0.0131438,
2,1,0,1,1,7368.1,-0.00284713,-0.00318386,5.58076,6,-0.00336567,11,-1.77684e-05,-2.25331,-1.6636,-0.0354652,-7.71857,-0.00318386,
2,1,0,0,1,7368.13,-2.55332e-05,-0.000401673,5.55435,6,-0.00320924,11,-2.23103e-06,-2.25537, , , ,-0.000401673,