Folder: Figs_alphaMnO2_OER_Tafel_sleope/Figure_codes/Fig_3-5/rawdata_trumpetplot_data/before 10th (part 44)

File: 20221101_1-115_002_TrumpetPlot_ParaChange_13_CV_C01_2.csv
mode,ox/red,error,control changes,counter inc.,time/s,control/V,Ewe/V,<I>/mA,cycle number,(Q-Qo)/C,I Range,P/W,log(|I|),Tafel slope mV/dec,alpha_eff,dI/d(E-IR),E-IR/V,
2,1,0,0,0,3677.45,2.44065e-05,-0.000516197,12.6359,3,0.0000000E+000,10,-6.5226e-06,-1.89839, , , ,-0.000516197,
2,1,0,1,0,3677.47,0.0100623,0.00974112,16.6768,3,0.000370348,10,0.00016245,-1.77789,0.122248,0.482625,311.498,0.00974112,
2,1,0,1,0,3677.5,0.0204636,0.0201532,18.8528,3,0.000836599,10,0.000379945,-1.72462,0.329452,0.179085,131.47,0.0201532,
2,1,0,1,0,3677.53,0.0308677,0.0305919,19.7864,3,0.0013408,10,0.000605304,-1.70363,0.762828,0.0773438,59.6596,0.0305919,
2,1,0,1,0,3677.55,0.0412635,0.0409277,20.2399,3,0.00186149,10,0.000828371,-1.69379,1.26882,0.0465001,36.7037,0.0409277,
2,1,0,1,0,3677.58,0.051662,0.0513568,20.6536,3,0.00239296,10,0.0010607,-1.685,0.978629,0.0602884,48.6462,0.0513568,
2,1,0,1,0,3677.6,0.0620633,0.0617244,21.3106,3,0.00293793,10,0.00131539,-1.6714,0.6143,0.0960443,79.9824,0.0617244,
2,1,0,1,0,3677.63,0.0724674,0.072162,22.3935,3,0.0035054,10,0.00161596,-1.64988,0.414919,0.142196,124.345,0.07216195,
2,1,0,1,0,3677.66,0.0828632,0.0825274,23.8429,3,0.00410591,10,0.00196769,-1.62264,0.348008,0.169536,157.909,0.0825274,
2,1,0,1,0,3677.68,0.0932618,0.092913,25.7392,3,0.00474985,10,0.00239151,-1.5894,0.306289,0.192629,193.558,0.092913,
2,1,0,1,0,3677.71,0.103669,0.103327,27.8267,3,0.00544603,10,0.00287526,-1.55554,0.303684,0.194281,211.057,0.103327,
2,1,0,1,0,3677.73,0.114067,0.113752,30.082,3,0.00619873,10,0.00342189,-1.52169,0.308016,0.191548,224.716,0.113752,
2,1,0,1,0,3677.76,0.124463,0.124162,32.5208,3,0.00701209,10,0.00403785,-1.48784,0.301337,0.195794,248.614,0.124162,
2,1,0,1,0,3677.79,0.134861,0.134555,35.3926,3,0.00789416,10,0.00476226,-1.45109,0.263643,0.223788,309.586,0.134555,
2,1,0,1,0,3677.81,0.145268,0.144955,38.9773,3,0.0088599,10,0.00564994,-1.40919,0.239466,0.246382,374.761,0.144955,
2,1,0,1,0,3677.84,0.155667,0.155383,43.0791,3,0.00992605,10,0.00669375,-1.36573,0.243978,0.241825,406.322,0.155383,
2,1,0,1,0,3677.86,0.166063,0.165718,47.2696,3,0.0111014,10,0.00783344,-1.32542,0.280951,0.210001,387.311,0.165718,
2,1,0,1,0,3677.89,0.176461,0.176109,50.9186,3,0.0123806,10,0.00896724,-1.29312,0.402141,0.146715,291.129,0.176109,
2,1,0,1,0,3677.92,0.186868,0.186579,52.7862,3,0.0137349,10,0.00984879,-1.27748,6.23181,0.00946755,19.4267,0.186579,
2,1,0,1,0,3677.94,0.197267,0.196976,50.4725,3,0.0150888,10,0.00994188,-1.29695,-0.230208,-0.256289,-501.648,0.196976,
2,1,0,1,0,3677.97,0.207662,0.207443,42.3884,3,0.0163065,10,0.0087932,-1.37275,-0.0985157,-0.598889,-985.161,0.2074433,
2,1,0,1,0,3677.99,0.218061,0.217758,31.3609,3,0.0172644,10,0.00682908,-1.50361,-0.0717049,-0.822817,-1007.91,0.217758,
2,1,0,1,0,3678.02,0.228468,0.228185,22.7493,3,0.0179578,10,0.00519105,-1.64303,-0.0853848,-0.69099,-617.397,0.228185,
2,1,0,1,0,3678.05,0.238866,0.238563,18.3514,3,0.0184836,10,0.00437797,-1.73633,-0.163507,-0.360841,-260.001,0.238563,
2,1,0,1,0,3678.07,0.249262,0.248966,16.6221,3,0.0189347,10,0.00413834,-1.77931,-0.364137,-0.162027,-105.416,0.248966,
2,1,0,1,0,3678.1,0.259661,0.25936,15.9074,3,0.0193564,10,0.00412575,-1.7984,-0.737824,-0.0799649,-49.6662,0.25936,
2,1,0,1,0,3678.12,0.270068,0.269785,15.485,3,0.0197641,10,0.00417762,-1.81009,-1.04613,-0.0563982,-34.1023,0.2697846,
2,1,0,1,0,3678.15,0.280466,0.280143,15.1513,3,0.0201623,10,0.00424453,-1.81955,-1.10781,-0.053258,-31.4889,0.280143,
2,1,0,1,0,3678.18,0.290862,0.290553,14.8516,3,0.0205522,10,0.00431517,-1.82823,-1.1682,-0.0505051,-29.2496,0.290553,
2,1,0,0,0,3678.2,0.300012,0.299804,14.6063,3,0.0208893,10,0.00437902,-1.83546,0.000222971,264.608,115977,0.299804,
2,0,0,1,0,3678.22,0.290704,0.290436,-2.28028,3,0.0209849,10,-0.000662274,-2.64201,-0.0103772,-5.68553,834.992,0.290436,
2,0,0,1,0,3678.25,0.280305,0.280016,-6.75049,3,0.0208541,10,-0.00189025,-2.17066,-0.0707874,-0.833481,215.297,0.280016,
2,0,0,1,0,3678.27,0.269909,0.269635,-8.17212,3,0.0206573,10,-0.00220349,-2.08767,-0.197592,-0.298594,95.0203,0.269635,
2,0,0,1,0,3678.3,0.2595,0.259216,-8.97822,3,0.0204336,10,-0.00232729,-2.04681,-0.298399,-0.197722,69.2165,0.259216,
2,0,0,1,0,3678.33,0.249104,0.248835,-9.63206,3,0.0201915,10,-0.0023968,-2.01628,-0.396874,-0.148662,55.778,0.248835,
2,0,0,1,0,3678.35,0.238705,0.238434,-10.2297,3,0.0199333,10,-0.00243909,-1.99014,-0.398326,-0.14812,59.2117,0.238434,
2,0,0,1,0,3678.38,0.22831,0.22806,-10.8436,3,0.0196592,10,-0.00247299,-1.96483,-0.387689,-0.152184,64.5248,0.22806,
2,0,0,1,0,3678.4,0.2179,0.217563,-11.5447,3,0.0193682,10,-0.0025117,-1.93762,-0.379006,-0.15567,69.9976,0.217563,
2,0,0,1,0,3678.43,0.207504,0.207224,-12.3011,3,0.0190585,10,-0.00254907,-1.91006,-0.355093,-0.166154,79.9663,0.2072238,
2,0,0,1,0,3678.46,0.197106,0.19683,-13.2722,3,0.0187261,10,-0.00261237,-1.87706,-0.290825,-0.202871,105.339,0.19683,
2,0,0,1,0,3678.48,0.18671,0.186405,-14.5628,3,0.0183649,10,-0.00271457,-1.83676,-0.232129,-0.25417,144.481,0.186405,
2,0,0,1,0,3678.51,0.1763,0.175982,-16.3082,3,0.0179647,10,-0.00286995,-1.78759,-0.189288,-0.311694,198.663,0.1759821,
2,0,0,1,0,3678.53,0.165905,0.165623,-18.768,3,0.0175104,10,-0.00310842,-1.72658,-0.156084,-0.378002,277.357,0.165623,
2,0,0,1,0,3678.56,0.155506,0.155206,-22.1768,3,0.01698,10,-0.00344197,-1.6541,-0.1323,-0.445955,386.688,0.155206,
2,0,0,1,0,3678.59,0.145105,0.14482,-26.7535,3,0.0163458,10,-0.00387444,-1.57262,-0.12615,-0.467697,488.495,0.14482,
2,0,0,1,0,3678.61,0.134701,0.134477,-32.1674,3,0.0155804,10,-0.00432577,-1.49258,-0.13952,-0.422878,530.108,0.134477,
2,0,0,1,0,3678.64,0.124305,0.124084,-37.8352,3,0.0146704,10,-0.00469473,-1.4221,-0.162042,-0.364103,536.95,0.124084,
2,0,0,1,0,3678.66,0.113906,0.113708,-43.0747,3,0.0136166,10,-0.00489792,-1.36578,-0.211244,-0.279298,468.902,0.1137076,
2,0,0,1,0,3678.69,0.103505,0.103256,-47.327,3,0.0124377,10,-0.0048868,-1.32489,-0.33408,-0.176605,325.53,0.103256,
2,0,0,1,0,3678.72,0.0931008,0.0928494,-49.726,3,0.011171,10,-0.00461703,-1.30342,-0.957415,-0.0616242,119.314,0.0928494,
2,0,0,1,0,3678.74,0.0827051,0.082432,-49.599,3,0.0098738,10,-0.00408855,-1.30453,0.749344,0.0787355,-151.932,0.082432,
2,0,0,1,0,3678.77,0.0723065,0.0719668,-46.7718,3,0.00861651,10,-0.00336602,-1.33002,0.295553,0.199626,-363.803,0.0719668,
2,0,0,1,0,3678.79,0.0618996,0.0615992,-42.5957,3,0.00745417,10,-0.00262386,-1.37063,0.242257,0.243543,-404.992,0.0615992,
2,0,0,1,0,3678.82,0.0515011,0.0511924,-38.6043,3,0.00640019,10,-0.00197625,-1.41336,0.247002,0.238864,-359.693,0.0511924,
2,0,0,1,0,3678.85,0.0411053,0.0407739,-34.9509,3,0.00544483,10,-0.00142508,-1.45654,0.226919,0.260005,-354.486,0.04077391,
2,0,0,1,0,3678.87,0.0307068,0.0303628,-31.2515,3,0.00458413,10,-0.000948883,-1.50513,0.20239,0.291516,-355.731,0.0303628,
2,0,0,1,0,3678.9,0.0202999,0.0199846,-27.7575,3,0.0038186,10,-0.000554724,-1.55662,0.213807,0.27595,-299.162,0.01998464,
2,0,0,1,0,3678.92,0.00990136,0.0096128,-25.1768,3,0.00313355,10,-0.00024202,-1.599,0.312192,0.188986,-186.023,0.0096128,
2,0,0,1,0,3678.95,-0.000494411,-0.000878856,-23.8684,3,0.00249871,10,2.09769e-05,-1.62218,0.721866,0.0817326,-76.1666,-0.000878856,
2,0,0,1,0,3678.98,-0.010893,-0.011256,-23.3642,3,0.0018862,10,0.000262988,-1.63145,4.29557,0.0137351,-12.5447,-0.011256,
2,0,0,1,0,3679,-0.0212998,-0.0216342,-23.4551,3,0.00127836,10,0.000507431,-1.62976,-2.05087,-0.0287683,26.3342,-0.0216342,
2,0,0,1,0,3679.03,-0.0316984,-0.0320994,-23.8403,3,0.00066413,10,0.000765258,-1.62269,-1.17847,-0.0500648,46.566,-0.0320994,
2,0,0,1,0,3679.05,-0.0420942,-0.0424224,-24.3863,3,3.72873e-05,10,0.00103453,-1.61285,-0.969207,-0.0608745,58.0102,-0.0424224,
2,0,0,1,0,3679.08,-0.0524927,-0.0528218,-25.0607,3,-0.00060566,10,0.00132375,-1.60101,-0.844064,-0.0699,68.3823,-0.0528218,
2,0,0,1,0,3679.11,-0.0628996,-0.0632594,-25.8037,3,-0.00126668,10,0.00163233,-1.58832,-0.815883,-0.0723143,72.7657,-0.0632594,
2,0,0,1,0,3679.13,-0.0732982,-0.073645,-26.5674,3,-0.00194731,10,0.00195656,-1.57565,-0.766081,-0.0770153,79.916,-0.073645,
2,0,0,1,0,3679.16,-0.0836939,-0.0840211,-27.4615,3,-0.00264966,10,0.00230734,-1.56128,-0.707386,-0.0834057,89.3817,-0.0840211,
2,0,0,1,0,3679.18,-0.0940925,-0.0944333,-28.4799,3,-0.00337655,10,0.00268945,-1.54546,-0.623376,-0.0946459,105.167,-0.0944333,
2,0,0,1,1,3679.2,-0.0978574,-0.0983239,-22.3754,3,-0.00394596,10,0.00220003,-1.65023,-0.0176897,-3.33528,2714.73,-0.0983239,
2,0,0,1,1,3679.23,-0.0874588,-0.087898,-1.58336,3,-0.00422435,10,0.000139174,-2.80042,-0.0154327,-3.82305,1410.21,-0.087898,
2,1,0,1,1,3679.26,-0.077052,-0.0775261,9.37154,3,-0.00410777,10,-0.00072654,-2.02819,0.026326,2.24113,782.051,-0.07752613,
2,1,0,1,1,3679.28,-0.0666562,-0.0670355,15.6205,3,-0.00377465,10,-0.00104713,-1.80631,0.0808114,0.730095,440.377,-0.0670355,
2,1,0,1,1,3679.31,-0.0562576,-0.0566351,19.061,3,-0.00331866,10,-0.00107952,-1.71986,0.184679,0.319472,236.725,-0.0566351,
2,1,0,1,1,3679.33,-0.0458563,-0.0462208,20.8941,3,-0.00279649,10,-0.000965744,-1.67998,0.388636,0.151813,123.477,-0.0462208,
2,1,0,1,1,3679.36,-0.0354522,-0.035815,21.7764,3,-0.0022403,10,-0.000779921,-1.66201,0.921633,0.0640168,54.3048,-0.035815,
2,1,0,1,1,3679.39,-0.0250564,-0.0253955,22.0852,3,-0.00166914,10,-0.000560864,-1.6559,4.51724,0.0130611,11.2554,-0.0253955,
2,1,0,1,1,3679.41,-0.0146579,-0.0149621,22.0723,3,-0.00109447,10,-0.000330248,-1.65615,-4.36059,-0.0135303,-11.6481,-0.0149621,
2,1,0,1,1,3679.44,-0.00425653,-0.00465284,21.8432,3,-0.000523241,10,-0.000101633,-1.66068,-1.77467,-0.0332457,-28.349,-0.00465284,
2,1,0,0,1,3679.45,-7.54729e-05,-0.000439847,21.712,3,-0.000294449,10,-9.54999e-06,-1.6633, , , ,-0.000439847,

File: 20221101_1-115_002_TrumpetPlot_ParaChange_13_CV_C01_3.csv
mode,ox/red,error,control changes,counter inc.,time/s,control/V,Ewe/V,<I>/mA,cycle number,(Q-Qo)/C,I Range,P/W,log(|I|),Tafel slope mV/dec,alpha_eff,dI/d(E-IR),E-IR/V,
2,1,0,0,0,4909.08,2.44065e-05,-0.000535284,12.9819,4,0.0000000E+000,10,-6.94899e-06,-1.88666, , , ,-0.000535284,
2,1,0,1,0,4909.1,0.0100623,0.00973793,16.4827,4,0.000368695,10,0.000160507,-1.78297,0.126356,0.466935,297.929,0.009737934,
2,1,0,1,0,4909.13,0.0204636,0.0201787,18.5958,4,0.000828491,10,0.00037524,-1.73058,0.317594,0.185772,134.523,0.0201787,
2,1,0,1,0,4909.15,0.0308677,0.0305442,19.5891,4,0.00132652,10,0.000598332,-1.70799,0.66447,0.0887926,67.7842,0.0305442,
2,1,0,1,0,4909.18,0.0412635,0.0409775,20.1515,4,0.00184329,10,0.000825758,-1.69569,0.96378,0.0612173,48.095,0.0409775,
2,1,0,1,0,4909.21,0.051662,0.0513154,20.6979,4,0.00237416,10,0.00106212,-1.68407,0.746139,0.0790738,63.9874,0.0513154,
2,1,0,1,0,4909.23,0.0620633,0.0617413,21.5199,4,0.00292258,10,0.00132866,-1.66716,0.51781,0.113941,95.8159,0.0617413,
2,1,0,1,0,4909.26,0.0724674,0.0721736,22.7554,4,0.00349744,10,0.00164234,-1.64292,0.389475,0.151486,134.543,0.0721736,
2,1,0,1,0,4909.28,0.0828632,0.0825168,24.2939,4,0.00410866,10,0.00200466,-1.6145,0.34672,0.170166,161.516,0.0825168,
2,1,0,1,0,4909.31,0.0932618,0.0929745,26.2511,4,0.00476514,10,0.00244068,-1.58085,0.310464,0.190038,194.629,0.0929745,
2,1,0,1,0,4909.34,0.103669,0.103347,28.3195,4,0.00547442,10,0.00292675,-1.54791,0.31765,0.185739,205.272,0.103347,
2,1,0,1,0,4909.36,0.114067,0.113773,30.5176,4,0.00623909,10,0.00347208,-1.51545,0.320931,0.18384,218.789,0.113773,
2,1,0,1,0,4909.39,0.124463,0.124128,32.8633,4,0.00706258,10,0.00407926,-1.48329,0.313644,0.188111,241.406,0.124128,
2,1,0,1,0,4909.41,0.134861,0.134502,35.6355,4,0.00795242,10,0.00479305,-1.44812,0.276183,0.213627,297.487,0.134502,
2,1,0,1,0,4909.44,0.145268,0.144985,39.0284,4,0.00892215,10,0.00565855,-1.40862,0.259372,0.227473,346.299,0.144985,
2,1,0,1,0,4909.47,0.155667,0.155368,42.7759,4,0.00998532,10,0.006646,-1.3688,0.266272,0.221578,369.758,0.155368,
2,1,0,1,0,4909.49,0.166063,0.16575,46.509,4,0.0111471,10,0.00770888,-1.33246,0.317736,0.185689,336.847,0.16575,
2,1,0,1,0,4909.52,0.176461,0.176154,49.5477,4,0.0123989,10,0.00872803,-1.30498,0.51949,0.113573,219.198,0.1761539,
2,1,0,1,0,4909.54,0.186868,0.186566,50.5671,4,0.0137069,10,0.0094341,-1.29613,-1.58353,-0.0372586,-73.2099,0.186566,
2,1,0,1,0,4909.57,0.197267,0.196943,47.3867,4,0.014991,10,0.00933248,-1.32434,-0.194573,-0.303228,-557.59,0.196943,
2,1,0,1,0,4909.6,0.207662,0.207406,39.3453,4,0.0161261,10,0.00816046,-1.40511,-0.0970317,-0.608049,-929.506,0.207406,
2,1,0,1,0,4909.62,0.218061,0.217832,29.5813,4,0.0170195,10,0.00644377,-1.52898,-0.0797837,-0.739499,-855.415,0.2178321,
2,1,0,1,0,4909.65,0.228468,0.228209,22.4089,4,0.0176864,10,0.00511392,-1.64958,-0.102028,-0.578272,-508.751,0.228209,
2,1,0,1,0,4909.67,0.238866,0.238561,18.803,4,0.0182152,10,0.00448567,-1.72577,-0.197643,-0.298519,-219.927,0.238561,
2,1,0,1,0,4909.7,0.249262,0.248999,17.2946,4,0.0186814,10,0.00430632,-1.76209,-0.40845,-0.144448,-97.6299,0.248999,
2,1,0,1,0,4909.73,0.259661,0.25935,16.5637,4,0.0191207,10,0.0042958,-1.78084,-0.725752,-0.0812949,-52.6151,0.25935,
2,1,0,1,0,4909.75,0.270068,0.269752,16.0921,4,0.0195451,10,0.00434087,-1.79339,-0.938076,-0.0628947,-39.5469,0.269752,
2,1,0,1,0,4909.78,0.280466,0.280162,15.708,4,0.0199584,10,0.00440079,-1.80388,-0.981241,-0.0601279,-36.8344,0.280162,
2,1,0,1,0,4909.8,0.290862,0.290596,15.3443,4,0.0203619,10,0.00445899,-1.81405,-0.980427,-0.0601778,-36.0112,0.290596,
2,1,0,0,0,4909.83,0.300012,0.299804,15.0363,4,0.0207098,10,0.00450793,-1.82286,0.000510634,115.543,53133.5,0.299804,
2,0,0,1,0,4909.85,0.290704,0.290406,-1.50948,4,0.0208213,10,-0.000438362,-2.82117,-0.021347,-2.76385,840.592,0.290406,
2,0,0,1,0,4909.88,0.280305,0.28006,-6.11696,4,0.0207091,10,-0.00171312,-2.21346,-0.0598264,-0.986186,230.162,0.28006,
2,0,0,1,0,4909.9,0.269909,0.269615,-7.68054,4,0.0205269,10,-0.00207079,-2.11461,-0.166095,-0.355218,106.015,0.269615,
2,0,0,1,0,4909.93,0.2595,0.259265,-8.57968,4,0.0203149,10,-0.00222441,-2.06653,-0.263067,-0.224278,74.8776,0.259265,
2,0,0,1,0,4909.95,0.249104,0.248801,-9.2691,4,0.0200827,10,-0.00230616,-2.03296,-0.35425,-0.166549,60.2454,0.248801,
2,0,0,1,0,4909.98,0.238705,0.238416,-9.91015,4,0.0198332,10,-0.00236273,-2.00392,-0.375168,-0.157263,60.9069,0.238416,
2,0,0,1,0,4910.01,0.22831,0.227993,-10.5421,4,0.0195671,10,-0.00240352,-1.97707,-0.374201,-0.157669,64.9202,0.227993,
2,0,0,1,0,4910.03,0.2179,0.217668,-11.2366,4,0.0192842,10,-0.00244584,-1.94937,-0.381565,-0.154627,67.6197,0.217668,
2,0,0,1,0,4910.06,0.207504,0.207216,-11.9587,4,0.018983,10,-0.00247805,-1.92231,-0.355085,-0.166158,77.6984,0.207216,
2,0,0,1,0,4910.08,0.197106,0.196834,-12.8627,4,0.0186605,10,-0.00253181,-1.89067,-0.29719,-0.198526,99.8406,0.196834,
2,0,0,1,0,4910.11,0.18671,0.186422,-14.0318,4,0.0183115,10,-0.00261583,-1.85289,-0.250383,-0.235639,128.953,0.186422,
2,0,0,1,0,4910.14,0.1763,0.175968,-15.6039,4,0.0179272,10,-0.00274579,-1.80677,-0.202347,-0.291579,177.875,0.1759683,
2,0,0,1,0,4910.16,0.165905,0.165613,-17.8221,4,0.0174941,10,-0.00295158,-1.74904,-0.162391,-0.36332,253.145,0.165613,
2,0,0,1,0,4910.19,0.155506,0.155213,-20.9482,4,0.0169922,10,-0.00325144,-1.67885,-0.139223,-0.42378,346.734,0.155213,
2,0,0,1,0,4910.21,0.145105,0.144861,-25.1601,4,0.016395,10,-0.00364473,-1.59929,-0.127092,-0.464231,456.043,0.144861,
2,0,0,1,0,4910.24,0.134701,0.134435,-30.3099,4,0.0156749,10,-0.00407472,-1.51842,-0.1355,-0.435425,514.53,0.134435,
2,0,0,1,0,4910.27,0.124305,0.124091,-35.7286,4,0.0148164,10,-0.0044336,-1.44698,-0.157471,-0.374672,521.879,0.1240911,
2,0,0,1,0,4910.29,0.113906,0.113708,-40.8426,4,0.0138186,10,-0.00464411,-1.38889,-0.207391,-0.284486,452.872,0.113708,
2,0,0,1,0,4910.32,0.103505,0.103218,-45.0532,4,0.0126991,10,-0.0046503,-1.34627,-0.303818,-0.194195,340.795,0.103218,
2,0,0,1,0,4910.34,0.0931008,0.0928409,-47.6576,4,0.0114895,10,-0.00442457,-1.32187,-0.694773,-0.0849198,157.612,0.0928409,
2,0,0,1,0,4910.37,0.0827051,0.0824086,-48.1346,4,0.0102389,10,-0.00396671,-1.31754,1.44791,0.0407483,-76.3307,0.0824086,
2,0,0,1,0,4910.4,0.0723065,0.0719859,-46.1868,4,0.00900831,10,-0.0033248,-1.33548,0.374626,0.15749,-283.413,0.0719859,
2,0,0,1,0,4910.42,0.0618996,0.0615685,-42.7345,4,0.00785119,10,-0.0026311,-1.36922,0.280974,0.209984,-350.158,0.0615685,
2,0,0,1,0,4910.45,0.0515011,0.0511882,-39.2333,4,0.0067871,10,-0.00200828,-1.40634,0.287669,0.205097,-313.882,0.0511882,
2,0,0,1,0,4910.47,0.0411053,0.0407644,-36.0561,4,0.00580924,10,-0.0014698,-1.44302,0.27311,0.21603,-303.923,0.0407644,
2,0,0,1,0,4910.5,0.0307068,0.0304328,-32.8309,4,0.00491325,10,-0.000999137,-1.48372,0.235464,0.250569,-321.064,0.03043283,
2,0,0,1,0,4910.53,0.0202999,0.0200345,-29.4531,4,0.00410399,10,-0.000590077,-1.53087,0.214231,0.275404,-316.567,0.0200345,
2,0,0,1,0,4910.55,0.00990136,0.00959372,-26.5631,4,0.00337835,10,-0.000254839,-1.57572,0.269464,0.218953,-227.221,0.00959372,
2,0,0,1,0,4910.58,-0.000494411,-0.000835379,-24.8154,4,0.00271346,10,2.07303e-05,-1.60528,0.499065,0.118221,-114.579,-0.000835379,
2,0,0,1,0,4910.6,-0.010893,-0.011221,-23.9868,4,0.002081,10,0.000269156,-1.62003,1.37494,0.0429109,-40.2276,-0.011221,
2,0,0,1,0,4910.63,-0.0212998,-0.0216597,-23.8384,4,0.00146048,10,0.000516331,-1.62272,-8.38524,-0.00703617,6.54519,-0.0216597,
2,0,0,1,0,4910.66,-0.0316984,-0.0320941,-24.0681,4,0.000838519,10,0.000772442,-1.61856,-1.62825,-0.0362353,34.0328,-0.0320941,
2,0,0,1,0,4910.68,-0.0420942,-0.0424108,-24.5086,4,0.000207295,10,0.00103943,-1.61068,-1.14712,-0.0514333,49.249,-0.0424108,
2,0,0,1,0,4910.71,-0.0524927,-0.0528409,-25.1107,4,-0.000437816,10,0.00132687,-1.60014,-0.909613,-0.0648628,63.5938,-0.0528409,
2,0,0,1,0,4910.73,-0.0628996,-0.0632796,-25.8081,4,-0.00109958,10,0.00163313,-1.58824,-0.869703,-0.0678393,68.2628,-0.0632796,
2,0,0,1,0,4910.76,-0.0732982,-0.0736291,-26.5434,4,-0.00177999,10,0.00195437,-1.57604,-0.780735,-0.0755698,78.3291,-0.0736291,
2,0,0,1,0,4910.79,-0.0836939,-0.0840137,-27.4061,4,-0.00248126,10,0.00230249,-1.56215,-0.722259,-0.0816882,87.3836,-0.0840137,
2,0,0,1,0,4910.81,-0.0940925,-0.0944195,-28.3895,4,-0.00320633,10,0.00268052,-1.54684,-0.649307,-0.090866,100.658,-0.0944195,
2,0,0,1,1,4910.83,-0.0978574,-0.0982497,-22.441,4,-0.00377399,10,0.00220482,-1.64896,-0.0181391,-3.25264,2668.44,-0.0982497,
2,0,0,1,1,4910.86,-0.0874588,-0.0878768,-2.27431,4,-0.00406362,10,0.000199859,-2.64315,-0.0104127,-5.66615,1388.3,-0.0878768,
2,1,0,1,1,4910.88,-0.077052,-0.077488,8.51064,4,-0.00396785,10,-0.000659472,-2.07004,0.0241315,2.44494,769.419,-0.07748796,
2,1,0,1,1,4910.91,-0.0666562,-0.0670239,14.7613,4,-0.00365752,10,-0.000989363,-1.83087,0.074938,0.787317,448.221,-0.0670239,
2,1,0,1,1,4910.94,-0.0562576,-0.0566043,18.3035,4,-0.00322279,10,-0.00103606,-1.73747,0.168873,0.349376,248.43,-0.0566043,
2,1,0,1,1,4910.96,-0.0458563,-0.0462166,20.2385,4,-0.00271908,10,-0.000935354,-1.69382,0.347101,0.169979,133.861,-0.0462166,
2,1,0,1,1,4910.99,-0.0354522,-0.0358235,21.2194,4,-0.00217859,10,-0.000760153,-1.67327,0.771984,0.0764265,63.1706,-0.0358235,
2,1,0,1,1,4911.01,-0.0250564,-0.0253859,21.6104,4,-0.00162083,10,-0.0005486,-1.66534,2.74392,0.0215021,18.1287,-0.0253859,
2,1,0,1,1,4911.04,-0.0146579,-0.0149791,21.6633,4,-0.00105768,10,-0.000324497,-1.66428,-9.30106,-0.00634337,-5.35811,-0.0149791,
2,1,0,1,1,4911.07,-0.00425653,-0.00461679,21.4796,4,-0.000496403,10,-9.91667e-05,-1.66797,-2.08171,-0.028342,-23.7741,-0.00461679,
2,1,0,0,1,4911.08,-7.54729e-05,-0.000344411,21.3896,4,-0.000271292,10,-7.3668e-06,-1.6698, , , ,-0.000344411,