Folder: Figs_alphaMnO2_OER_Tafel_sleope/Figure_codes/Fig_3-5/rawdata_trumpetplot_data/before 10th (part 46)

File: 20221101_1-115_002_TrumpetPlot_ParaChange_13_CV_C01_6.csv
mode,ox/red,error,control changes,counter inc.,time/s,control/V,Ewe/V,<I>/mA,cycle number,(Q-Qo)/C,I Range,P/W,log(|I|),Tafel slope mV/dec,alpha_eff,dI/d(E-IR),E-IR/V,
2,1,0,0,0,8603.96,2.44065e-05,-0.000554371,14.0771,7,0.0000000E+000,10,-7.80395e-06,-1.85149, , , ,-0.000554371,
2,1,0,1,0,8603.99,0.0100623,0.00972521,15.802,7,0.000362809,10,0.000153678,-1.80129,0.141696,0.416386,255.553,0.00972521,
2,1,0,1,0,8604.01,0.0204636,0.0201161,17.8052,7,0.000802579,10,0.000358171,-1.74945,0.288822,0.204278,141.651,0.0201161,
2,1,0,1,0,8604.04,0.0308677,0.0305198,18.9798,7,0.00128213,10,0.00057926,-1.72171,0.468934,0.125817,93.0859,0.03051978,
2,1,0,1,0,8604.07,0.0412635,0.0409478,19.8519,7,0.00178706,10,0.00081289,-1.7022,0.561015,0.105167,81.4491,0.0409478,
2,1,0,1,0,8604.09,0.051662,0.0513515,20.7575,7,0.00231482,10,0.00106593,-1.68283,0.48073,0.12273,99.5408,0.0513515,
2,1,0,1,0,8604.12,0.0620633,0.0617445,21.9147,7,0.00286919,10,0.00135311,-1.65926,0.401416,0.14698,125.777,0.0617445,
2,1,0,1,0,8604.14,0.0724674,0.072111,23.3925,7,0.00345782,10,0.00168686,-1.63092,0.352237,0.167501,152.982,0.072111,
2,1,0,1,0,8604.17,0.0828632,0.0825051,25.0549,7,0.00408769,10,0.00206716,-1.60111,0.332546,0.177419,173.784,0.0825051,
2,1,0,1,0,8604.2,0.0932618,0.092947,26.9993,7,0.00476468,10,0.00250951,-1.56865,0.337401,0.174866,184.157,0.092947,
2,1,0,1,0,8604.22,0.103669,0.103343,28.9168,7,0.00549167,10,0.00298836,-1.53885,0.356282,0.165599,186.904,0.103343,
2,1,0,1,0,8604.25,0.114067,0.113731,30.8786,7,0.00626908,10,0.00351185,-1.51034,0.366051,0.16118,194.229,0.113731,
2,1,0,1,0,8604.27,0.124463,0.12413,33.0162,7,0.0070993,10,0.00409831,-1.48127,0.345542,0.170746,220.065,0.12413,
2,1,0,1,0,8604.3,0.134861,0.134535,35.5331,7,0.00798973,10,0.00478044,-1.44937,0.308591,0.191192,265.347,0.134535,
2,1,0,1,0,8604.33,0.145268,0.145012,38.4841,7,0.00895153,10,0.00558066,-1.41472,0.299157,0.197221,296.122,0.145012,
2,1,0,1,0,8604.35,0.155667,0.155339,41.5414,7,0.0099922,10,0.00645301,-1.38152,0.333912,0.176694,286.282,0.155339,
2,1,0,1,0,8604.38,0.166063,0.165722,44.3564,7,0.0111102,10,0.00735081,-1.35304,0.416464,0.141669,245.1,0.1657216,
2,1,0,1,0,8604.4,0.176461,0.176174,46.3899,7,0.0122931,10,0.00817269,-1.33358,0.880532,0.0670049,121.064,0.176174,
2,1,0,1,0,8604.43,0.186868,0.186571,46.3199,7,0.0135049,10,0.00864196,-1.33423,-0.600102,-0.0983166,-176.932,0.186571,
2,1,0,1,0,8604.46,0.197267,0.196961,42.2859,7,0.014666,10,0.00832869,-1.3738,-0.161176,-0.366059,-600.753,0.196961,
2,1,0,1,0,8604.48,0.207662,0.207404,34.5242,7,0.0156685,10,0.00716047,-1.46188,-0.0976988,-0.603897,-812.044,0.207404,
2,1,0,1,0,8604.51,0.218061,0.217761,26.6269,7,0.0164588,10,0.00579831,-1.57468,-0.0951462,-0.620098,-646.607,0.217761,
2,1,0,1,0,8604.53,0.228468,0.228181,21.4516,7,0.0170766,10,0.00489484,-1.66854,-0.135364,-0.435862,-366.168,0.228181,
2,1,0,1,0,8604.56,0.238866,0.238564,18.7314,7,0.0175945,10,0.00446863,-1.72743,-0.237948,-0.247953,-181.811,0.2385641,
2,1,0,1,0,8604.59,0.249262,0.248969,17.3513,7,0.0180618,10,0.00431992,-1.76067,-0.408049,-0.144591,-98.1002,0.248969,
2,1,0,1,0,8604.61,0.259661,0.259365,16.5453,7,0.0185017,10,0.00429127,-1.78133,-0.603272,-0.0978,-63.133,0.259365,
2,1,0,1,0,8604.64,0.270068,0.269805,15.9666,7,0.0189239,10,0.00430786,-1.79679,-0.742712,-0.0794386,-49.5452,0.269805,
2,1,0,1,0,8604.66,0.280466,0.280176,15.5158,7,0.0193331,10,0.00434713,-1.80923,-0.918043,-0.0642671,-38.9327,0.280176,
2,1,0,1,0,8604.69,0.290862,0.290551,15.1416,7,0.0197314,10,0.00439939,-1.81983,-0.998859,-0.0590674,-34.8783,0.290551,
2,1,0,0,0,8604.71,0.300012,0.299708,14.8524,7,0.0200746,10,0.0044514,-1.8282,0.000496932,118.728,55066.3,0.299708,
2,0,0,1,0,8604.74,0.290704,0.290455,-0.494759,7,0.0202008,10,-0.000143705,-3.30561,0.851815,0.0692639,825.038,0.2904551,
2,0,0,1,0,8604.76,0.280305,0.280009,-5.36754,7,0.0201121,10,-0.00150296,-2.27022,-0.0457474,-1.28969,261.646,0.280009,
2,0,0,1,0,8604.79,0.269909,0.269574,-7.19645,7,0.0199456,10,-0.00193997,-2.14288,-0.13619,-0.433219,120.89,0.269574,
2,0,0,1,0,8604.81,0.2595,0.259219,-8.19636,7,0.0197445,10,-0.00212465,-2.08638,-0.233209,-0.252992,80.7963,0.259219,
2,0,0,1,0,8604.84,0.249104,0.248829,-8.92723,7,0.0195215,10,-0.00222135,-2.04928,-0.33658,-0.175292,60.9802,0.248829,
2,0,0,1,0,8604.87,0.238705,0.238392,-9.55581,7,0.019281,10,-0.00227803,-2.01973,-0.380139,-0.155206,57.8739,0.238392,
2,0,0,1,0,8604.89,0.22831,0.227992,-10.1301,7,0.0190249,10,-0.00230959,-1.99438,-0.420604,-0.140275,55.5535,0.227992,
2,0,0,1,0,8604.92,0.2179,0.217622,-10.7443,7,0.0187535,10,-0.00233819,-1.96882,-0.420017,-0.14047,58.7742,0.217622,
2,0,0,1,0,8604.94,0.207504,0.207172,-11.3608,7,0.0184665,10,-0.00235364,-1.94459,-0.413615,-0.142645,63.3024,0.207172,
2,0,0,1,0,8604.97,0.197106,0.196778,-12.0664,7,0.0181619,10,-0.00237439,-1.91842,-0.364553,-0.161842,76.4073,0.196778,
2,0,0,1,0,8605,0.18671,0.186406,-12.9607,7,0.0178368,10,-0.00241596,-1.88737,-0.303501,-0.194398,98.3615,0.186406,
2,0,0,1,0,8605.02,0.1763,0.175985,-14.1423,7,0.0174852,10,-0.00248883,-1.84948,-0.243839,-0.241963,133.663,0.175985,
2,0,0,1,0,8605.05,0.165905,0.165586,-15.7996,7,0.0170971,10,-0.00261618,-1.80136,-0.194367,-0.30355,187.474,0.165586,
2,0,0,1,0,8605.07,0.155506,0.155159,-18.1687,7,0.0166573,10,-0.00281904,-1.74068,-0.153049,-0.385497,273.873,0.155159,
2,0,0,1,0,8605.1,0.145105,0.144859,-21.4913,7,0.0161435,10,-0.00311322,-1.66774,-0.133052,-0.443436,372.685,0.144859,
2,0,0,1,0,8605.13,0.134701,0.134413,-25.8737,7,0.015529,10,-0.00347777,-1.58714,-0.131325,-0.449266,453.412,0.134413,
2,0,0,1,0,8605.15,0.124305,0.124053,-30.7208,7,0.0147929,10,-0.003811,-1.51257,-0.151549,-0.389314,466.545,0.124053,
2,0,0,1,0,8605.18,0.113906,0.11366,-35.5006,7,0.0139308,10,-0.00403499,-1.44976,-0.188676,-0.312705,432.507,0.1136599,
2,0,0,1,0,8605.2,0.103505,0.103248,-39.5419,7,0.012953,10,-0.00408261,-1.40294,-0.263605,-0.22382,344.895,0.103248,
2,0,0,1,0,8605.23,0.0931008,0.0928441,-42.5467,7,0.0118825,10,-0.00395021,-1.37113,-0.442837,-0.133232,220.931,0.0928441,
2,0,0,1,0,8605.26,0.0827051,0.0824012,-44.0714,7,0.0107527,10,-0.00363154,-1.35584,-1.58101,-0.0373178,64.0383,0.0824012,
2,0,0,1,0,8605.28,0.0723065,0.0719668,-43.8335,7,0.00960631,10,-0.00315456,-1.35819,0.947194,0.0622892,-106.338,0.0719668,
2,0,0,1,0,8605.31,0.0618996,0.0615738,-42.0441,7,0.00848759,10,-0.00258881,-1.37629,0.444342,0.132781,-217.811,0.0615738,
2,0,0,1,0,8605.33,0.0515011,0.051167,-39.7108,7,0.00742497,10,-0.00203188,-1.40109,0.411447,0.143396,-222.172,0.051167,
2,0,0,1,0,8605.36,0.0411053,0.0407612,-37.452,7,0.00642262,10,-0.00152659,-1.42653,0.404387,0.1459,-213.167,0.0407612,
2,0,0,1,0,8605.39,0.0307068,0.0303819,-35.1844,7,0.00547812,10,-0.00106897,-1.45365,0.354095,0.166622,-228.797,0.0303819,
2,0,0,1,0,8605.41,0.0202999,0.0200345,-32.6148,7,0.00459586,10,-0.000653421,-1.48658,0.276373,0.21348,-271.539,0.0200345,
2,0,0,1,0,8605.44,0.00990136,0.00956084,-29.7154,7,0.00378577,10,-0.000284104,-1.52702,0.248356,0.237562,-275.417,0.00956084,
2,0,0,1,0,8605.46,-0.000494411,-0.000865071,-27.1658,7,0.00304855,10,2.35003e-05,-1.56598,0.301013,0.196005,-207.735,-0.000865071,
2,0,0,1,0,8605.49,-0.010893,-0.0112539,-25.3857,7,0.00236779,10,0.000285687,-1.59541,0.464457,0.12703,-126.071,-0.0112539,
2,0,0,1,0,8605.52,-0.0212998,-0.0216437,-24.4733,7,0.00172133,10,0.000529695,-1.61131,1.03741,0.0568722,-54.3889,-0.0216437,
2,0,0,1,0,8605.54,-0.0316984,-0.0320835,-24.1874,7,0.00108996,10,0.000776014,-1.61641,10.3954,0.00567557,-5.35605,-0.0320835,
2,0,0,1,0,8605.57,-0.0420942,-0.0424457,-24.2747,7,0.000460656,10,0.00103036,-1.61485,-2.57057,-0.0229521,21.772,-0.0424457,
2,0,0,1,0,8605.59,-0.0524927,-0.0528335,-24.6426,7,-0.000175068,10,0.00130196,-1.60831,-1.24814,-0.0472705,45.5097,-0.0528335,
2,0,0,1,0,8605.62,-0.0628996,-0.0632,-25.2093,7,-0.000822744,10,0.00159323,-1.59844,-0.967059,-0.0610097,59.9589,-0.0632,
2,0,0,1,0,8605.65,-0.0732982,-0.0736556,-25.8675,7,-0.00148633,10,0.00190529,-1.58725,-0.841319,-0.0701279,70.7855,-0.0736556,
2,0,0,1,0,8605.67,-0.0836939,-0.0840688,-26.6502,7,-0.00216892,10,0.00224045,-1.5743,-0.743973,-0.079304,82.5482,-0.0840688,
2,0,0,1,0,8605.7,-0.0940925,-0.0943993,-27.591,7,-0.00287396,10,0.00260457,-1.55923,-0.648864,-0.0909281,97.9048,-0.0943993,
2,0,0,1,1,8605.72,-0.0978574,-0.0983154,-22.1636,7,-0.00342658,10,0.00217903,-1.65436,-0.0199744,-2.95378,2424.34,-0.09831541,
2,0,0,1,1,8605.74,-0.0874588,-0.08781,-4.07555,7,-0.00374022,10,0.000357874,-2.38981,-0.00462483,-12.7572,1278.3,-0.08781,
2,1,0,1,1,8605.77,-0.0770519,-0.0774731,6.05891,7,-0.00370196,10,-0.000469403,-2.21761,0.016996,3.47142,748.439,-0.0774731,
2,1,0,1,1,8605.8,-0.0666562,-0.0670779,12.2662,7,-0.00345704,10,-0.000822791,-1.91129,0.0598656,0.985541,465.33,-0.0670779,
2,1,0,1,1,8605.82,-0.0562576,-0.0566372,16.1211,7,-0.00308327,10,-0.000913052,-1.79261,0.12832,0.459787,288.114,-0.0566372,
2,1,0,1,1,8605.85,-0.0458563,-0.0462462,18.4686,7,-0.00263074,10,-0.000854105,-1.73357,0.248706,0.237228,170.403,-0.0462462,
2,1,0,1,1,8605.87,-0.0354522,-0.0358108,19.8243,7,-0.00213132,10,-0.000709924,-1.7028,0.474581,0.12432,95.9402,-0.03581078,
2,1,0,1,1,8605.9,-0.0250564,-0.0254273,20.5314,7,-0.00160552,10,-0.000522057,-1.68758,1.09093,0.0540823,43.3212,-0.02542728,
2,1,0,1,1,8605.93,-0.0146579,-0.0150226,20.8295,7,-0.00106707,10,-0.000312913,-1.68132,3.53939,0.0166696,13.539,-0.0150226,
2,1,0,1,1,8605.95,-0.00425653,-0.00464012,20.8433,7,-0.000524865,10,-9.67155e-05,-1.68103,-5.94817,-0.00991901,-8.06608,-0.00464012,
2,1,0,0,1,8605.96,-7.54729e-05,-0.000497109,20.7834,7,-0.000306199,10,-1.03316e-05,-1.68228, , , ,-0.000497109,

File: 20221101_1-115_002_TrumpetPlot_ParaChange_13_CV_C01_7.csv
mode,ox/red,error,control changes,counter inc.,time/s,control/V,Ewe/V,<I>/mA,cycle number,(Q-Qo)/C,I Range,P/W,log(|I|),Tafel slope mV/dec,alpha_eff,dI/d(E-IR),E-IR/V,
2,1,0,0,0,9835.59,2.44065e-05,-0.000439847,14.4098,8,0.0000000E+000,10,-6.3381e-06,-1.84134, , , ,-0.000439847,
2,1,0,1,0,9835.62,0.0100623,0.00970506,16.0869,8,0.000368756,10,0.000156124,-1.79353,0.137087,0.430385,268.668,0.00970506,
2,1,0,1,0,9835.64,0.0204636,0.0201554,18.1917,8,0.00081723,10,0.000366661,-1.74013,0.274053,0.215287,152.629,0.0201554,
2,1,0,1,0,9835.67,0.0308677,0.0305336,19.4759,8,0.00130831,10,0.00059467,-1.7105,0.434433,0.135809,103.11,0.0305336,
2,1,0,1,0,9835.69,0.0412635,0.040986,20.4598,8,0.00182758,10,0.000838567,-1.6891,0.52087,0.113272,90.3515,0.040986,
2,1,0,1,0,9835.72,0.051662,0.0513186,21.4576,8,0.00237239,10,0.00110117,-1.66842,0.464978,0.126888,106.417,0.0513186,
2,1,0,1,0,9835.75,0.0620633,0.0617551,22.7086,8,0.00294635,10,0.00140237,-1.64381,0.386345,0.152713,135.513,0.0617551,
2,1,0,1,0,9835.77,0.0724674,0.0721185,24.2732,8,0.00355687,10,0.00175055,-1.61487,0.353239,0.167026,158.173,0.0721185,
2,1,0,1,0,9835.8,0.0828632,0.0825105,25.9949,8,0.00420979,10,0.00214485,-1.58511,0.334858,0.176194,178.733,0.0825105,
2,1,0,1,0,9835.82,0.0932618,0.0929798,27.9003,8,0.00491076,10,0.00259417,-1.55439,0.348895,0.169105,184.207,0.0929798,
2,1,0,1,0,9835.85,0.103669,0.103343,29.8255,8,0.00566127,10,0.00308226,-1.52541,0.368699,0.160022,186.227,0.103343,
2,1,0,1,0,9835.88,0.114067,0.113765,31.794,8,0.0064622,10,0.00361704,-1.49766,0.369373,0.15973,198.099,0.113765,
2,1,0,1,0,9835.9,0.124463,0.12415,33.9538,8,0.00731639,10,0.00421538,-1.46911,0.349271,0.168923,223.942,0.1241505,
2,1,0,1,0,9835.93,0.134861,0.134516,36.5089,8,0.00823199,10,0.00491103,-1.4376,0.30989,0.19039,271.618,0.134516,
2,1,0,1,0,9835.95,0.145268,0.144901,39.4771,8,0.00921971,10,0.00572026,-1.40365,0.314274,0.187734,289.04,0.144901,
2,1,0,1,0,9835.98,0.155667,0.155335,42.4341,8,0.010285,10,0.0065915,-1.37228,0.356235,0.165621,274.1,0.1553349,
2,1,0,1,0,9836.01,0.166063,0.165744,45.046,8,0.0114238,10,0.00746609,-1.34634,0.471206,0.125211,220.027,0.165744,
2,1,0,1,0,9836.03,0.176461,0.176127,46.7349,8,0.0126206,10,0.0082313,-1.33036,1.45928,0.0404309,73.5537,0.176127,
2,1,0,1,0,9836.06,0.186868,0.186577,45.9723,8,0.013833,10,0.00857736,-1.3375,-0.407917,-0.144637,-258.221,0.1865766,
2,1,0,1,0,9836.08,0.197267,0.196973,41.1184,8,0.0149738,10,0.0080992,-1.38596,-0.144281,-0.408924,-653.095,0.196973,
2,1,0,1,0,9836.11,0.207662,0.207366,33.2126,8,0.0159423,10,0.00688717,-1.4787,-0.096392,-0.612084,-792.154,0.2073659,
2,1,0,1,0,9836.14,0.218061,0.217781,25.6927,8,0.0167029,10,0.00559539,-1.59019,-0.0983405,-0.599956,-603.925,0.2177812,
2,1,0,1,0,9836.16,0.228468,0.22815,20.8344,8,0.0173012,10,0.00475337,-1.68122,-0.141349,-0.417407,-340.658,0.22815,
2,1,0,1,0,9836.19,0.238866,0.238566,18.2652,8,0.0178053,10,0.00435747,-1.73837,-0.246875,-0.238987,-170.788,0.238566,
2,1,0,1,0,9836.21,0.249262,0.248907,16.95,8,0.0182613,10,0.00421898,-1.77083,-0.413152,-0.142805,-94.6316,0.248907,
2,1,0,1,0,9836.24,0.259661,0.259349,16.1858,8,0.0186914,10,0.00419777,-1.79087,-0.62982,-0.0936776,-59.2327,0.259349,
2,1,0,1,0,9836.27,0.270068,0.26977,15.6661,8,0.0191051,10,0.00422623,-1.80504,-0.83316,-0.0708148,-43.3127,0.26977,
2,1,0,1,0,9836.29,0.280466,0.280189,15.2674,8,0.0195069,10,0.00427776,-1.81624,-0.93629,-0.0630147,-37.5116,0.280189,
2,1,0,1,0,9836.32,0.290862,0.290599,14.9088,8,0.019899,10,0.0043325,-1.82656,-1.01591,-0.058076,-33.7843,0.290599,
2,1,0,0,0,9836.34,0.300012,0.299766,14.6368,8,0.0202373,10,0.00438762,-1.83455,0.000160022,368.7,167377,0.299766,
2,0,0,1,0,9836.36,0.290704,0.290432,-0.977895,8,0.0203554,10,-0.000284012,-3.00971,-0.0461054,-1.27968,852.898,0.290432,
2,0,0,1,0,9836.39,0.280305,0.280005,-5.97757,8,0.0202522,10,-0.00167375,-2.22348,-0.050349,-1.17182,265.771,0.2800048,
2,0,0,1,0,9836.42,0.269909,0.269608,-7.801,8,0.0200696,10,-0.00210321,-2.10785,-0.149762,-0.393958,119.402,0.269608,
2,0,0,1,0,9836.44,0.2595,0.259226,-8.76914,8,0.0198532,10,-0.00227319,-2.05704,-0.265675,-0.222076,75.7699,0.259226,
2,0,0,1,0,9836.47,0.249104,0.248816,-9.44394,8,0.0196161,10,-0.0023498,-2.02485,-0.394547,-0.149539,55.0177,0.2488161,
2,0,0,1,0,9836.49,0.238705,0.238393,-10.0222,8,0.0193629,10,-0.00238922,-1.99904,-0.433191,-0.136198,53.3142,0.238393,
2,0,0,1,0,9836.52,0.22831,0.227997,-10.5589,8,0.0190953,10,-0.0024074,-1.97638,-0.45891,-0.128565,53.0184,0.227997,
2,0,0,1,0,9836.55,0.2179,0.217592,-11.1249,8,0.0188135,10,-0.00242069,-1.9537,-0.4743,-0.124394,53.8867,0.217592,
2,0,0,1,0,9836.57,0.207504,0.20725,-11.688,8,0.018517,10,-0.00242234,-1.93226,-0.469621,-0.125633,57.4278,0.2072503,
2,0,0,1,0,9836.6,0.197106,0.196801,-12.371,8,0.0182042,10,-0.00243462,-1.9076,-0.382931,-0.154075,74.5083,0.196801,
2,0,0,1,0,9836.62,0.18671,0.186413,-13.2199,8,0.0178719,10,-0.00246436,-1.87877,-0.330804,-0.178354,91.9853,0.1864133,
2,0,0,1,0,9836.65,0.1763,0.175988,-14.3212,8,0.0175146,10,-0.00252036,-1.84402,-0.262674,-0.224613,125.727,0.175988,
2,0,0,1,0,9836.68,0.165905,0.165628,-15.8862,8,0.0171229,10,-0.0026312,-1.79898,-0.201116,-0.293363,182.225,0.165628,
2,0,0,1,0,9836.7,0.155506,0.155177,-18.156,8,0.0166819,10,-0.0028174,-1.74098,-0.160345,-0.367957,261.145,0.155177,
2,0,0,1,0,9836.73,0.145105,0.144823,-21.371,8,0.0161701,10,-0.00309502,-1.67017,-0.134199,-0.439647,367.3,0.1448231,
2,0,0,1,0,9836.75,0.134701,0.134427,-25.6642,8,0.0155602,10,-0.00344996,-1.59067,-0.13103,-0.450277,450.961,0.134427,
2,0,0,1,0,9836.78,0.124305,0.124069,-30.4941,8,0.0148294,10,-0.00378337,-1.51578,-0.148065,-0.398473,474.71,0.124069,
2,0,0,1,0,9836.81,0.113906,0.113631,-35.4079,8,0.0139711,10,-0.00402345,-1.4509,-0.185425,-0.318187,438.857,0.113631,
2,0,0,1,0,9836.83,0.103505,0.103242,-39.5418,8,0.0129947,10,-0.00408239,-1.40294,-0.257062,-0.229516,353.707,0.103242,
2,0,0,1,0,9836.86,0.0931008,0.0928261,-42.6835,8,0.0119225,10,-0.00396215,-1.36974,-0.418779,-0.140886,234.318,0.0928261,
2,0,0,1,0,9836.88,0.0827051,0.0823726,-44.369,8,0.0107873,10,-0.00365479,-1.35292,-1.24769,-0.0472875,81.692,0.0823726,
2,0,0,1,0,9836.91,0.0723065,0.0719573,-44.3547,8,0.00963021,10,-0.00319164,-1.35306,1.2683,0.0465189,-80.3909,0.0719573,
2,0,0,1,0,9836.94,0.0618996,0.0615801,-42.8163,8,0.00849446,10,-0.00263663,-1.36839,0.500991,0.117767,-196.642,0.06158014,
2,0,0,1,0,9836.96,0.0515011,0.0511606,-40.5569,8,0.00741042,10,-0.00207491,-1.39194,0.42498,0.13883,-219.61,0.0511606,
2,0,0,1,0,9836.99,0.0411053,0.0407888,-38.2746,8,0.00638622,10,-0.00156117,-1.41709,0.405172,0.145617,-217.527,0.0407888,
2,0,0,1,0,9837.01,0.0307068,0.030366,-36.0414,8,0.00541994,10,-0.00109443,-1.4432,0.377911,0.156121,-219.653,0.03036602,
2,0,0,1,0,9837.04,0.0202999,0.0199762,-33.6017,8,0.00451402,10,-0.000671234,-1.47364,0.302609,0.194971,-255.315,0.0199762,
2,0,0,1,0,9837.07,0.00990136,0.00963295,-30.7391,8,0.00367748,10,-0.000296108,-1.51231,0.250362,0.235659,-282.592,0.00963295,
2,0,0,1,0,9837.09,-0.000494411,-0.000867191,-28.0045,8,0.00291535,10,2.42853e-05,-1.55277,0.277579,0.212552,-232.318,-0.000867191,
2,0,0,1,0,9837.12,-0.010893,-0.0112708,-25.9527,8,0.00221622,10,0.000292509,-1.58582,0.40531,0.145568,-147.666,-0.0112708,
2,0,0,1,0,9837.14,-0.0212998,-0.0216384,-24.8124,8,0.00155816,10,0.000536902,-1.60533,0.823607,0.0716361,-69.4496,-0.0216384,
2,0,0,1,0,9837.17,-0.0316984,-0.0320421,-24.3841,8,0.000919765,10,0.000781318,-1.61289,3.70522,0.0159235,-15.1681,-0.0320421,
2,0,0,1,0,9837.2,-0.0420942,-0.0424585,-24.4315,8,0.000285746,10,0.00103733,-1.61205,-2.70713,-0.0217943,20.8139,-0.0424585,
2,0,0,1,0,9837.22,-0.0524927,-0.0528335,-24.7982,8,-0.000354011,10,0.00131018,-1.60558,-1.2722,-0.0463762,44.9056,-0.0528335,
2,0,0,1,0,9837.25,-0.0628996,-0.0632425,-25.3709,8,-0.00100578,10,0.00160452,-1.59566,-0.950951,-0.0620432,61.3933,-0.0632425,
2,0,0,1,0,9837.27,-0.0732982,-0.0736366,-26.0443,8,-0.00167389,10,0.00191781,-1.58429,-0.816295,-0.0722778,73.5344,-0.0736366,
2,0,0,1,0,9837.3,-0.0836939,-0.0840699,-26.8861,8,-0.00236187,10,0.00226031,-1.57047,-0.720024,-0.0819417,85.965,-0.0840699,
2,0,0,1,0,9837.33,-0.0940925,-0.0944152,-27.8426,8,-0.00307304,10,0.00262877,-1.55529,-0.642966,-0.0917622,99.7008,-0.09441524,
2,0,0,1,1,9837.35,-0.0978574,-0.0982857,-22.3196,8,-0.00363055,10,0.0021937,-1.65131,-0.0196728,-2.99906,2477.78,-0.0982857,
2,0,0,1,1,9837.37,-0.0874588,-0.0878853,-3.92845,8,-0.00394394,10,0.000345253,-2.40578,-0.00375746,-15.7021,1282.09,-0.0878853,
2,1,0,1,1,9837.4,-0.077052,-0.0774816,6.40629,8,-0.00389918,10,-0.00049637,-2.19339,0.0176598,3.34093,767.215,-0.07748159,
2,1,0,1,1,9837.42,-0.0666562,-0.0671225,12.8026,8,-0.00364254,10,-0.000859343,-1.8927,0.0607454,0.971267,478.966,-0.0671225,
2,1,0,1,1,9837.45,-0.0562576,-0.0566425,16.8025,8,-0.00325285,10,-0.000951734,-1.77463,0.129316,0.456245,297.75,-0.0566425,
2,1,0,1,1,9837.48,-0.0458563,-0.0462367,19.2268,8,-0.00278158,10,-0.000888985,-1.71609,0.250565,0.235468,176.107,-0.0462367,
2,1,0,1,1,9837.5,-0.0354522,-0.0358076,20.6365,8,-0.00226167,10,-0.000738943,-1.68536,0.477833,0.123474,99.2259,-0.0358076,
2,1,0,1,1,9837.53,-0.0250564,-0.0253923,21.3518,8,-0.00171453,10,-0.000542172,-1.67056,1.08159,0.0545494,45.4398,-0.0253923,
2,1,0,1,1,9837.55,-0.0146579,-0.0150204,21.6333,8,-0.00115481,10,-0.000324942,-1.66488,4.05474,0.0145509,12.2757,-0.0150204,
2,1,0,1,1,9837.58,-0.00425653,-0.00463694,21.6134,8,-0.000591991,10,-0.00010022,-1.66528,-4.54895,-0.01297,-10.9422,-0.00463694,
2,1,0,0,1,9837.59,-7.54729e-05,-0.000439847,21.546,8,-0.000365229,10,-9.47697e-06,-1.66663, , , ,-0.000439847,