Folder: Figs_alphaMnO2_OER_Tafel_sleope/Figure_codes/Fig_3-5/rawdata_trumpetplot_data/before 10th (part 4)

File: 20221101_1-115_002_TrumpetPlot_ParaChange_04_CV_C01_3.csv
mode,ox/red,error,control changes,counter inc.,time/s,control/V,Ewe/V,<I>/mA,cycle number,(Q-Qo)/C,I Range,P/W,log(|I|),Tafel slope mV/dec,alpha_eff,dI/d(E-IR),E-IR/V,
2,0,0,1,0,4053.69,2.44065e-05,-0.000382585,-0.369723,4,0.0000000E+000,11,1.41451e-07,-3.43212, , , ,-0.000382585,
2,0,0,1,0,4060.95,0.00729061,0.00701479,-0.0934033,4,-0.000829291,11,-6.55205e-07,-4.02964,-0.0346694,-1.70179,6.3232,0.00701479,
2,0,0,1,0,4068.44,0.0147815,0.0144598,-0.061801,4,-0.00125034,11,-8.93633e-07,-4.209,-0.0484693,-1.21727,2.9359,0.0144598,
2,0,0,1,0,4075.93,0.0222725,0.0220015,-0.0441665,4,-0.0014964,11,-9.71727e-07,-4.35491,-0.0583276,-1.01153,1.75407,0.0220015,
2,0,0,1,0,4083.43,0.0297635,0.0294923,-0.0313538,4,-0.00163319,11,-9.24693e-07,-4.50371,-0.0497109,-1.18686,1.46089,0.0294923,
2,0,0,1,0,4090.92,0.0372544,0.0369543,-0.0217996,4,-0.00168689,11,-8.0559e-07,-4.66155,-0.0450697,-1.30908,1.11736,0.0369543,
2,0,0,1,0,4098.41,0.0447454,0.0444387,-0.0123254,4,-0.00166844,11,-5.47724e-07,-4.9092,-0.0216458,-2.7257,1.31196,0.0444387,
2,0,0,1,0,4105.9,0.0522363,0.0519612,-0.00307499,4,-0.00157885,11,-1.5978e-07,-5.51216,-0.00228429,-25.8286,1.49706,0.0519612,
2,1,0,1,0,4113.39,0.0597273,0.0594265,0.0074397,4,-0.00141428,11,4.42116e-07,-5.12844,0.014248,4.14095,1.13812,0.0594265,
2,1,0,1,0,4120.88,0.0672183,0.0669395,0.0180569,4,-0.00116944,11,1.20872e-06,-4.74336,0.0292293,2.01852,1.39018,0.0669395,
2,1,0,1,0,4128.37,0.0747092,0.074426,0.0290006,4,-0.000842618,11,2.1584e-06,-4.53759,0.0420989,1.40146,1.5879,0.074426,
2,1,0,1,0,4135.86,0.0822001,0.0818826,0.0379991,4,-0.000436749,11,3.11147e-06,-4.42023,0.0679288,0.868557,1.30706,0.0818826,
2,1,0,1,0,4143.35,0.0896911,0.0894095,0.0474851,4,4.11327e-05,11,4.24562e-06,-4.32344,0.084166,0.700996,1.33603,0.0894095,
2,1,0,1,0,4150.84,0.0971821,0.0969056,0.0576113,4,0.000589073,11,5.58285e-06,-4.23949,0.0795188,0.741963,1.65384,0.0969056,
2,1,0,1,0,4158.34,0.104673,0.104391,0.0700703,4,0.00121377,11,7.31469e-06,-4.15447,0.0830192,0.710679,1.90753,0.104391,
2,1,0,1,0,4165.83,0.112164,0.111879,0.0852937,4,0.00194184,11,9.54261e-06,-4.06908,0.085006,0.694068,2.29515,0.111879,
2,1,0,1,0,4173.32,0.119655,0.119392,0.107835,4,0.00281402,11,1.28746e-05,-3.96724,0.08021,0.735569,3.08048,0.119392,
2,1,0,1,0,4180.81,0.127146,0.126875,0.129381,4,0.00386431,11,1.64151e-05,-3.88813,0.099664,0.591989,3.03206,0.126875,
2,1,0,1,0,4188.3,0.134637,0.134316,0.15067,4,0.00508527,11,2.02374e-05,-3.82197,0.198068,0.297877,1.75545,0.134316,
2,1,0,1,0,4195.79,0.142128,0.14182,0.157374,4,0.00641161,11,2.23187e-05,-3.80307,-0.857196,-0.0688291,-0.421393,0.14182,
2,1,0,1,0,4203.28,0.149619,0.149321,0.143187,4,0.00770903,11,2.13809e-05,-3.8441,-0.098567,-0.598577,-3.32489,0.149321,
2,1,0,1,0,4210.77,0.15711,0.156829,0.111305,4,0.00882356,11,1.74559e-05,-3.95349,-0.0559823,-1.0539,-4.56227,0.156829,
2,1,0,1,0,4218.26,0.164601,0.164317,0.0832867,4,0.00969968,11,1.36854e-05,-4.07942,-0.0646413,-0.912729,-2.96909,0.164317,
2,1,0,1,0,4225.75,0.172091,0.171799,0.0653448,4,0.0104033,11,1.12262e-05,-4.18479,-0.088183,-0.669063,-1.72332,0.171799,
2,1,0,1,0,4233.24,0.179582,0.179346,0.0566706,4,0.0110074,11,1.01636e-05,-4.24664,-0.126306,-0.46712,-1.02874,0.179346,
2,1,0,1,0,4240.74,0.187073,0.1868,0.0511982,4,0.0115555,11,9.56385e-06,-4.29075,-0.165011,-0.357551,-0.715323,0.1868,
2,1,0,1,0,4248.23,0.194564,0.194253,0.0474197,4,0.0120707,11,9.21141e-06,-4.32404,-0.331793,-0.177822,-0.333881,0.194253,
2,1,0,1,0,4255.72,0.202055,0.201767,0.0462966,4,0.012567,11,9.34112e-06,-4.33445,-0.479806,-0.122966,-0.221816,0.201767,
2,1,0,1,0,4263.21,0.209546,0.209311,0.0455375,4,0.0130523,11,9.53147e-06,-4.34163,0.60741,0.0971337,0.172102,0.209311,
2,1,0,1,0,4270.7,0.217037,0.216775,0.0452824,4,0.0135321,11,9.81609e-06,-4.34407,8.67773,0.00679901,0.0120192,0.2167749,
2,1,0,1,0,4278.19,0.224528,0.224221,0.0449878,4,0.0140103,11,1.00872e-05,-4.3469,1.11262,0.0530278,0.0940181,0.224221,
2,1,0,1,0,4285.68,0.232019,0.231727,0.045494,4,0.01449,11,1.05422e-05,-4.34205,3.65857,0.0161265,0.028775,0.231727,
2,1,0,1,0,4293.17,0.23951,0.239193,0.0462075,4,0.0149715,11,1.10525e-05,-4.33529,-1.90032,-0.0310473,-0.0563465,0.239193,
2,1,0,1,0,4300.66,0.247001,0.246721,0.0465615,4,0.0154565,11,1.14877e-05,-4.33197,2.73184,0.0215971,0.0397486,0.246721,
2,1,0,1,0,4308.15,0.254492,0.254213,0.0477561,4,0.0159451,11,1.21402e-05,-4.32097,1.24771,0.0472865,0.0882071,0.254213,
2,1,0,1,0,4315.65,0.261983,0.261675,0.0485057,4,0.0164379,11,1.26927e-05,-4.31421,2.05699,0.0286827,0.0541404,0.261675,
2,1,0,1,0,4323.14,0.269474,0.269187,0.0491683,4,0.016935,11,1.32354e-05,-4.30831,0.852809,0.0691831,0.132445,0.269187,
2,1,0,1,0,4330.63,0.276965,0.276678,0.0494479,4,0.0174374,11,1.36811e-05,-4.30585,1.4236,0.0414444,0.0806451,0.276678,
2,1,0,1,0,4338.12,0.284456,0.284184,0.0501786,4,0.0179439,11,1.426e-05,-4.29948,0.415005,0.142167,0.2801,0.284184,
2,1,0,1,0,4345.61,0.291947,0.291625,0.0513108,4,0.0184554,11,1.49635e-05,-4.28979,34.8305,0.00169392,0.00339971,0.291625,
2,1,0,1,0,4353.1,0.299438,0.299159,0.0519555,4,0.018971,11,1.5543e-05,-4.28437,-0.00605214,-9.74863,-14.2679,0.299159,
2,1,0,1,0,4359.94,0.293745,0.293438,0.011363,4,0.0190222,11,3.33435e-06,-4.94451,0.0171463,3.44097,1.57015,0.293438,
2,1,0,1,0,4367.43,0.286254,0.285953,0.00348495,4,0.018949,11,9.96529e-07,-5.4578,0.0084747,6.9619,0.901066,0.285953,
2,1,0,1,0,4374.92,0.278763,0.278466,-0.00232225,4,0.0188238,11,-6.46667e-07,-5.63409,-0.00514754,-11.4618,0.841145,0.278466,
2,1,0,1,0,4382.41,0.271272,0.270985,-0.00688405,4,0.0186588,11,-1.86547e-06,-5.16216,-0.0350657,-1.68256,0.45431,0.270985,
2,0,0,1,0,4389.91,0.263781,0.26349,-0.0108565,4,0.0184605,11,-2.86058e-06,-4.96431,-0.0527341,-1.11882,0.485583,0.26349,
2,0,0,1,0,4397.4,0.25629,0.256031,-0.0151296,4,0.0182327,11,-3.87366e-06,-4.82017,-0.0643603,-0.916715,0.521537,0.256031,
2,0,0,1,0,4404.89,0.248799,0.24846,-0.0184855,4,0.0179774,11,-4.59291e-06,-4.73317,-0.102481,-0.575718,0.411709,0.24846,
2,0,0,1,0,4412.38,0.241308,0.241011,-0.0216172,4,0.017696,11,-5.20998e-06,-4.6652,-0.124002,-0.475799,0.398104,0.241011,
2,0,0,1,0,4419.87,0.233817,0.233525,-0.0247005,4,0.0173892,11,-5.76818e-06,-4.60729,-0.146022,-0.40405,0.397877,0.233525,
2,0,0,1,0,4427.36,0.226326,0.226051,-0.0276626,4,0.0170563,11,-6.25318e-06,-4.55811,-0.161251,-0.365889,0.400413,0.226051,
2,0,0,1,0,4434.85,0.218835,0.218541,-0.0318589,4,0.0166974,11,-6.9625e-06,-4.49677,-0.215796,-0.273406,0.333379,0.2185415,
2,0,0,1,0,4442.34,0.211344,0.211025,-0.0349813,4,0.0163116,11,-7.38195e-06,-4.45616,-0.161952,-0.364304,0.496583,0.211025,
2,0,0,1,0,4449.83,0.203853,0.203541,-0.0391026,4,0.0158954,11,-7.95899e-06,-4.40779,-0.148971,-0.396049,0.605229,0.203541,
2,0,0,1,0,4457.32,0.196362,0.196076,-0.0436825,4,0.0154461,11,-8.56509e-06,-4.35969,-0.119309,-0.494515,0.844748,0.196076,
2,0,0,1,0,4464.82,0.188871,0.188558,-0.0498666,4,0.0149561,11,-9.40278e-06,-4.30219,-0.113589,-0.519417,1.00277,0.188558,
2,0,0,1,0,4472.31,0.18138,0.18111,-0.0570387,4,0.0144154,11,-1.03303e-05,-4.24383,-0.134704,-0.437999,0.971548,0.18111,
2,0,0,1,0,4479.8,0.173889,0.173585,-0.067268,4,0.0138067,11,-1.16767e-05,-4.17219,-0.0870844,-0.677504,1.78544,0.173585,
2,0,0,1,0,4487.29,0.166398,0.166127,-0.0837556,4,0.0130987,11,-1.3914e-05,-4.07699,-0.0763772,-0.772482,2.52436,0.166127,
2,0,0,1,0,4494.78,0.158907,0.158658,-0.108579,4,0.012237,11,-1.7227e-05,-3.96425,-0.060498,-0.975239,4.1379,0.158658,
2,0,0,1,0,4502.27,0.151417,0.151091,-0.143956,4,0.0111414,11,-2.17505e-05,-3.84177,-0.0705536,-0.836243,4.70169,0.1510912,
2,0,0,1,0,4509.76,0.143926,0.143655,-0.178222,4,0.00977343,11,-2.56024e-05,-3.74904,-0.0952986,-0.619107,4.27848,0.143655,
2,0,0,1,0,4517.25,0.136435,0.136122,-0.197399,4,0.00820156,11,-2.68705e-05,-3.70465,-0.449996,-0.131112,1.00001,0.136122,
2,0,0,1,0,4524.74,0.128944,0.128625,-0.196449,4,0.00656636,11,-2.52683e-05,-3.70675,0.345509,0.170763,-1.30342,0.128625,
2,0,0,1,0,4532.23,0.121453,0.121162,-0.183453,4,0.00498751,11,-2.22275e-05,-3.73648,0.198657,0.296995,-2.12177,0.121162,
2,0,0,1,0,4539.72,0.113962,0.11364,-0.165301,4,0.00352547,11,-1.87847e-05,-3.78173,0.180765,0.326392,-2.11826,0.11364,
2,0,0,1,0,4547.22,0.106471,0.106165,-0.151652,4,0.00218431,11,-1.61001e-05,-3.81915,0.246183,0.239659,-1.42619,0.106165,
2,0,0,1,0,4554.71,0.0989798,0.0986911,-0.141938,4,0.000933321,11,-1.4008e-05,-3.8479,0.34703,0.170014,-0.944335,0.0986911,
2,0,0,1,0,4562.2,0.0914889,0.091174,-0.135681,4,-0.000256614,11,-1.23706e-05,-3.86748,0.447221,0.131926,-0.698336,0.091174,
2,0,0,1,0,4569.69,0.083998,0.0836737,-0.12984,4,-0.00139952,11,-1.08642e-05,-3.88659,0.294458,0.200368,-1.0154,0.0836737,
2,0,0,1,0,4577.18,0.076507,0.0761798,-0.124383,4,-0.00249761,11,-9.47545e-06,-3.90524,0.297983,0.197998,-0.954514,0.0761798,
2,0,0,1,0,4584.67,0.069016,0.068688,-0.117516,4,-0.00354775,11,-8.07192e-06,-3.9299,0.306933,0.192224,-0.881252,0.068688,
2,0,0,1,0,4592.16,0.0615251,0.0612207,-0.111413,4,-0.00454944,11,-6.82081e-06,-3.95306,0.266459,0.221423,-0.95935,0.0612207,
2,0,0,1,0,4599.65,0.0540342,0.053747,-0.106422,4,-0.0055063,11,-5.71987e-06,-3.97297,0.488007,0.1209,-0.498562,0.053747,
2,0,0,1,0,4607.14,0.0465432,0.0462605,-0.10229,4,-0.00642945,11,-4.73199e-06,-3.99017,0.603758,0.0977213,-0.390242,0.04626048,
2,0,0,1,0,4614.63,0.0390522,0.0387326,-0.100695,4,-0.00733196,11,-3.90018e-06,-3.99699,1.57774,0.0373953,-0.146261,0.0387326,
2,0,0,1,0,4622.13,0.0315613,0.0312144,-0.100201,4,-0.00822661,11,-3.1277e-06,-3.99913,6.55564,0.00899988,-0.0351907,0.0312144,
2,0,0,1,0,4629.62,0.0240703,0.0237788,-0.101059,4,-0.00912346,11,-2.40307e-06,-3.99542,-1.56323,-0.0377424,0.148877,0.0237788,
2,0,0,1,0,4637.11,0.0165794,0.0162998,-0.102917,4,-0.0100319,11,-1.67752e-06,-3.98751,-0.504234,-0.117009,0.470303,0.0162998,
2,0,0,1,0,4644.6,0.00908843,0.00880052,-0.106013,4,-0.0109604,11,-9.32972e-07,-3.97464,-0.46389,-0.127185,0.527165,0.00880052,
2,0,0,1,0,4652.09,0.00159744,0.00129278,-0.11085,4,-0.0119193,11,-1.43305e-07,-3.95526, , , ,0.00129278,
2,0,0,1,0,4653.49,0.000199235,-0.000159223,-0.11183,4,-0.0121018,11,1.78058e-08,-3.95144, , , ,-0.0001592226,

File: 20221101_1-115_002_TrumpetPlot_ParaChange_04_CV_C01_4.csv
mode,ox/red,error,control changes,counter inc.,time/s,control/V,Ewe/V,<I>/mA,cycle number,(Q-Qo)/C,I Range,P/W,log(|I|),Tafel slope mV/dec,alpha_eff,dI/d(E-IR),E-IR/V,
2,0,0,1,0,5285.31,2.44065e-05,-0.0002108,-0.398559,5,0.0000000E+000,11,8.4016e-08,-3.39951, , , ,-0.0002108,
2,0,0,1,0,5292.58,0.00729061,0.00698302,-0.0924677,5,-0.000837349,11,-6.45703e-07,-4.03401,-0.0338029,-1.74541,6.39372,0.00698302,
2,0,0,1,0,5300.07,0.0147815,0.014463,-0.0604754,5,-0.00126187,11,-8.74658e-07,-4.21842,-0.0474451,-1.24354,2.94146,0.014463,
2,0,0,1,0,5307.56,0.0222725,0.0219973,-0.0429103,5,-0.00151062,11,-9.4391e-07,-4.36744,-0.0492355,-1.19832,2.0039,0.0219973,
2,0,0,1,0,5315.05,0.0297635,0.0294732,-0.0301079,5,-0.0016478,11,-8.87376e-07,-4.52132,-0.0462449,-1.27582,1.48801,0.0294732,
2,0,0,1,0,5322.54,0.0372544,0.0369808,-0.0197686,5,-0.00169959,11,-7.31059e-07,-4.70402,-0.0357428,-1.65068,1.26579,0.0369808,
2,0,0,1,0,5330.04,0.0447454,0.044462,-0.00961127,5,-0.00167544,11,-4.27337e-07,-5.01722,-0.0160203,-3.68282,1.35877,0.044462,
2,0,0,1,0,5337.53,0.0522363,0.0518976,0.000631985,5,-0.00157619,11,3.27985e-08,-6.19929,0.0421624,1.39935,1.45595,0.05189757,
2,1,0,1,0,5345.02,0.0597273,0.0594446,0.0113761,5,-0.00139728,11,6.76247e-07,-4.94401,0.0155415,3.79628,1.62037,0.0594446,
2,1,0,1,0,5352.51,0.0672183,0.0669533,0.0227826,5,-0.00113527,11,1.52537e-06,-4.6424,0.0358389,1.64626,1.38964,0.0669533,
2,1,0,1,0,5360,0.0747092,0.0744228,0.0330967,5,-0.000790748,11,2.46315e-06,-4.48022,0.0542898,1.08676,1.40204,0.0744228,
2,1,0,1,0,5367.49,0.0822001,0.0818922,0.0421292,5,-0.000369196,11,3.45005e-06,-4.37542,0.0878517,0.671586,1.10952,0.0818922,
2,1,0,1,0,5374.98,0.0896911,0.0894074,0.0513457,5,0.000121347,11,4.59068e-06,-4.2895,0.0802847,0.734885,1.48414,0.0894074,
2,1,0,1,0,5382.47,0.0971821,0.0969067,0.0609484,5,0.000680008,11,5.90631e-06,-4.21504,0.0807324,0.73081,1.72289,0.0969067,
2,1,0,1,0,5389.96,0.104673,0.104396,0.0733463,5,0.00131601,11,7.65707e-06,-4.13462,0.0997784,0.59131,1.67476,0.104396,
2,1,0,1,0,5397.45,0.112164,0.111907,0.0886418,5,0.00205732,11,9.91963e-06,-4.05236,0.105127,0.561228,1.94213,0.111907,
2,1,0,1,0,5404.95,0.119655,0.119348,0.110169,5,0.00294117,11,1.31484e-05,-3.95794,0.0859761,0.686237,2.93941,0.119348,
2,1,0,1,0,5412.44,0.127146,0.126828,0.130525,5,0.00398837,11,1.65542e-05,-3.88431,0.104262,0.56588,2.90519,0.126828,
2,1,0,1,0,5419.93,0.134637,0.134298,0.148108,5,0.00518659,11,1.98905e-05,-3.82942,0.212524,0.277615,1.61576,0.134298,
2,1,0,1,0,5427.42,0.142128,0.141806,0.153773,5,0.00647259,11,2.18059e-05,-3.81312,-0.68878,-0.0856586,-0.508494,0.1418062,
2,1,0,1,0,5434.91,0.149619,0.149321,0.136896,5,0.00771643,11,2.04416e-05,-3.86361,-0.0925749,-0.637322,-3.38433,0.149321,
2,1,0,1,0,5442.4,0.15711,0.156858,0.10566,5,0.00877063,11,1.65737e-05,-3.97609,-0.0537797,-1.09707,-4.53272,0.156858,
2,1,0,1,0,5449.89,0.164601,0.164289,0.0797627,5,0.0095998,11,1.31041e-05,-4.0982,-0.0640208,-0.921576,-2.875,0.164289,
2,1,0,1,0,5457.38,0.172091,0.171782,0.0643882,5,0.0102723,11,1.10607e-05,-4.19119,-0.100601,-0.586478,-1.47705,0.171782,
2,1,0,1,0,5464.87,0.179582,0.179335,0.0559461,5,0.0108556,11,1.00331e-05,-4.25223,-0.209093,-0.282171,-0.617756,0.179335,
2,1,0,1,0,5472.36,0.187073,0.186783,0.0512747,5,0.0113898,11,9.57727e-06,-4.2901,-0.21144,-0.279038,-0.557595,0.186783,
2,1,0,1,0,5479.85,0.194564,0.194261,0.0483615,5,0.0118949,11,9.39478e-06,-4.3155,-0.40858,-0.144403,-0.273158,0.1942614,
2,1,0,1,0,5487.35,0.202055,0.201771,0.046874,5,0.0123837,11,9.45782e-06,-4.32907,-0.496489,-0.118834,-0.217882,0.2017712,
2,1,0,1,0,5494.84,0.209546,0.209248,0.0466398,5,0.0128638,11,9.75929e-06,-4.33124,5.85197,0.0100821,0.0183032,0.209248,
2,1,0,1,0,5502.33,0.217037,0.216689,0.0461254,5,0.0133396,11,9.99486e-06,-4.33606,1.86391,0.0316539,0.0570912,0.216689,
2,1,0,1,0,5509.82,0.224528,0.224213,0.0466592,5,0.0138149,11,1.04616e-05,-4.33106,2.49095,0.0236858,0.0429977,0.224213,
2,1,0,1,0,5517.31,0.232019,0.231754,0.0467553,5,0.0142918,11,1.08357e-05,-4.33017,-2.12232,-0.0277997,-0.0507185,0.231754,
2,1,0,1,0,5524.8,0.23951,0.239237,0.0480187,5,0.0147711,11,1.14879e-05,-4.31859,0.929092,0.0635028,0.117163,0.239237,
2,1,0,1,0,5532.29,0.247001,0.246699,0.0480924,5,0.0152544,11,1.18643e-05,-4.31792,2.05153,0.028759,0.0542365,0.246699,
2,1,0,1,0,5539.78,0.254492,0.254184,0.0483292,5,0.0157413,11,1.22845e-05,-4.31579,0.986393,0.0598139,0.113509,0.254184,
2,1,0,1,0,5547.27,0.261983,0.261717,0.0490617,5,0.0162331,11,1.28403e-05,-4.30926,2.22884,0.0264711,0.0508578,0.261717,
2,1,0,1,0,5554.76,0.269474,0.269147,0.0498278,5,0.0167294,11,1.3411e-05,-4.30253,0.738362,0.0799066,0.155911,0.269147,
2,1,0,1,0,5562.26,0.276965,0.276693,0.0502423,5,0.0172313,11,1.39017e-05,-4.29893,0.608927,0.0968917,0.191634,0.276693,
2,1,0,1,0,5569.75,0.284456,0.284172,0.0515427,5,0.0177376,11,1.4647e-05,-4.28783,4.15917,0.0141855,0.0284079,0.284172,
2,1,0,1,0,5577.24,0.291947,0.291683,0.0521839,5,0.0182489,11,1.52212e-05,-4.28246,1.40426,0.0420151,0.0855418,0.291683,
2,1,0,1,0,5584.73,0.299438,0.299174,0.052783,5,0.0187645,11,1.57913e-05,-4.27751,-0.00604954,-9.7528,-14.2554,0.299174,
2,1,0,1,0,5591.57,0.293745,0.293483,0.0107516,5,0.0188164,11,3.15539e-06,-4.96853,0.017697,3.33391,1.41532,0.293483,
2,0,0,1,0,5599.06,0.286254,0.285963,0.00286434,5,0.018744,11,8.19095e-07,-5.54298,0.00611901,9.64208,0.852826,0.285963,
2,0,0,1,0,5606.55,0.278763,0.278466,-0.00297003,5,0.0186199,11,-8.27053e-07,-5.52724,-0.00882081,-6.68872,0.648345,0.278466,
2,0,0,1,0,5614.04,0.271272,0.27099,-0.00767012,5,0.0184565,11,-2.07853e-06,-5.1152,-0.0310564,-1.89977,0.558901,0.27099,
2,1,0,1,0,5621.53,0.263781,0.263476,-0.0114186,5,0.0182598,11,-3.00852e-06,-4.94239,-0.0594383,-0.992626,0.443204,0.263476,
2,0,0,1,0,5629.03,0.25629,0.256009,-0.0153139,5,0.0180334,11,-3.92049e-06,-4.81491,-0.0789625,-0.74719,0.440802,0.2560088,
2,0,0,1,0,5636.52,0.248799,0.248536,-0.0186951,5,0.0177797,11,-4.6464e-06,-4.72827,-0.157869,-0.373728,0.279754,0.248536,
2,0,0,1,0,5644.01,0.241308,0.241016,-0.0228601,5,0.0175,11,-5.50964e-06,-4.64092,-0.110396,-0.534439,0.466094,0.241016,
2,0,0,1,0,5651.5,0.233817,0.233527,-0.0252419,5,0.0171951,11,-5.89467e-06,-4.59788,-0.121481,-0.485674,0.484779,0.2335272,
2,0,0,1,0,5658.99,0.226326,0.225992,-0.0286708,5,0.0168649,11,-6.47936e-06,-4.54256,-0.165094,-0.357372,0.401104,0.225992,
2,0,0,1,0,5666.48,0.218835,0.218562,-0.0322037,5,0.0165091,11,-7.0385e-06,-4.49209,-0.149488,-0.394681,0.487688,0.218562,
2,0,0,1,0,5673.97,0.211344,0.211034,-0.0354455,5,0.0161269,11,-7.48021e-06,-4.45044,-0.136824,-0.431212,0.597759,0.211034,
2,0,0,1,0,5681.46,0.203853,0.20353,-0.0388614,5,0.0157154,11,-7.90948e-06,-4.41048,-0.167375,-0.352503,0.543106,0.2035304,
2,0,0,1,0,5688.95,0.196362,0.196056,-0.0440266,5,0.0152722,11,-8.63165e-06,-4.35629,-0.153723,-0.383806,0.654701,0.196056,
2,0,0,1,0,5696.44,0.188871,0.188552,-0.0491516,5,0.0147905,11,-9.26763e-06,-4.30846,-0.127861,-0.46144,0.888047,0.188552,
2,0,0,1,0,5703.93,0.18138,0.181118,-0.055963,5,0.0142614,11,-1.01359e-05,-4.2521,-0.124525,-0.473801,1.04595,0.181118,
2,0,0,1,0,5711.43,0.173889,0.173558,-0.0656399,5,0.0136681,11,-1.13923e-05,-4.18283,-0.0962345,-0.613086,1.56953,0.173558,
2,0,0,1,0,5718.92,0.166398,0.16608,-0.0804433,5,0.0129839,11,-1.336e-05,-4.09451,-0.0786201,-0.750445,2.37914,0.16608,
2,0,0,1,0,5726.41,0.158907,0.158621,-0.10345,5,0.0121572,11,-1.64093e-05,-3.98527,-0.0630203,-0.936207,3.80368,0.158621,
2,0,0,1,0,5733.9,0.151417,0.151134,-0.137667,5,0.0111116,11,-2.08062e-05,-3.86117,-0.0640377,-0.921332,4.9625,0.151134,
2,0,0,1,0,5741.39,0.143926,0.143622,-0.171671,5,0.0097999,11,-2.46557e-05,-3.7653,-0.0891374,-0.6619,4.4105,0.1436217,
2,0,0,1,0,5748.88,0.136435,0.136141,-0.192614,5,0.00827661,11,-2.62225e-05,-3.71531,-0.329164,-0.179242,1.33286,0.136141,
2,0,0,1,0,5756.37,0.128944,0.128618,-0.193831,5,0.00666771,11,-2.49301e-05,-3.71258,0.317043,0.186094,-1.4019,0.1286179,
2,0,0,1,0,5763.86,0.121453,0.121144,-0.183304,5,0.0051016,11,-2.22062e-05,-3.73683,0.259998,0.226924,-1.62633,0.121144,
2,0,0,1,0,5771.35,0.113962,0.113663,-0.167337,5,0.00362904,11,-1.902e-05,-3.77641,0.185941,0.317305,-2.08116,0.1136631,
2,0,0,1,0,5778.84,0.106471,0.106181,-0.154105,5,0.00227541,11,-1.6363e-05,-3.81218,0.244782,0.241031,-1.45741,0.106181,
2,0,0,1,0,5786.34,0.0989798,0.0986657,-0.144942,5,0.00101344,11,-1.43008e-05,-3.8388,0.346107,0.170467,-0.958433,0.0986657,
2,0,0,1,0,5793.83,0.0914889,0.0912068,-0.137039,5,-0.000185281,11,-1.24989e-05,-3.86315,0.406398,0.145178,-0.778634,0.0912068,
2,0,0,1,0,5801.32,0.083998,0.0836611,-0.131875,5,-0.00133686,11,-1.10328e-05,-3.87984,0.327011,0.180422,-0.925792,0.0836611,
2,0,0,1,0,5808.81,0.076507,0.0761819,-0.12638,5,-0.00244729,11,-9.62786e-06,-3.89832,0.366375,0.161037,-0.793769,0.0761819,
2,0,0,1,0,5816.3,0.069016,0.0686975,-0.120229,5,-0.00351275,11,-8.2594e-06,-3.91999,0.39128,0.150787,-0.71219,0.0686975,
2,0,0,1,0,5823.79,0.0615251,0.061225,-0.11423,5,-0.00453248,11,-6.99373e-06,-3.94222,0.328387,0.179666,-0.801728,0.061225,
2,0,0,1,0,5831.28,0.0540342,0.0537205,-0.108588,5,-0.00550628,11,-5.8334e-06,-3.96422,0.384114,0.1536,-0.649239,0.0537205,
2,0,0,1,0,5838.77,0.0465432,0.0462202,-0.103898,5,-0.00644259,11,-4.80218e-06,-3.98339,0.43149,0.136735,-0.556632,0.0462202,
2,0,0,1,0,5846.26,0.0390522,0.0387368,-0.101168,5,-0.00735406,11,-3.91893e-06,-3.99496,1.59215,0.0370569,-0.147592,0.0387368,
2,0,0,1,0,5853.75,0.0315613,0.0312398,-0.100478,5,-0.0082535,11,-3.13891e-06,-3.99793,10.3753,0.00568659,-0.022489,0.0312398,
2,0,0,1,0,5861.24,0.0240703,0.0237618,-0.101346,5,-0.00915242,11,-2.40817e-06,-3.99419,-1.21083,-0.0487268,0.193342,0.0237618,
2,0,0,1,0,5868.74,0.0165794,0.0162934,-0.103773,5,-0.0100613,11,-1.69081e-06,-3.98392,-0.790288,-0.0746564,0.302206,0.0162934,
2,0,0,1,0,5876.23,0.00908843,0.00880157,-0.106765,5,-0.0109888,11,-9.39704e-07,-3.97157,-0.455921,-0.129408,0.539932,0.00880157,
2,0,0,1,0,5883.72,0.00159744,0.00122703,-0.111208,5,-0.0119459,11,-1.36456e-07,-3.95386, , , ,0.00122703,
2,0,0,1,0,5885.12,0.000199235,-0.000176407,-0.111973,5,-0.0121281,11,1.97529e-08,-3.95089, , , ,-0.000176407,