Folder: Figs_alphaMnO2_OER_Tafel_sleope/Figure_codes/Fig_3-5/rawdata_trumpetplot_data/before 10th (part 40)

File: 20221101_1-115_002_TrumpetPlot_ParaChange_12_CV_C01_3.csv
mode,ox/red,error,control changes,counter inc.,time/s,control/V,Ewe/V,<I>/mA,cycle number,(Q-Qo)/C,I Range,P/W,log(|I|),Tafel slope mV/dec,alpha_eff,dI/d(E-IR),E-IR/V,
2,1,0,0,0,4904.98,2.44065e-05,-0.000325324,7.52472,4,0.0000000E+000,10,-2.44797e-06,-2.12351, , , ,-0.000325324,
2,1,0,1,0,4905.02,0.00977853,0.00947341,9.56458,4,0.000418503,10,9.06092e-05,-2.01933,0.176766,0.333776,123.844,0.00947341,
2,1,0,1,0,4905.07,0.0197755,0.0194769,10.1905,4,0.000916127,10,0.00019848,-1.9918,0.90863,0.0649329,25.8563,0.0194769,
2,1,0,1,0,4905.12,0.0297726,0.0294821,10.4097,4,0.00143171,10,0.000306901,-1.98256,1.47799,0.0399191,16.1956,0.0294821,
2,1,0,1,0,4905.17,0.0397514,0.0394495,10.606,4,0.00195576,10,0.000418401,-1.97445,0.69131,0.0853452,35.4102,0.0394495,
2,1,0,1,0,4905.22,0.0497393,0.0494362,11.008,4,0.00249415,10,0.000544193,-1.95829,0.503276,0.117232,50.2425,0.0494362,
2,1,0,1,0,4905.27,0.0597364,0.0594327,11.5935,4,0.00305801,10,0.000689032,-1.93579,0.348588,0.169254,76.6751,0.0594327,
2,1,0,1,0,4905.32,0.0697152,0.0694468,12.4859,4,0.00365822,10,0.000867106,-1.90358,0.301421,0.19574,95.3193,0.0694468,
2,1,0,1,0,4905.37,0.0796941,0.0793929,13.5577,4,0.00430702,10,0.00107638,-1.86781,0.265789,0.221981,117.517,0.07939285,
2,1,0,1,0,4905.42,0.0896911,0.0893287,14.7579,4,0.00501545,10,0.0013183,-1.83098,0.273644,0.215609,124.196,0.0893287,
2,1,0,1,0,4905.47,0.099679,0.099398,15.9711,4,0.00578247,10,0.0015875,-1.79666,0.309623,0.190554,118.746,0.099398,
2,1,0,1,0,4905.52,0.109658,0.10936,17.1906,4,0.00660948,10,0.00187996,-1.76471,0.305371,0.193208,129.552,0.10936,
2,1,0,1,0,4905.57,0.119655,0.119341,18.6219,4,0.00750344,10,0.00222236,-1.72997,0.269181,0.219183,159.486,0.119341,
2,1,0,1,0,4905.62,0.129652,0.129312,20.5608,4,0.00848074,10,0.00265876,-1.68696,0.217823,0.270862,217.2,0.129312,
2,1,0,1,0,4905.67,0.139631,0.139316,22.946,4,0.00956547,10,0.00319675,-1.63929,0.206466,0.285761,256.131,0.1393159,
2,1,0,1,0,4905.72,0.149619,0.149295,25.4977,4,0.010775,10,0.00380668,-1.5935,0.241641,0.244164,242.599,0.149295,
2,1,0,1,0,4905.77,0.159616,0.1593,27.5572,4,0.0121048,10,0.00438987,-1.55976,0.399933,0.147525,158.635,0.1593,
2,1,0,1,0,4905.82,0.169595,0.1693,28.287,4,0.0135069,10,0.004789,-1.54841,-1.14535,-0.0515126,-56.6899,0.1693005,
2,1,0,1,0,4905.87,0.179573,0.179301,25.7563,4,0.0148722,10,0.00461814,-1.58912,-0.128387,-0.459547,-460.657,0.1793011,
2,1,0,1,0,4905.92,0.18957,0.18929,19.6327,4,0.0160159,10,0.00371627,-1.70702,-0.0668907,-0.882035,-674.681,0.18929,
2,1,0,1,0,4905.97,0.199558,0.199287,13.8856,4,0.0168402,10,0.00276721,-1.85744,-0.0766318,-0.769915,-418.803,0.199287,
2,1,0,1,0,4906.02,0.209537,0.209237,11.1734,4,0.0174538,10,0.00233789,-1.95181,-0.15568,-0.378983,-165.418,0.209237,
2,1,0,1,0,4906.07,0.219534,0.219289,10.0672,4,0.0179809,10,0.00220763,-1.99709,-0.328561,-0.179571,-70.721,0.219289,
2,1,0,1,0,4906.12,0.229531,0.229225,9.47124,4,0.0184688,10,0.00217104,-2.02359,-0.423565,-0.139294,-51.4587,0.229225,
2,1,0,1,0,4906.17,0.23951,0.239174,9.02031,4,0.01893,10,0.00215743,-2.04478,-0.545121,-0.108233,-38.2091,0.239174,
2,1,0,1,0,4906.22,0.249498,0.249216,8.69752,4,0.0193718,10,0.00216756,-2.0606,-0.653204,-0.090324,-30.6094,0.249216,
2,1,0,1,0,4906.27,0.259495,0.259201,8.40116,4,0.019799,10,0.00217758,-2.07566,-0.647533,-0.091115,-29.9204,0.259201,
2,1,0,1,0,4906.32,0.269474,0.269186,8.18246,4,0.0202127,10,0.0022026,-2.08712,-0.886862,-0.0665267,-21.2368,0.269186,
2,1,0,1,0,4906.37,0.279453,0.279133,7.98122,4,0.020616,10,0.00222782,-2.09793,-0.993683,-0.0593751,-18.5264,0.279133,
2,1,0,1,0,4906.42,0.28945,0.289166,7.82387,4,0.0210111,10,0.0022624,-2.10658,-1.62745,-0.0362531,-11.0453,0.289166,
2,1,0,1,0,4906.47,0.299438,0.299178,7.6697,4,0.0213975,10,0.0022946,-2.11522,-0.0458807,-1.28594,-364.582,0.299178,
2,0,0,1,0,4906.52,0.291747,0.291456,-2.22235,4,0.021453,10,-0.000647717,-2.65319,-0.0149177,-3.95505,313.118,0.291456,
2,0,0,1,0,4906.57,0.28175,0.281443,-3.52603,4,0.0213007,10,-0.000992375,-2.45271,-0.119802,-0.492479,67.4071,0.281443,
2,0,0,1,0,4906.62,0.27178,0.271529,-4.05171,4,0.0211112,10,-0.00110016,-2.39236,-0.188488,-0.313018,49.5151,0.271529,
2,0,0,1,0,4906.67,0.261783,0.261469,-4.47406,4,0.0208976,10,-0.00116983,-2.3493,-0.288151,-0.204754,35.6595,0.261469,
2,0,0,1,0,4906.72,0.251786,0.251495,-4.8301,4,0.0206646,10,-0.00121475,-2.31604,-0.33973,-0.173667,32.8061,0.251495,
2,0,0,1,0,4906.77,0.241807,0.241497,-5.17013,4,0.0204148,10,-0.00124857,-2.2865,-0.364524,-0.161855,32.6967,0.241497,
2,0,0,1,0,4906.82,0.231824,0.231541,-5.50358,4,0.0201484,10,-0.00127431,-2.25935,-0.331746,-0.177847,38.2036,0.231541,
2,0,0,1,0,4906.87,0.221822,0.221534,-5.85593,4,0.0198647,10,-0.00129729,-2.2324,-0.355676,-0.165882,37.7905,0.221534,
2,0,0,1,0,4906.92,0.211844,0.211554,-6.22453,4,0.0195636,10,-0.00131683,-2.20589,-0.376306,-0.156787,38.1579,0.211554,
2,0,0,1,0,4906.97,0.201865,0.201562,-6.69207,4,0.0192415,10,-0.00134887,-2.17444,-0.323584,-0.182333,47.622,0.201562,
2,0,0,1,0,4907.02,0.191868,0.191603,-7.29147,4,0.0188925,10,-0.00139707,-2.13718,-0.238272,-0.247616,70.5766,0.191603,
2,0,0,1,0,4907.07,0.18188,0.181566,-8.14185,4,0.0185089,10,-0.00147829,-2.08928,-0.177775,-0.331879,105.276,0.181566,
2,0,0,1,0,4907.12,0.171901,0.171593,-9.35385,4,0.0180746,10,-0.00160506,-2.02901,-0.145242,-0.406218,148.362,0.171593,
2,0,0,1,0,4907.17,0.161904,0.161616,-11.1802,4,0.0175642,10,-0.0018069,-1.95155,-0.114184,-0.516708,225.605,0.161616,
2,0,0,1,0,4907.22,0.151907,0.151622,-13.8812,4,0.0169409,10,-0.00210469,-1.85757,-0.100741,-0.58566,317.682,0.151622,
2,0,0,1,0,4907.27,0.141928,0.141624,-17.3954,4,0.0161624,10,-0.0024636,-1.75957,-0.109055,-0.54101,366.786,0.141624,
2,0,0,1,0,4907.32,0.13194,0.131695,-21.1675,4,0.0151998,10,-0.00278764,-1.67433,-0.13296,-0.443743,366.401,0.1316947,
2,0,0,1,0,4907.37,0.121943,0.121729,-24.4754,4,0.0140552,10,-0.00297935,-1.61127,-0.199675,-0.295481,281.867,0.121729,
2,0,0,1,0,4907.42,0.111964,0.11166,-26.6689,4,0.0127727,10,-0.00297784,-1.574,-0.436207,-0.135257,140.634,0.11166,
2,0,0,1,0,4907.47,0.101985,0.101687,-27.2006,4,0.0114207,10,-0.00276595,-1.56542,1.26838,0.0465161,-49.2835,0.101687,
2,0,0,1,0,4907.52,0.0919883,0.09164,-25.687,4,0.0100906,10,-0.00235396,-1.59029,0.252715,0.233465,-233.863,0.09164,
2,0,0,1,0,4907.57,0.0820004,0.0817247,-22.8713,4,0.00887722,10,-0.00186915,-1.64071,0.181878,0.324393,-289.491,0.0817247,
2,0,0,1,0,4907.62,0.0720215,0.0717345,-20.3339,4,0.00780321,10,-0.00145864,-1.69178,0.216156,0.272951,-216.746,0.0717345,
2,0,0,1,0,4907.67,0.0620245,0.0617163,-18.5434,4,0.00683377,10,-0.00114443,-1.73181,0.272249,0.216713,-156.943,0.0617163,
2,0,0,1,0,4907.72,0.0520275,0.0517267,-17.0473,4,0.00594401,10,-0.000881802,-1.76834,0.252495,0.233668,-155.349,0.0517267,
2,0,0,1,0,4907.77,0.0420486,0.0417503,-15.4354,4,0.00513306,10,-0.000644433,-1.81148,0.219997,0.268186,-161.713,0.0417503,
2,0,0,1,0,4907.82,0.0320607,0.0317674,-13.9169,4,0.00440195,10,-0.000442104,-1.85646,0.239035,0.246826,-134.098,0.0317674,
2,0,0,1,0,4907.87,0.0220637,0.0217518,-12.8823,4,0.00373475,10,-0.000280213,-1.89001,0.397099,0.148578,-74.7092,0.02175176,
2,0,0,1,0,4907.92,0.0120848,0.0117474,-12.3715,4,0.00310669,10,-0.000145333,-1.90758,0.770607,0.076563,-36.9863,0.0117474,
2,0,0,1,0,4907.97,0.00210598,0.00175606,-12.274,4,0.00249463,10,-2.1554e-05,-1.91101,-2.99822,-0.0196783,9.3952,0.00175606,
2,0,0,1,0,4908.02,-0.00789103,-0.00826305,-12.2725,4,0.00188153,10,0.000101408,-1.91107,-2.10071,-0.0280858,13.4718,-0.00826305,
2,0,0,1,0,4908.07,-0.017879,-0.0181934,-12.4868,4,0.00126398,10,0.000227179,-1.90355,-1.00218,-0.0588714,28.6695,-0.0181934,
2,0,0,1,0,4908.12,-0.0278578,-0.0282249,-12.766,4,0.000634212,10,0.000360318,-1.89395,-0.990862,-0.0595441,29.6708,-0.0282249,
2,0,0,1,0,4908.17,-0.0378548,-0.0382085,-13.1139,4,-1.2556e-05,10,0.000501062,-1.88227,-0.814502,-0.0724369,37.0493,-0.0382085,
2,0,0,1,0,4908.22,-0.0478519,-0.0481877,-13.4892,4,-0.000677742,10,0.000650015,-1.87001,-0.738709,-0.0798691,42.0903,-0.0481877,
2,0,0,1,0,4908.27,-0.0578126,-0.0581747,-13.9331,4,-0.00136061,10,0.000810552,-1.85595,-0.676304,-0.0872389,47.4344,-0.0581747,
2,0,0,1,0,4908.32,-0.0678187,-0.0681704,-14.428,4,-0.00206945,10,0.000983562,-1.84079,-0.580484,-0.101639,57.2146,-0.0681704,
2,0,0,1,0,4908.37,-0.0778157,-0.0781192,-15.0235,4,-0.00280542,10,0.00117362,-1.82323,-0.537909,-0.109684,64.3446,-0.0781192,
2,0,0,1,0,4908.42,-0.0877945,-0.0881708,-15.7673,4,-0.00357292,10,0.00139021,-1.80224,-0.445588,-0.132409,81.4186,-0.0881708,
2,0,0,1,0,4908.47,-0.0977734,-0.0981349,-16.6034,4,-0.0043804,10,0.00162937,-1.7798,-0.420709,-0.140239,90.9847,-0.09813486,
2,0,0,1,1,4908.51,-0.0936874,-0.0940767,-3.30624,4,-0.00485219,10,0.00031104,-2.48067,-0.0043861,-13.4516,1409.72,-0.0940767,
2,1,0,1,1,4908.56,-0.0837086,-0.0841022,5.34316,4,-0.00476381,10,-0.000449371,-2.2722,0.0231015,2.55394,517.811,-0.0841022,
2,1,0,1,1,4908.61,-0.0737025,-0.0740701,8.76318,4,-0.00439824,10,-0.000649089,-2.05734,0.093071,0.633925,215.665,-0.0740701,
2,1,0,1,1,4908.66,-0.0637236,-0.0640746,10.1681,4,-0.00392096,10,-0.000651518,-1.99276,0.268776,0.219514,86.9442,-0.0640746,
2,1,0,1,1,4908.71,-0.0537447,-0.0540891,10.7747,4,-0.00339629,10,-0.000582792,-1.9676,0.705647,0.0836112,35.1387,-0.0540891,
2,1,0,1,1,4908.76,-0.0437477,-0.0441073,11.0383,4,-0.00285006,10,-0.000486869,-1.9571,1.9045,0.0309792,13.3302,-0.04410731,
2,1,0,1,1,4908.81,-0.0337507,-0.0340787,11.1091,4,-0.00229572,10,-0.000378584,-1.95432,11.2077,0.00526423,2.28404,-0.0340787,
2,1,0,1,1,4908.86,-0.0237809,-0.0241099,11.1,4,-0.00174254,10,-0.000267619,-1.95468,-14.4061,-0.00409549,-1.77139,-0.0241099,
2,1,0,1,1,4908.91,-0.0137839,-0.0141419,10.9993,4,-0.00118982,10,-0.000155552,-1.95863,-1.53371,-0.0384687,-16.5269,-0.0141419,
2,1,0,1,1,4908.96,-0.0037869,-0.00411155,10.8825,4,-0.000642616,10,-4.4744e-05,-1.96327,-1.8296,-0.0322475,-13.6887,-0.00411155,
2,1,0,1,1,4908.98,-2.55332e-05,-0.000439847,10.8092,4,-0.000439643,10,-4.75439e-06,-1.96621, , , ,-0.000439847,

File: 20221101_1-115_002_TrumpetPlot_ParaChange_12_CV_C01_4.csv
mode,ox/red,error,control changes,counter inc.,time/s,control/V,Ewe/V,<I>/mA,cycle number,(Q-Qo)/C,I Range,P/W,log(|I|),Tafel slope mV/dec,alpha_eff,dI/d(E-IR),E-IR/V,
2,1,0,0,0,6136.6,2.44065e-05,-0.00042076,7.96167,5,0.0000000E+000,10,-3.34996e-06,-2.099, , , ,-0.00042076,
2,1,0,1,0,6136.65,0.00977853,0.00947254,9.44023,5,0.000418108,10,8.9423e-05,-2.02502,0.184801,0.319261,117.242,0.00947254,
2,1,0,1,0,6136.7,0.0197755,0.0194708,10.1254,5,0.000910699,10,0.00019715,-1.99459,0.648247,0.0910147,35.9632,0.0194708,
2,1,0,1,0,6136.75,0.0297726,0.0294596,10.4153,5,0.00142502,10,0.00030683,-1.98233,0.980196,0.060192,24.4636,0.02945957,
2,1,0,1,0,6136.8,0.0397514,0.0394725,10.7054,5,0.00195164,10,0.00042257,-1.9704,0.629709,0.0936941,39.1626,0.0394725,
2,1,0,1,0,6136.85,0.0497393,0.0494535,11.1609,5,0.0024963,10,0.000551948,-1.9523,0.469096,0.125774,54.7705,0.0494535,
2,1,0,1,0,6136.9,0.0597364,0.0594076,11.8423,5,0.00307003,10,0.000703521,-1.92656,0.3211,0.183743,84.87,0.0594076,
2,1,0,1,0,6136.95,0.0697152,0.0693927,12.7556,5,0.00368335,10,0.000885148,-1.8943,0.29823,0.197834,98.6391,0.0693927,
2,1,0,1,0,6137,0.0796941,0.079405,13.8611,5,0.00434703,10,0.00110064,-1.8582,0.26986,0.218632,118.267,0.07940501,
2,1,0,1,0,6137.05,0.0896911,0.0893894,15.0323,5,0.00507028,10,0.00134373,-1.82297,0.29074,0.20293,119.241,0.0893894,
2,1,0,1,0,6137.1,0.099679,0.0993542,16.2166,5,0.0058503,10,0.00161119,-1.79004,0.334976,0.176132,111.326,0.09935423,
2,1,0,1,0,6137.15,0.109658,0.109393,17.3608,5,0.00668756,10,0.00189915,-1.76043,0.327536,0.180133,122.141,0.109393,
2,1,0,1,0,6137.2,0.119655,0.119344,18.7565,5,0.00758903,10,0.00223848,-1.72685,0.275591,0.214085,156.722,0.119344,
2,1,0,1,0,6137.25,0.129652,0.129347,20.5917,5,0.00857088,10,0.00266347,-1.68631,0.22548,0.261664,210.427,0.129347,
2,1,0,1,0,6137.3,0.139631,0.139299,22.8465,5,0.0096542,10,0.0031825,-1.64118,0.227361,0.259499,231.325,0.139299,
2,1,0,1,0,6137.35,0.149619,0.149283,25.1312,5,0.0108523,10,0.00375166,-1.59979,0.266349,0.221514,217.143,0.1492828,
2,1,0,1,0,6137.4,0.159616,0.159332,26.9725,5,0.012158,10,0.00429759,-1.56908,0.452173,0.130481,137.239,0.159332,
2,1,0,1,0,6137.45,0.169595,0.169286,27.5001,5,0.0135258,10,0.00465538,-1.56067,-0.893288,-0.0660481,-70.7253,0.169286,
2,1,0,1,0,6137.5,0.179573,0.179272,24.96,5,0.0148505,10,0.00447462,-1.60275,-0.127395,-0.463127,-449.615,0.179272,
2,1,0,1,0,6137.55,0.18957,0.189291,19.1662,5,0.0159608,10,0.00362798,-1.71746,-0.0703095,-0.839147,-627.416,0.1892907,
2,1,0,1,0,6137.6,0.199558,0.199274,13.9599,5,0.016776,10,0.00278183,-1.85512,-0.0852006,-0.692483,-378.027,0.199274,
2,1,0,1,0,6137.65,0.209537,0.209261,11.3597,5,0.017398,10,0.00237715,-1.94463,-0.152964,-0.38571,-171.431,0.209261,
2,1,0,1,0,6137.7,0.219534,0.219234,10.1834,5,0.0179329,10,0.00223255,-1.99211,-0.282496,-0.208852,-83.0181,0.219234,
2,1,0,1,0,6137.75,0.229531,0.229248,9.49121,5,0.018424,10,0.00217584,-2.02268,-0.377191,-0.156419,-58.0157,0.229248,
2,1,0,1,0,6137.8,0.23951,0.23921,9.02201,5,0.0188854,10,0.00215816,-2.0447,-0.533141,-0.110665,-38.9674,0.23921,
2,1,0,1,0,6137.85,0.249498,0.249203,8.65673,5,0.0193263,10,0.00215728,-2.06265,-0.682746,-0.0864158,-29.23,0.249203,
2,1,0,1,0,6137.9,0.259495,0.259222,8.38586,5,0.019752,10,0.0021738,-2.07645,-0.671022,-0.0879256,-28.7534,0.259222,
2,1,0,1,0,6137.95,0.269474,0.269179,8.15336,5,0.0201643,10,0.00219471,-2.08866,-0.985885,-0.0598447,-19.0687,0.269179,
2,1,0,1,0,6138,0.279453,0.279186,7.96842,5,0.0205666,10,0.00222467,-2.09863,-0.972231,-0.0606852,-18.8757,0.279186,
2,1,0,1,0,6138.05,0.28945,0.289137,7.79563,5,0.020961,10,0.00225401,-2.10815,-1.43871,-0.0410089,-12.5006,0.2891373,
2,1,0,1,0,6138.1,0.299438,0.299176,7.66955,5,0.021347,10,0.00229455,-2.11523,-0.0451862,-1.30571,-370.298,0.299176,
2,0,0,1,0,6138.15,0.291747,0.291449,-2.0092,5,0.0214108,10,-0.000585577,-2.69698,-0.0127505,-4.62726,327.458,0.291449,
2,0,0,1,0,6138.2,0.28175,0.281464,-3.47667,5,0.0212643,10,-0.000978557,-2.45884,-0.106782,-0.552526,74.3578,0.281464,
2,0,0,1,0,6138.25,0.27178,0.271456,-4.04188,5,0.0210761,10,-0.00109719,-2.39342,-0.175357,-0.336457,53.122,0.271456,
2,0,0,1,0,6138.3,0.261783,0.261486,-4.47768,5,0.0208625,10,-0.00117085,-2.34895,-0.293162,-0.201254,35.0798,0.261486,
2,0,0,1,0,6138.35,0.251786,0.251515,-4.83446,5,0.0206293,10,-0.00121594,-2.31565,-0.349656,-0.168737,31.9091,0.251515,
2,0,0,1,0,6138.4,0.241807,0.241571,-5.17201,5,0.0203794,10,-0.00124941,-2.28634,-0.345952,-0.170544,34.4155,0.241571,
2,0,0,1,0,6138.45,0.231824,0.2315,-5.48952,5,0.0201134,10,-0.00127082,-2.26047,-0.355585,-0.165924,35.5784,0.2315,
2,0,0,1,0,6138.5,0.221822,0.221541,-5.82281,5,0.0198305,10,-0.00128999,-2.23487,-0.365598,-0.161379,36.5939,0.221541,
2,0,0,1,0,6138.55,0.211844,0.211516,-6.18133,5,0.0195312,10,-0.00130745,-2.20892,-0.400125,-0.147454,35.5803,0.211516,
2,0,0,1,0,6138.6,0.201865,0.201564,-6.61158,5,0.0192123,10,-0.00133266,-2.17969,-0.32748,-0.180164,46.4563,0.201564,
2,0,0,1,0,6138.65,0.191868,0.191576,-7.14512,5,0.0188687,10,-0.00136883,-2.14599,-0.260274,-0.226684,63.413,0.191576,
2,0,0,1,0,6138.7,0.18188,0.181534,-7.9187,5,0.0184938,10,-0.00143751,-2.10135,-0.195629,-0.301591,93.0509,0.181534,
2,0,0,1,0,6138.75,0.171901,0.171615,-8.99846,5,0.0180734,10,-0.00154427,-2.04583,-0.15703,-0.375724,132.125,0.171615,
2,0,0,1,0,6138.8,0.161904,0.161625,-10.6677,5,0.0175844,10,-0.00172418,-1.97193,-0.121831,-0.484278,201.549,0.161625,
2,0,0,1,0,6138.85,0.151907,0.151618,-13.1279,5,0.0169929,10,-0.00199042,-1.8818,-0.103986,-0.567384,291.358,0.151618,
2,0,0,1,0,6138.9,0.141928,0.141672,-16.4572,5,0.0162572,10,-0.00233153,-1.78364,-0.105499,-0.559247,358.449,0.141672,
2,0,0,1,0,6138.94,0.13194,0.131668,-20.077,5,0.0153462,10,-0.0026435,-1.6973,-0.128298,-0.459867,360.117,0.131668,
2,0,0,1,0,6138.99,0.121943,0.121698,-23.3314,5,0.0142577,10,-0.00283938,-1.63206,-0.191038,-0.308839,280.749,0.121698,
2,0,0,1,0,6139.04,0.111964,0.111703,-25.6122,5,0.0130308,10,-0.00286096,-1.59155,-0.367972,-0.160338,160.167,0.1117029,
2,0,0,1,0,6139.09,0.101985,0.101684,-26.464,5,0.0117247,10,-0.00269097,-1.57734,18.2851,0.00322667,-3.32636,0.101684,
2,0,0,1,0,6139.14,0.0919883,0.0916599,-25.5569,5,0.0104169,10,-0.00234255,-1.59249,0.353499,0.166903,-166.37,0.0916599,
2,0,0,1,0,6139.19,0.0820004,0.081704,-23.3113,5,0.00919441,10,-0.00190463,-1.63243,0.213899,0.275831,-250.651,0.081704,
2,0,0,1,0,6139.24,0.0720215,0.0717146,-20.9602,5,0.0080925,10,-0.00150315,-1.67861,0.236044,0.249953,-204.745,0.07171455,
2,0,0,1,0,6139.29,0.0620245,0.0617267,-19.2465,5,0.00708962,10,-0.00118802,-1.71565,0.289862,0.203545,-152.879,0.0617267,
2,0,0,1,0,6139.34,0.0520275,0.0517076,-17.8293,5,0.00616315,10,-0.000921912,-1.74886,0.287424,0.205272,-142.81,0.0517076,
2,0,0,1,0,6139.39,0.0420486,0.0417352,-16.3288,5,0.00531023,10,-0.000681487,-1.78704,0.238596,0.24728,-157.569,0.0417352,
2,0,0,1,0,6139.44,0.0320607,0.031698,-14.7103,5,0.00453611,10,-0.000466286,-1.83238,0.219758,0.268477,-154.237,0.031698,
2,0,0,1,0,6139.49,0.0220637,0.0217492,-13.4198,5,0.00383522,10,-0.00029187,-1.87225,0.304707,0.193629,-101.432,0.0217492,
2,0,0,1,0,6139.54,0.0120848,0.0118126,-12.6687,5,0.00318659,10,-0.000149651,-1.89727,0.551723,0.106938,-52.9655,0.0118126,
2,0,0,1,0,6139.59,0.00210598,0.00178383,-12.4246,5,0.00256351,10,-2.21632e-05,-1.90572,20.9946,0.00281025,-1.35755,0.00178383,
2,0,0,1,0,6139.64,-0.00789103,-0.00823962,-12.3219,5,0.0019456,10,0.000101528,-1.90932,-3.99153,-0.0147813,7.12623,-0.00823962,
2,0,0,1,0,6139.69,-0.017879,-0.018234,-12.4979,5,0.00132669,10,0.000227887,-1.90316,-1.16209,-0.0507708,24.7228,-0.018234,
2,0,0,1,0,6139.74,-0.0278578,-0.0282215,-12.7321,5,0.000697757,10,0.000359318,-1.8951,-1.03879,-0.0567971,28.2575,-0.0282215,
2,0,0,1,0,6139.79,-0.0378549,-0.0381894,-13.0744,5,5.28168e-05,10,0.000499304,-1.88358,-0.918585,-0.0642292,32.7259,-0.0381894,
2,0,0,1,0,6139.84,-0.0478519,-0.048212,-13.435,5,-0.000609839,10,0.000647727,-1.87176,-0.666646,-0.0885027,46.4775,-0.048212,
2,0,0,1,0,6139.89,-0.0578126,-0.0581599,-13.8857,5,-0.00129007,10,0.000807591,-1.85743,-0.697383,-0.084602,45.7853,-0.0581599,
2,0,0,1,0,6139.94,-0.0678187,-0.0681339,-14.368,5,-0.00199612,10,0.000978947,-1.8426,-0.590682,-0.0998845,56.0385,-0.06813392,
2,0,0,1,0,6139.99,-0.0778157,-0.0781704,-14.9753,5,-0.00272939,10,0.00117062,-1.82462,-0.557731,-0.105786,61.7833,-0.0781704,
2,0,0,1,0,6140.04,-0.0877945,-0.0881246,-15.7033,5,-0.0034942,10,0.00138384,-1.80401,-0.455818,-0.129438,79.3627,-0.0881246,
2,0,0,1,0,6140.09,-0.0977734,-0.0980932,-16.5607,5,-0.00429887,10,0.00162449,-1.78092,-0.414431,-0.142364,91.997,-0.0980932,
2,0,0,1,1,6140.14,-0.0936874,-0.0940544,-3.83419,5,-0.00477873,10,0.000360622,-2.41633,-0.00584255,-10.0983,1351.95,-0.0940544,
2,1,0,1,1,6140.19,-0.0837086,-0.0840718,4.6703,5,-0.00472301,10,-0.00039264,-2.33066,0.0198304,2.97523,523.049,-0.08407183,
2,1,0,1,1,6140.24,-0.0737025,-0.0740484,8.23176,5,-0.00438802,10,-0.000609548,-2.08451,0.0797543,0.739772,236.629,-0.0740484,
2,1,0,1,1,6140.29,-0.0637236,-0.0640515,9.84552,5,-0.00393152,10,-0.000630621,-2.00676,0.220433,0.267655,102.588,-0.0640515,
2,1,0,1,1,6140.34,-0.0537447,-0.0540874,10.5939,5,-0.00341914,10,-0.000572999,-1.97494,0.500095,0.117978,48.7844,-0.0540874,
2,1,0,1,1,6140.39,-0.0437477,-0.0441186,10.9515,5,-0.00287907,10,-0.000483167,-1.96052,1.24152,0.0475223,20.2804,-0.0441186,
2,1,0,1,1,6140.44,-0.0337507,-0.0340882,11.08,5,-0.00232742,10,-0.000377697,-1.95546,3.26713,0.0180587,7.82098,-0.0340882,
2,1,0,1,1,6140.49,-0.0237809,-0.0241151,11.1103,5,-0.00177451,10,-0.000267927,-1.95427,21.092,0.00279727,1.21033,-0.0241151,
2,1,0,1,1,6140.54,-0.0137839,-0.0141541,11.0246,5,-0.001221,10,-0.000156043,-1.95764,-2.2101,-0.0266957,-11.5067,-0.0141541,
2,1,0,1,1,6140.59,-0.0037869,-0.00413411,10.9238,5,-0.000672003,10,-4.51602e-05,-1.96163,-1.88845,-0.0312425,-13.3067,-0.004134113,
2,1,0,1,1,6140.6,-2.55332e-05,-0.000248974,10.8563,5,-0.000468289,10,-2.70293e-06,-1.96432, , , ,-0.000248974,