Folder: Figs_alphaMnO2_OER_Tafel_sleope/Figure_codes/Fig_3-5/rawdata_trumpetplot_data/before 10th (part 30)

File: 20221101_1-115_002_TrumpetPlot_ParaChange_10_CV_C01_1.csv
mode,ox/red,error,control changes,counter inc.,time/s,control/V,Ewe/V,<I>/mA,cycle number,(Q-Qo)/C,I Range,P/W,log(|I|),Tafel slope mV/dec,alpha_eff,dI/d(E-IR),E-IR/V,
2,0,0,0,0,2426.02,2.44065e-05,0.00015186,-5.21505,2,0.0000000E+000,11,-7.91954e-07,-2.28274, , , ,0.00015186,
2,1,0,1,0,2426.11,0.0072942,0.00700216,3.15325,2,7.18758e-05,11,2.20795e-05,-2.50124,0.0388573,1.51838,177.829,0.00700216,
2,1,0,1,0,2426.2,0.0147816,0.0144738,3.48157,2,0.000389935,11,5.03916e-05,-2.45823,0.506827,0.116411,15.8383,0.0144738,
2,1,0,1,0,2426.3,0.0222707,0.021997,3.56798,2,0.00072028,11,7.84846e-05,-2.44758,1.03166,0.0571893,7.94884,0.021997,
2,1,0,1,0,2426.39,0.0297581,0.0295,3.65001,2,0.00105753,11,0.000107675,-2.43771,0.617636,0.0955255,13.5646,0.0295,
2,1,0,1,0,2426.48,0.0372544,0.0369766,3.73984,2,0.00140372,11,0.000138287,-2.42715,0.527656,0.111815,16.3634,0.0369766,
2,1,0,1,0,2426.58,0.0447507,0.0444525,3.87907,2,0.00176099,11,0.000172435,-2.41127,0.503367,0.117211,17.7763,0.0444525,
2,1,0,1,0,2426.67,0.0522381,0.05193,4.07139,2,0.00213283,11,0.000211427,-2.39026,0.282836,0.208601,33.175,0.05193,
2,1,0,1,0,2426.76,0.0597273,0.0594936,4.33442,2,0.00252601,11,0.00025787,-2.36307,0.230711,0.255731,43.2628,0.0594936,
2,1,0,1,0,2426.86,0.0672147,0.0669745,4.68043,2,0.00294749,11,0.000313469,-2.32971,0.213598,0.276219,50.4734,0.0669745,
2,1,0,1,0,2426.95,0.0747038,0.0744431,5.09914,2,0.0034046,11,0.000379596,-2.2925,0.200579,0.294149,58.4526,0.0744431,
2,1,0,1,0,2427.05,0.0822055,0.0819553,5.53692,2,0.00390343,11,0.00045378,-2.25673,0.202062,0.29199,63.1344,0.0819553,
2,1,0,1,0,2427.14,0.0896946,0.0893789,5.99761,2,0.00444411,11,0.00053606,-2.22202,0.238078,0.247818,58.0896,0.0893789,
2,1,0,1,0,2427.23,0.097182,0.0968455,6.4656,2,0.0050277,11,0.000626164,-2.18939,0.239733,0.246107,62.0428,0.0968455,
2,1,0,1,0,2427.33,0.104671,0.104394,6.96074,2,0.00565502,11,0.000726656,-2.15734,0.209819,0.281195,76.3675,0.1043935,
2,1,0,1,0,2427.42,0.112159,0.11187,7.56526,2,0.00633384,11,0.000846328,-2.12118,0.185436,0.31817,94.0324,0.11187,
2,1,0,1,0,2427.51,0.119655,0.119372,8.47237,2,0.0070826,11,0.00101137,-2.072,0.14469,0.40777,134.846,0.119372,
2,1,0,1,0,2427.61,0.127149,0.126864,9.63914,2,0.0079289,11,0.00122286,-2.01596,0.124472,0.474003,178.483,0.126864,
2,1,0,1,0,2427.7,0.134639,0.134334,11.0371,2,0.00889729,11,0.00148266,-1.95714,0.136538,0.432113,186.271,0.134334,
2,1,0,1,0,2427.79,0.142126,0.141848,12.3763,2,0.0099956,11,0.00175555,-1.90741,0.177569,0.332266,160.272,0.141848,
2,1,0,1,0,2427.89,0.149615,0.149292,13.296,2,0.0112018,11,0.00198499,-1.87628,0.375449,0.157145,81.321,0.149292,
2,1,0,1,0,2427.98,0.157103,0.156813,13.3878,2,0.012459,11,0.00209938,-1.87329,-0.446321,-0.132192,-68.8005,0.156813,
2,1,0,1,0,2428.08,0.164606,0.164325,12.0504,2,0.0136658,11,0.00198018,-1.919,-0.0902423,-0.653795,-305.414,0.164325,
2,1,0,1,0,2428.17,0.172095,0.17184,9.12067,2,0.0146642,11,0.0015673,-2.03997,-0.0494808,-1.19238,-424.237,0.17184,
2,1,0,1,0,2428.26,0.179582,0.179301,6.4215,2,0.0153817,11,0.00115138,-2.19236,-0.0577311,-1.02198,-258.614,0.179301,
2,1,0,1,0,2428.36,0.18707,0.18677,5.17647,2,0.0159158,11,0.000966809,-2.28597,-0.111898,-0.527264,-106.797,0.18677,
2,1,0,1,0,2428.45,0.194559,0.194256,4.61772,2,0.016371,11,0.000897019,-2.33557,-0.187351,-0.314917,-56.6232,0.194256,
2,1,0,1,0,2428.54,0.202062,0.201798,4.2245,2,0.0167841,11,0.000852497,-2.37423,-0.233181,-0.253022,-41.7054,0.201798,
2,1,0,1,0,2428.64,0.20955,0.209295,3.96393,2,0.0171669,11,0.00082963,-2.40187,-0.249513,-0.236461,-36.6029,0.209295,
2,1,0,1,0,2428.73,0.217039,0.216778,3.76674,2,0.0175281,11,0.000816544,-2.42403,-0.391035,-0.150882,-22.2107,0.216778,
2,1,0,1,0,2428.82,0.224526,0.224253,3.62361,2,0.0178742,11,0.000812605,-2.44086,-0.575267,-0.102561,-14.5418,0.224253,
2,1,0,1,0,2428.92,0.232016,0.231746,3.52862,2,0.018209,11,0.000817745,-2.45239,-0.600982,-0.0981727,-13.4976,0.231746,
2,1,0,1,0,2429.01,0.23951,0.239235,3.45508,2,0.0185357,11,0.000826575,-2.46154,-1.00266,-0.0588434,-7.90908,0.239235,
2,1,0,1,0,2429.11,0.247006,0.246718,3.3803,2,0.0188554,11,0.000833983,-2.47104,-1.27759,-0.0461806,-6.08025,0.246718,
2,1,0,1,0,2429.2,0.254494,0.254247,3.317,2,0.0191691,11,0.000843335,-2.47926,-0.636783,-0.0926533,-12.019,0.254247,
2,1,0,1,0,2429.29,0.261983,0.261689,3.27398,2,0.0194777,11,0.000856764,-2.48492,-1.11931,-0.052711,-6.733,0.261689,
2,1,0,1,0,2429.39,0.26947,0.269219,3.22472,2,0.0197818,11,0.000868156,-2.49151,-23.239,-0.00253884,-0.319966,0.269219,
2,1,0,1,0,2429.48,0.276959,0.276667,3.18018,2,0.020082,11,0.000879852,-2.49755,-1.0954,-0.0538615,-6.68962,0.276667,
2,1,0,1,0,2429.57,0.284461,0.284171,3.15556,2,0.0203789,11,0.00089672,-2.50092,-0.990746,-0.0595511,-7.29663,0.284171,
2,1,0,1,0,2429.67,0.29195,0.291678,3.10946,2,0.0206715,11,0.000906959,-2.50732,-2.31514,-0.0254844,-3.08675,0.291678,
2,1,0,1,0,2429.76,0.299438,0.299178,3.06323,2,0.0209608,11,0.000916452,-2.51382,-0.016696,-3.53378,-362.874,0.299178,
2,0,0,1,0,2429.84,0.29424,0.293922,-1.34212,2,0.0209447,11,-0.000394478,-2.87221,-0.0633846,-0.930826,47.1861,0.293922,
2,0,0,1,0,2429.93,0.286753,0.286512,-1.53955,2,0.0208094,11,-0.000441102,-2.8126,-0.12313,-0.479169,28.9745,0.2865124,
2,0,0,1,0,2430.03,0.279264,0.278995,-1.7296,2,0.0206553,11,-0.000482551,-2.76205,-0.213054,-0.276926,18.7301,0.278995,
2,0,0,1,0,2430.12,0.271776,0.271457,-1.88639,2,0.020486,11,-0.000512074,-2.72437,-0.182041,-0.324103,23.7603,0.2714566,
2,0,0,1,0,2430.21,0.26428,0.263988,-2.01076,2,0.0203033,11,-0.000530817,-2.69664,-0.228405,-0.258313,20.2399,0.263988,
2,0,0,1,0,2430.31,0.256786,0.256527,-2.12137,2,0.0201093,11,-0.000544188,-2.67338,-0.420221,-0.140402,11.6375,0.256527,
2,0,0,1,0,2430.4,0.249296,0.248996,-2.24357,2,0.0199051,11,-0.00055864,-2.64906,-0.461761,-0.127772,11.1487,0.248996,
2,0,0,1,0,2430.5,0.241809,0.241552,-2.33267,2,0.0196906,11,-0.000563461,-2.63215,-0.344253,-0.171386,15.6887,0.241552,
2,0,0,1,0,2430.59,0.23432,0.234052,-2.44481,2,0.0194662,11,-0.000572211,-2.61176,-0.434343,-0.135837,13.0282,0.234052,
2,0,0,1,0,2430.68,0.226833,0.226563,-2.57576,2,0.019231,11,-0.000583571,-2.58909,-0.314499,-0.1876,18.8012,0.226563,
2,0,0,1,0,2430.78,0.219329,0.219063,-2.70991,2,0.0189839,11,-0.000593641,-2.56705,-0.261724,-0.225428,23.7347,0.219063,
2,0,0,1,0,2430.87,0.21184,0.211555,-2.84454,2,0.0187241,11,-0.000601777,-2.54599,-0.362001,-0.162983,18.1344,0.211555,
2,0,0,1,0,2430.96,0.204353,0.204036,-3.04731,2,0.0184485,11,-0.000621763,-2.51608,-0.344344,-0.17134,20.3653,0.204036,
2,0,0,1,0,2431.06,0.196863,0.196532,-3.26215,2,0.0181538,11,-0.000641115,-2.4865,-0.191925,-0.307411,39.2362,0.196532,
2,0,0,1,0,2431.15,0.189376,0.189022,-3.57242,2,0.0178337,11,-0.000675265,-2.44704,-0.180453,-0.326955,45.7631,0.1890219,
2,0,0,1,0,2431.24,0.18188,0.181575,-4.01585,2,0.0174794,11,-0.000729178,-2.39622,-0.136545,-0.432093,67.5766,0.181575,
2,0,0,1,0,2431.34,0.174385,0.174106,-4.60261,2,0.0170777,11,-0.000801339,-2.337,-0.106179,-0.555666,99.9884,0.174106,
2,0,0,1,0,2431.43,0.166896,0.166571,-5.47131,2,0.0166084,11,-0.000911362,-2.26191,-0.0900893,-0.654905,140.076,0.166571,
2,0,0,1,0,2431.53,0.159409,0.159128,-6.73499,2,0.0160405,11,-0.00107173,-2.17166,-0.0797344,-0.739957,194.258,0.159128,
2,0,0,1,0,2431.62,0.151919,0.151618,-8.39295,2,0.0153363,11,-0.00127252,-2.07609,-0.0788935,-0.747844,244.717,0.151618,
2,0,0,1,0,2431.71,0.144425,0.144143,-10.237,2,0.0144631,11,-0.00147559,-1.98983,-0.0969799,-0.608373,243.089,0.144143,
2,0,0,1,0,2431.81,0.136929,0.136655,-11.9365,2,0.013421,11,-0.00163118,-1.92312,-0.140327,-0.420446,195.338,0.136655,
2,0,0,1,0,2431.9,0.129441,0.129159,-13.0709,2,0.0122453,11,-0.00168823,-1.88369,-0.280136,-0.210612,107.15,0.129159,
2,0,0,1,0,2431.99,0.121952,0.121644,-13.3502,2,0.0110011,11,-0.00162396,-1.87451,0.945879,0.0623758,-32.3846,0.121644,
2,0,0,1,0,2432.09,0.114465,0.114123,-12.5582,2,0.00977962,11,-0.00143319,-1.90107,0.155488,0.379451,-185.392,0.114123,
2,0,0,1,0,2432.18,0.106976,0.106701,-10.8652,2,0.00867969,11,-0.00115932,-1.96396,0.0989236,0.59642,-252.688,0.106701,
2,0,0,1,0,2432.27,0.0994721,0.0991595,-9.14875,2,0.0077446,11,-0.000907185,-2.03864,0.113162,0.521377,-186.846,0.0991595,
2,0,0,1,0,2432.37,0.0919847,0.0916476,-8.08195,2,0.00694259,11,-0.000740692,-2.09248,0.177744,0.331939,-104.978,0.0916476,
2,0,0,1,0,2432.46,0.0844973,0.0842039,-7.49036,2,0.0062159,11,-0.000630717,-2.1255,0.282139,0.209117,-61.1281,0.0842039,
2,0,0,1,0,2432.56,0.0770082,0.0766855,-7.06114,2,0.00553571,11,-0.000541487,-2.15113,0.30076,0.196169,-53.9956,0.0766855,
2,0,0,1,0,2432.65,0.0695208,0.0692364,-6.6252,2,0.00489463,11,-0.000458705,-2.1788,0.238541,0.247336,-64.039,0.06923636,
2,0,0,1,0,2432.74,0.0620245,0.0617562,-6.17789,2,0.00429435,11,-0.000381523,-2.20916,0.218797,0.269657,-65.0078,0.0617562,
2,0,0,1,0,2432.84,0.0545282,0.0542136,-5.73417,2,0.00373691,11,-0.00031087,-2.24153,0.296601,0.198921,-44.5654,0.0542136,
2,0,0,1,0,2432.93,0.0470408,0.0467082,-5.39574,2,0.00321621,11,-0.000252025,-2.26795,0.322859,0.182742,-38.5791,0.0467082,
2,0,0,1,0,2433.02,0.0395517,0.0392219,-5.20378,2,0.00272125,11,-0.000204102,-2.28368,0.585568,0.100757,-20.4299,0.0392219,
2,0,0,1,0,2433.12,0.0320643,0.0317703,-5.07886,2,0.00224106,11,-0.000161357,-2.29423,1.27472,0.0462848,-9.18236,0.0317703,
2,0,0,1,0,2433.21,0.0245751,0.0242656,-5.03649,2,0.00176752,11,-0.000122213,-2.29787,4.96221,0.0118899,-2.34277,0.0242656,
2,0,0,1,0,2433.3,0.0170735,0.0168182,-5.0645,2,0.00129376,11,-8.51755e-05,-2.29546,-3.20551,-0.0184058,3.64193,0.0168182,
2,0,0,1,0,2433.4,0.00958429,0.00930593,-5.12458,2,0.000816941,11,-4.7689e-05,-2.29034,-0.74884,-0.0787885,15.7665,0.00930593,
2,0,0,1,0,2433.49,0.0020969,0.00174701,-5.28446,2,0.000332915,11,-9.23203e-06,-2.277,-0.529161,-0.111497,22.7384,0.00174701,
2,0,0,1,0,2433.52,0.000199195,-0.000157355,-5.27053,2,0.000207612,11,8.29346e-07,-2.27815, , , ,-0.000157355,

File: 20221101_1-115_002_TrumpetPlot_ParaChange_10_CV_C01_2.csv
mode,ox/red,error,control changes,counter inc.,time/s,control/V,Ewe/V,<I>/mA,cycle number,(Q-Qo)/C,I Range,P/W,log(|I|),Tafel slope mV/dec,alpha_eff,dI/d(E-IR),E-IR/V,
2,0,0,0,0,3657.65,2.44065e-05,0.000304558,-5.66184,3,0.0000000E+000,11,-1.72436e-06,-2.24704, , , ,0.000304558,
2,1,0,1,0,3657.74,0.0072942,0.00700727,2.73798,3,2.58896e-05,11,1.91858e-05,-2.56257,0.027283,2.16252,217.121,0.00700727,
2,1,0,1,0,3657.83,0.0147816,0.014497,3.30949,3,0.000318219,11,4.79777e-05,-2.48024,0.23341,0.252774,32.5755,0.014497,
2,1,0,1,0,3657.92,0.0222707,0.0219959,3.44831,3,0.000635434,11,7.58488e-05,-2.46239,0.492919,0.119695,16.1233,0.0219959,
2,1,0,1,0,3658.02,0.0297581,0.0295116,3.57465,3,0.000964319,11,0.000105494,-2.44677,0.689997,0.0855076,11.9141,0.0295116,
2,1,0,1,0,3658.11,0.0372544,0.0369644,3.71097,3,0.00130529,11,0.000137174,-2.43051,0.420198,0.14041,20.3199,0.0369644,
2,1,0,1,0,3658.21,0.0447507,0.0444426,3.86644,3,0.0016604,11,0.000171835,-2.41269,0.327765,0.180007,27.2665,0.04444262,
2,1,0,1,0,3658.3,0.0522381,0.0519378,4.10322,3,0.00203374,11,0.000213112,-2.38688,0.270344,0.21824,35.004,0.0519378,
2,1,0,1,0,3658.39,0.0597273,0.0594364,4.42097,3,0.0024322,11,0.000262766,-2.35448,0.209086,0.28218,48.5879,0.0594364,
2,1,0,1,0,3658.49,0.0672147,0.0669455,4.79729,3,0.00286283,11,0.000321157,-2.319,0.18719,0.315187,58.9852,0.0669455,
2,1,0,1,0,3658.58,0.0747038,0.0744411,5.22813,3,0.00333191,11,0.000389188,-2.28165,0.209443,0.2817,57.459,0.07444106,
2,1,0,1,0,3658.67,0.0822055,0.0819495,5.68976,3,0.00384415,11,0.000466273,-2.24491,0.219911,0.268291,59.5194,0.0819495,
2,1,0,1,0,3658.77,0.0896946,0.0893779,6.12029,3,0.00439735,11,0.000547019,-2.21323,0.2323,0.253982,60.7564,0.08937791,
2,1,0,1,0,3658.86,0.097182,0.0968932,6.543,3,0.00499115,11,0.000633973,-2.18422,0.276951,0.213034,54.4406,0.0968932,
2,1,0,1,0,3658.95,0.104671,0.104374,7.00829,3,0.00562478,11,0.000731486,-2.15439,0.244169,0.241636,66.0119,0.104374,
2,1,0,1,0,3659.05,0.112159,0.111843,7.54896,3,0.0063048,11,0.000844296,-2.12211,0.194859,0.302783,89.3328,0.111843,
2,1,0,1,0,3659.14,0.119655,0.119314,8.34216,3,0.00704792,11,0.000995334,-2.07872,0.163836,0.360116,117.397,0.119314,
2,1,0,1,0,3659.24,0.127149,0.126873,9.38066,3,0.00787694,11,0.00119015,-2.02777,0.147074,0.401157,146.929,0.126873,
2,1,0,1,0,3659.33,0.134639,0.134332,10.5687,3,0.00881092,11,0.00141972,-1.97598,0.149627,0.394313,162.689,0.134332,
2,1,0,1,0,3659.42,0.142126,0.141836,11.6917,3,0.0098551,11,0.00165829,-1.93212,0.198154,0.297748,135.799,0.141836,
2,1,0,1,0,3659.52,0.149615,0.149326,12.5087,3,0.0109919,11,0.00186788,-1.90279,0.400982,0.147139,71.6719,0.1493264,
2,1,0,1,0,3659.61,0.157103,0.156799,12.6674,3,0.0121767,11,0.00198624,-1.89731,-0.676402,-0.0872262,-42.9405,0.156799,
2,1,0,1,0,3659.7,0.164606,0.164329,11.6218,3,0.0133277,11,0.0019098,-1.93473,-0.109751,-0.537581,-242.607,0.164329,
2,1,0,1,0,3659.8,0.172095,0.171829,9.18708,3,0.0143101,11,0.0015786,-2.03682,-0.0566817,-1.0409,-372.611,0.171829,
2,1,0,1,0,3659.89,0.179582,0.179316,6.70306,3,0.0150465,11,0.00120197,-2.17373,-0.0610987,-0.96565,-254.07,0.179316,
2,1,0,1,0,3659.98,0.18707,0.186763,5.35032,3,0.015603,11,0.000999245,-2.27162,-0.106335,-0.554851,-116.345,0.186763,
2,1,0,1,0,3660.08,0.194559,0.194266,4.68164,3,0.0160696,11,0.000909484,-2.3296,-0.152834,-0.38604,-70.5282,0.194266,
2,1,0,1,0,3660.17,0.202062,0.201786,4.25493,3,0.0164868,11,0.000858586,-2.37111,-0.200524,-0.294229,-48.736,0.201786,
2,1,0,1,0,3660.27,0.20955,0.209268,3.96089,3,0.0168703,11,0.000828886,-2.40221,-0.283291,-0.208266,-32.2452,0.209268,
2,1,0,1,0,3660.36,0.217039,0.216785,3.75322,3,0.0172313,11,0.000813641,-2.4256,-0.371556,-0.158792,-23.3381,0.216785,
2,1,0,1,0,3660.45,0.224526,0.224285,3.62669,3,0.0175767,11,0.000813412,-2.44049,-0.464718,-0.126959,-17.9412,0.224285,
2,1,0,1,0,3660.55,0.232016,0.231782,3.51698,3,0.0179107,11,0.000815172,-2.45383,-1.07989,-0.0546353,-7.49925,0.231782,
2,1,0,1,0,3660.64,0.23951,0.239222,3.43042,3,0.0182365,11,0.00082063,-2.46465,-0.700316,-0.0842477,-11.3004,0.2392218,
2,1,0,1,0,3660.73,0.247006,0.246793,3.37878,3,0.0185554,11,0.000833859,-2.47124,-0.646085,-0.0913193,-11.9987,0.246793,
2,1,0,1,0,3660.83,0.254494,0.254202,3.31393,3,0.0188684,11,0.000842406,-2.47966,-1.43968,-0.0409814,-5.30161,0.254202,
2,1,0,1,0,3660.92,0.261983,0.261738,3.25405,3,0.0191764,11,0.000851707,-2.48758,-1.03495,-0.0570074,-7.26519,0.261738,
2,1,0,1,0,3661.01,0.26947,0.269192,3.22243,3,0.0194801,11,0.000867453,-2.49182,-1.38483,-0.0426046,-5.35811,0.2691924,
2,1,0,1,0,3661.11,0.276959,0.276664,3.184,3,0.0197798,11,0.0008809,-2.49703,-4.67302,-0.0126257,-1.56675,0.276664,
2,1,0,1,0,3661.2,0.284461,0.284209,3.13853,3,0.0200764,11,0.000892,-2.50327,-2.00883,-0.0293703,-3.59706,0.284209,
2,1,0,1,0,3661.3,0.29195,0.291707,3.10605,3,0.0203687,11,0.000906058,-2.50779,-0.74816,-0.0788602,-9.54624,0.291707,
2,1,0,1,0,3661.39,0.299438,0.299184,3.07051,3,0.0206576,11,0.000918646,-2.51279,-0.0189263,-3.11735,-325.492,0.299184,
2,0,0,1,0,3661.47,0.29424,0.293956,-1.17647,3,0.0206592,11,-0.00034583,-2.92942,-0.035014,-1.68504,73.5253,0.293956,
2,0,0,1,0,3661.56,0.286753,0.286437,-1.47158,3,0.0205336,11,-0.000421515,-2.83222,-0.11898,-0.49588,28.4232,0.286437,
2,0,0,1,0,3661.66,0.279264,0.278972,-1.66844,3,0.0203862,11,-0.000465447,-2.77769,-0.152317,-0.387351,25.1752,0.278972,
2,0,0,1,0,3661.75,0.271776,0.271518,-1.81344,3,0.0202226,11,-0.000492381,-2.7415,-0.201841,-0.29231,20.7605,0.2715176,
2,0,0,1,0,3661.84,0.26428,0.263981,-1.95975,3,0.0200454,11,-0.000517337,-2.7078,-0.281323,-0.209724,15.9532,0.263981,
2,0,0,1,0,3661.94,0.256786,0.256476,-2.074,3,0.0198568,11,-0.000531932,-2.68319,-0.271468,-0.217337,17.5253,0.256476,
2,0,0,1,0,3662.03,0.249296,0.248981,-2.16926,3,0.0196579,11,-0.000540104,-2.66369,-0.402815,-0.146469,12.4436,0.2489806,
2,0,0,1,0,3662.12,0.241809,0.241542,-2.27781,3,0.019449,11,-0.000550188,-2.64248,-0.458994,-0.128542,11.4621,0.241542,
2,0,0,1,0,3662.22,0.23432,0.234018,-2.38785,3,0.0192304,11,-0.000558798,-2.62199,-0.359832,-0.163965,15.301,0.234018,
2,0,0,1,0,3662.31,0.226833,0.226538,-2.49446,3,0.0190016,11,-0.00056509,-2.60302,-0.2984,-0.197721,19.2512,0.226538,
2,0,0,1,0,3662.4,0.219329,0.219016,-2.63086,3,0.0187615,11,-0.000576199,-2.5799,-0.387336,-0.152323,15.5792,0.219016,
2,0,0,1,0,3662.5,0.21184,0.211519,-2.76293,3,0.0185099,11,-0.000584413,-2.55863,-0.313207,-0.188374,20.2736,0.211519,
2,0,0,1,0,3662.59,0.204353,0.204028,-2.92253,3,0.0182439,11,-0.000596278,-2.53424,-0.302455,-0.19507,22.3269,0.204028,
2,0,0,1,0,3662.69,0.196863,0.196579,-3.11832,3,0.017961,11,-0.000612995,-2.50608,-0.259072,-0.227736,27.8332,0.196579,
2,0,0,1,0,3662.78,0.189376,0.189058,-3.39824,3,0.017656,11,-0.000642463,-2.46875,-0.189941,-0.310623,41.2543,0.189058,
2,0,0,1,0,3662.87,0.18188,0.181573,-3.7622,3,0.0173213,11,-0.000683113,-2.42456,-0.143092,-0.412323,60.5954,0.181573,
2,0,0,1,0,3662.97,0.174385,0.174068,-4.27707,3,0.0169457,11,-0.0007445,-2.36885,-0.121517,-0.48553,81.1606,0.174068,
2,0,0,1,0,3663.06,0.166896,0.166618,-5.03242,3,0.0165125,11,-0.000838495,-2.29822,-0.0978344,-0.60306,118.34,0.166618,
2,0,0,1,0,3663.15,0.159409,0.159111,-6.10155,3,0.0159945,11,-0.000970822,-2.21456,-0.0837946,-0.704102,167.715,0.1591107,
2,0,0,1,0,3663.25,0.151919,0.151676,-7.53537,3,0.0153581,11,-0.00114293,-2.1229,-0.0841538,-0.701098,206.84,0.151676,
2,0,0,1,0,3663.34,0.144425,0.144147,-9.24606,3,0.0145714,11,-0.00133279,-2.03404,-0.0948417,-0.622089,224.436,0.144147,
2,0,0,1,0,3663.43,0.136929,0.136685,-10.8463,3,0.0136277,11,-0.00148253,-1.96472,-0.126235,-0.467381,197.518,0.136685,
2,0,0,1,0,3663.53,0.129441,0.129146,-12.0501,3,0.0125513,11,-0.00155622,-1.91901,-0.224765,-0.262496,123.305,0.129146,
2,0,0,1,0,3663.62,0.121952,0.121621,-12.6164,3,0.011391,11,-0.00153442,-1.89907,-1.60668,-0.0367217,18.0204,0.121621,
2,0,0,1,0,3663.72,0.114465,0.114141,-12.3455,3,0.0102164,11,-0.00140913,-1.90849,0.299138,0.197233,-94.746,0.114141,
2,0,0,1,0,3663.81,0.106976,0.10671,-11.227,3,0.00910779,11,-0.00119803,-1.94974,0.138597,0.425694,-186.418,0.10671,
2,0,0,1,0,3663.9,0.0994721,0.0991769,-9.79,3,0.00812204,11,-0.000970942,-2.00922,0.12307,0.479404,-183.459,0.0991769,
2,0,0,1,0,3664,0.0919847,0.09165,-8.671,3,0.00726212,11,-0.000794697,-2.06193,0.178877,0.329836,-111.734,0.09165,
2,0,0,1,0,3664.09,0.0844973,0.0841851,-7.96418,3,0.00648599,11,-0.000670466,-2.09886,0.262244,0.224981,-70.0498,0.0841851,
2,0,0,1,0,3664.18,0.0770082,0.0766641,-7.51138,3,0.00576239,11,-0.000575853,-2.12428,0.277552,0.212573,-62.2801,0.0766641,
2,0,0,1,0,3664.28,0.0695208,0.0692391,-7.09669,3,0.00507885,11,-0.000491368,-2.14894,0.284334,0.207503,-57.4514,0.0692391,
2,0,0,1,0,3664.37,0.0620245,0.0616821,-6.63732,3,0.00443471,11,-0.000409404,-2.17801,0.235912,0.250093,-64.8158,0.0616821,
2,0,0,1,0,3664.46,0.0545282,0.0541966,-6.14507,3,0.00383542,11,-0.000333042,-2.21147,0.223499,0.263984,-63.4,0.0541966,
2,0,0,1,0,3664.56,0.0470408,0.0467113,-5.71703,3,0.00328094,11,-0.00026705,-2.24283,0.251454,0.234635,-52.289,0.0467113,
2,0,0,1,0,3664.65,0.0395517,0.0392393,-5.39245,3,0.00276258,11,-0.000211596,-2.26821,0.397425,0.148456,-31.2189,0.0392393,
2,0,0,1,0,3664.75,0.0320643,0.0317485,-5.18618,3,0.00226813,11,-0.000164654,-2.28515,0.507257,0.116312,-23.5735,0.0317485,
2,0,0,1,0,3664.84,0.0245751,0.0242837,-5.10181,3,0.00178712,11,-0.000123891,-2.29228,1.24803,0.0472746,-9.41278,0.0242837,
2,0,0,1,0,3664.93,0.0170735,0.0167462,-5.07157,3,0.00131052,11,-8.49298e-05,-2.29486,-2.9208,-0.0201999,4.00458,0.0167462,
2,0,0,1,0,3665.03,0.00958429,0.00928207,-5.09807,3,0.000834164,11,-4.73207e-05,-2.29259,-1.64782,-0.0358048,7.13477,0.00928207,
2,0,0,1,0,3665.12,0.0020969,0.00172554,-5.24417,3,0.000353047,11,-9.04903e-06,-2.28032,-0.622087,-0.0948421,19.2177,0.00172554,
2,0,0,1,0,3665.14,0.000199195,-0.000151629,-5.23007,3,0.000228862,11,7.9303e-07,-2.28149, , , ,-0.000151629,