Folder: Figs_alphaMnO2_OER_Tafel_sleope/Figure_codes/Fig_3-5/rawdata_trumpetplot_data/before 10th (part 18)

File: 20221101_1-115_002_TrumpetPlot_ParaChange_07_CV_C01_4.csv
mode,ox/red,error,control changes,counter inc.,time/s,control/V,Ewe/V,<I>/mA,cycle number,(Q-Qo)/C,I Range,P/W,log(|I|),Tafel slope mV/dec,alpha_eff,dI/d(E-IR),E-IR/V,
2,0,0,0,0,6065.6,2.44065e-05,-0.000325324,-1.18507,5,0.0000000E+000,11,3.85533e-07,-2.92625, , , ,-0.000325324,
2,1,0,1,0,6065.97,0.00729063,0.00698199,0.816876,5,0.000216325,11,5.70343e-06,-3.08784,0.114393,0.515767,16.3113,0.00698199,
2,1,0,1,0,6066.34,0.0147802,0.0144765,0.899582,5,0.000542352,11,1.30228e-05,-3.04596,0.234591,0.251502,8.8251,0.0144765,
2,1,0,1,0,6066.71,0.0222725,0.0219544,0.954065,5,0.000893156,11,2.09459e-05,-3.02042,0.354943,0.166224,6.17671,0.0219544,
2,1,0,1,0,6067.09,0.0297644,0.029468,1.00272,5,0.00126194,11,2.95483e-05,-2.99882,0.386876,0.152504,5.95204,0.029468,
2,1,0,1,0,6067.46,0.0372544,0.0369172,1.0532,5,0.00164942,11,3.88812e-05,-2.97749,0.303297,0.194529,8.02443,0.0369172,
2,1,0,1,0,6067.84,0.0447449,0.0444169,1.1232,5,0.00205999,11,4.98891e-05,-2.94954,0.227509,0.25933,11.3919,0.0444169,
2,1,0,1,0,6068.21,0.0522363,0.0519399,1.21851,5,0.00250105,11,6.32891e-05,-2.91417,0.17771,0.332002,15.77,0.0519399,
2,1,0,1,0,6068.59,0.0597291,0.0594529,1.33146,5,0.00298129,11,7.91591e-05,-2.87567,0.18463,0.319558,16.621,0.0594529,
2,1,0,1,0,6068.96,0.0672182,0.0669587,1.46339,5,0.00350677,11,9.79866e-05,-2.83464,0.195361,0.302005,17.1657,0.0669587,
2,1,0,1,0,6069.34,0.0747092,0.074391,1.58663,5,0.00407988,11,0.000118031,-2.79952,0.228149,0.258603,15.9797,0.074391,
2,1,0,1,0,6069.71,0.0822001,0.0819411,1.69607,5,0.0046988,11,0.000138978,-2.77056,0.286444,0.205974,13.6575,0.0819411,
2,1,0,1,0,6070.09,0.0896911,0.0894064,1.80335,5,0.00535802,11,0.000161231,-2.74392,0.333575,0.176872,12.467,0.0894064,
2,1,0,1,0,6070.46,0.097182,0.0968716,1.90802,5,0.0060548,11,0.000184833,-2.71942,0.247491,0.238393,17.7524,0.0968716,
2,1,0,1,0,6070.83,0.104673,0.104351,2.05741,5,0.00679816,11,0.000214692,-2.68668,0.198393,0.29739,23.8514,0.104351,
2,1,0,1,0,6071.21,0.112164,0.111872,2.26369,5,0.00760705,11,0.000253244,-2.64518,0.156617,0.376715,33.2957,0.111872,
2,1,0,1,0,6071.58,0.119655,0.11938,2.55147,5,0.00850978,11,0.000304594,-2.59321,0.15019,0.392837,39.1227,0.11938,
2,1,0,1,0,6071.96,0.127146,0.126835,2.84869,5,0.00952562,11,0.000361315,-2.54535,0.168877,0.349366,38.8768,0.126835,
2,1,0,1,0,6072.33,0.134637,0.134335,3.1197,5,0.0106499,11,0.000419085,-2.50589,0.253635,0.232618,28.3193,0.134335,
2,1,0,1,0,6072.71,0.142128,0.141809,3.27121,5,0.011855,11,0.000463889,-2.48529,0.664021,0.0888526,11.3135,0.141809,
2,1,0,1,0,6073.08,0.149619,0.149295,3.18558,5,0.0130769,11,0.000475591,-2.49681,-0.211321,-0.279197,-34.5381,0.149295,
2,1,0,1,0,6073.46,0.157108,0.156834,2.75497,5,0.0142014,11,0.000432073,-2.55988,-0.0825983,-0.714301,-76.4423,0.156834,
2,1,0,1,0,6073.83,0.164601,0.164273,2.17593,5,0.0151257,11,0.000357447,-2.66236,-0.0686018,-0.860036,-72.9669,0.164273,
2,1,0,1,0,6074.21,0.172092,0.171821,1.71856,5,0.0158518,11,0.000295285,-2.76484,-0.0831046,-0.709948,-47.8922,0.1718214,
2,1,0,1,0,6074.58,0.179582,0.179315,1.44137,5,0.0164427,11,0.00025846,-2.84123,-0.115529,-0.510694,-28.8382,0.179315,
2,1,0,1,0,6074.95,0.187073,0.186797,1.27544,5,0.0169517,11,0.000238248,-2.89434,-0.172481,-0.342066,-17.0118,0.186797,
2,1,0,1,0,6075.33,0.194564,0.194269,1.17518,5,0.0174116,11,0.000228301,-2.92989,-0.25678,-0.229768,-10.5314,0.1942687,
2,1,0,1,0,6075.7,0.202057,0.201772,1.10931,5,0.0178406,11,0.000223828,-2.95495,-0.290575,-0.203046,-8.76479,0.201772,
2,1,0,1,0,6076.08,0.209546,0.209257,1.06,5,0.0182495,11,0.000221811,-2.9747,-0.422568,-0.139622,-5.78435,0.209257,
2,1,0,1,0,6076.45,0.217037,0.216728,1.02695,5,0.0186433,11,0.000222568,-2.98845,-0.74039,-0.0796877,-3.20285,0.216728,
2,1,0,1,0,6076.83,0.224528,0.224245,1.00403,5,0.0190266,11,0.000225148,-2.99825,-0.664251,-0.0888218,-3.47958,0.224245,
2,1,0,1,0,6077.2,0.232019,0.231752,0.983295,5,0.019401,11,0.000227881,-3.00732,-1.02752,-0.0574199,-2.19815,0.231752,
2,1,0,1,0,6077.58,0.23951,0.239214,0.964671,5,0.0197687,11,0.000230763,-3.01562,-1.30279,-0.0452876,-1.70677,0.239214,
2,1,0,1,0,6077.95,0.247001,0.246676,0.952238,5,0.0201304,11,0.000234895,-3.02125,-0.660595,-0.0893135,-3.31429,0.246676,
2,1,0,1,0,6078.33,0.254492,0.254187,0.935294,5,0.0204869,11,0.000237739,-3.02905,-1.10894,-0.0532042,-1.94907,0.254187,
2,1,0,1,0,6078.7,0.261983,0.261697,0.924651,5,0.0208385,11,0.000241978,-3.03402,-1.16303,-0.0507295,-1.83108,0.261697,
2,1,0,1,0,6079.07,0.269474,0.269229,0.91364,5,0.0211862,11,0.000245978,-3.03922,-5.05455,-0.0116726,-0.416066,0.269229,
2,1,0,1,0,6079.45,0.276965,0.276682,0.905177,5,0.0215299,11,0.000250446,-3.04327,-0.946978,-0.0623035,-2.20492,0.276682,
2,1,0,1,0,6079.82,0.284456,0.284238,0.895675,5,0.0218698,11,0.000254585,-3.04785,-2.63212,-0.0224154,-0.782809,0.284238,
2,1,0,1,0,6080.2,0.291947,0.291646,0.88509,5,0.0222061,11,0.000258133,-3.05301,-1.39461,-0.0423058,-1.46113,0.291646,
2,1,0,1,0,6080.57,0.299436,0.299163,0.872947,5,0.0225391,11,0.000261153,-3.05901,-0.00111207,-53.0541,-510.615,0.299163,
2,0,0,1,0,6080.92,0.293745,0.293399,-0.275209,5,0.0225153,11,-8.07461e-05,-3.56034,-0.0364012,-1.62082,16.9042,0.293399,
2,0,0,1,0,6081.29,0.286254,0.28595,-0.36226,5,0.0223912,11,-0.000103588,-3.44098,-0.093013,-0.63432,9.00203,0.28595,
2,0,0,1,0,6081.66,0.278763,0.278495,-0.421838,5,0.0222403,11,-0.00011748,-3.37485,-0.141628,-0.416583,6.83708,0.278495,
2,0,0,1,0,6082.04,0.271272,0.270962,-0.470182,5,0.0220704,11,-0.000127401,-3.32773,-0.190512,-0.309691,5.63694,0.270962,
2,0,0,1,0,6082.41,0.263781,0.263502,-0.505642,5,0.021885,11,-0.000133237,-3.29616,-0.213824,-0.275928,5.45387,0.263502,
2,0,0,1,0,6082.79,0.25629,0.255969,-0.542765,5,0.021686,11,-0.000138931,-3.26539,-0.353238,-0.167026,3.5072,0.255969,
2,0,0,1,0,6083.16,0.248799,0.248473,-0.571938,5,0.0214747,11,-0.000142111,-3.24265,-0.316502,-0.186413,4.17096,0.248473,
2,0,0,1,0,6083.54,0.241308,0.240991,-0.602283,5,0.0212518,11,-0.000145145,-3.2202,-0.342299,-0.172364,4.06352,0.240991,
2,0,0,1,0,6083.91,0.233817,0.233536,-0.632876,5,0.0210175,11,-0.000147799,-3.19868,-0.303355,-0.194491,4.80665,0.233536,
2,0,0,1,0,6084.29,0.226326,0.226002,-0.663187,5,0.0207715,11,-0.000149882,-3.17836,-0.451766,-0.130599,3.39323,0.2260021,
2,0,0,1,0,6084.66,0.218835,0.218504,-0.699189,5,0.0205133,11,-0.000152775,-3.15541,-0.290933,-0.202796,5.53185,0.218504,
2,0,0,1,0,6085.04,0.211344,0.211031,-0.736656,5,0.0202419,11,-0.000155457,-3.13274,-0.390318,-0.151159,4.34436,0.211031,
2,0,0,1,0,6085.41,0.203855,0.20349,-0.778132,5,0.0199551,11,-0.000158342,-3.10895,-0.304019,-0.194067,5.93237,0.20349,
2,0,0,1,0,6085.78,0.196362,0.196048,-0.833226,5,0.0196507,11,-0.000163352,-3.07924,-0.234552,-0.251544,8.17679,0.196048,
2,0,0,1,0,6086.16,0.188871,0.188544,-0.900582,5,0.0193232,11,-0.000169799,-3.04548,-0.166558,-0.35423,12.4714,0.188544,
2,0,0,1,0,6086.53,0.18138,0.181085,-0.999411,5,0.0189652,11,-0.000180978,-3.00026,-0.152253,-0.387512,15.1184,0.1810846,
2,0,0,1,0,6086.91,0.173891,0.1736,-1.13906,5,0.018564,11,-0.000197742,-2.94345,-0.113002,-0.522113,23.196,0.1736,
2,0,0,1,0,6087.28,0.166398,0.166075,-1.3493,5,0.0180978,11,-0.000224085,-2.86989,-0.0924739,-0.638018,33.7406,0.166075,
2,0,0,1,0,6087.66,0.158906,0.158621,-1.68502,5,0.0175301,11,-0.000267279,-2.7734,-0.0708673,-0.832542,54.9607,0.158621,
2,0,0,1,0,6088.03,0.151417,0.151118,-2.17005,5,0.016808,11,-0.000327933,-2.66353,-0.0712592,-0.827964,70.3087,0.151118,
2,0,0,1,0,6088.41,0.143926,0.143611,-2.71117,5,0.01589,11,-0.000389353,-2.56684,-0.0886473,-0.665559,70.2055,0.143611,
2,0,0,1,0,6088.78,0.136435,0.136098,-3.12874,5,0.0147867,11,-0.000425815,-2.50463,-0.170308,-0.346432,42.1414,0.136098,
2,0,0,1,0,6089.16,0.128942,0.128649,-3.31441,5,0.0135697,11,-0.000426395,-2.47959,-1.30127,-0.0453402,5.83687,0.128649,
2,0,0,1,0,6089.53,0.121453,0.121134,-3.24371,5,0.012333,11,-0.000392925,-2.48896,0.298611,0.197582,-24.9512,0.121134,
2,0,0,1,0,6089.9,0.113962,0.113602,-2.98877,5,0.0111583,11,-0.000339532,-2.52451,0.168976,0.349162,-40.7775,0.113602,
2,0,0,1,0,6090.28,0.106471,0.106158,-2.67832,5,0.0100929,11,-0.000284324,-2.57214,0.158392,0.372494,-39.0341,0.106158,
2,0,0,1,0,6090.65,0.0989799,0.0986826,-2.42662,5,0.00913646,11,-0.000239465,-2.615,0.216445,0.272587,-25.8261,0.0986826,
2,0,0,1,0,6091.03,0.0914889,0.0911762,-2.26148,5,0.00825951,11,-0.000206193,-2.64561,0.305194,0.19332,-17.0317,0.0911762,
2,0,0,1,0,6091.4,0.083998,0.0836579,-2.14138,5,0.00743463,11,-0.000179144,-2.66931,0.326092,0.180931,-15.098,0.0836579,
2,0,0,1,0,6091.78,0.076507,0.0762286,-2.04587,5,0.00664804,11,-0.000155954,-2.68912,0.34653,0.170259,-13.5768,0.0762286,
2,0,0,1,0,6092.15,0.0690161,0.0687513,-1.93809,5,0.00589848,11,-0.000133246,-2.71263,0.294216,0.200533,-15.1888,0.0687513,
2,0,0,1,0,6092.53,0.0615251,0.0612555,-1.82047,5,0.00519017,11,-0.000111514,-2.73982,0.244846,0.240968,-17.1581,0.0612555,
2,0,0,1,0,6092.9,0.0540342,0.0537279,-1.6961,5,0.00452905,11,-9.11278e-05,-2.77055,0.264693,0.2229,-14.7321,0.0537279,
2,0,0,1,0,6093.28,0.0465432,0.0462258,-1.58371,5,0.00391281,11,-7.32083e-05,-2.80032,0.294209,0.200538,-12.4082,0.0462258,
2,0,0,1,0,6093.65,0.0390523,0.0386998,-1.50439,5,0.00333271,11,-5.82197e-05,-2.82264,0.31041,0.190071,-11.1515,0.0386998,
2,0,0,1,0,6094.02,0.0315626,0.031217,-1.45635,5,0.00277716,11,-4.54629e-05,-2.83673,0.737873,0.0799596,-4.53742,0.031217,
2,0,0,1,0,6094.4,0.0240704,0.0237584,-1.42552,5,0.00223478,11,-3.38681e-05,-2.84603,2.0487,0.0287987,-1.61156,0.0237584,
2,0,0,1,0,6094.77,0.0165785,0.0162426,-1.42742,5,0.00169721,11,-2.31851e-05,-2.84545,-2.1942,-0.0268891,1.49938,0.0162426,
2,0,0,1,0,6095.15,0.00908846,0.00876995,-1.44063,5,0.00115767,11,-1.26343e-05,-2.84145,-1.21481,-0.0485671,2.72954,0.00876995,
2,0,0,1,0,6095.52,0.0015984,0.00122501,-1.48726,5,0.000609816,11,-1.82191e-06,-2.82761, , , ,0.00122501,
2,0,0,1,0,6095.59,0.000199195,-0.000170778,-1.47098,5,0.000505746,11,2.5121e-07,-2.83239, , , ,-0.000170778,

File: 20221101_1-115_002_TrumpetPlot_ParaChange_07_CV_C01_5.csv
mode,ox/red,error,control changes,counter inc.,time/s,control/V,Ewe/V,<I>/mA,cycle number,(Q-Qo)/C,I Range,P/W,log(|I|),Tafel slope mV/dec,alpha_eff,dI/d(E-IR),E-IR/V,
2,0,0,0,0,7297.23,2.44065e-05,-0.000306236,-1.21098,6,0.0000000E+000,11,3.70847e-07,-2.91686, , , ,-0.000306236,
2,1,0,1,0,7297.59,0.00729063,0.00702355,0.816076,6,0.000217713,11,5.73175e-06,-3.08827,0.116993,0.504304,15.969,0.00702355,
2,1,0,1,0,7297.97,0.0147802,0.0144761,0.89972,6,0.000543431,11,1.30245e-05,-3.04589,0.218157,0.270448,9.46853,0.0144761,
2,1,0,1,0,7298.34,0.0222725,0.0219836,0.95608,6,0.000894023,11,2.10181e-05,-3.01951,0.307618,0.191796,7.15356,0.0219836,
2,1,0,1,0,7298.72,0.0297644,0.0294823,1.00845,6,0.00126451,11,2.97314e-05,-2.99635,0.324726,0.181692,7.14455,0.0294823,
2,1,0,1,0,7299.09,0.0372544,0.0369228,1.06966,6,0.00165624,11,3.94947e-05,-2.97076,0.300753,0.196174,8.20403,0.0369228,
2,1,0,1,0,7299.47,0.0447449,0.044473,1.15194,6,0.00207442,11,5.12304e-05,-2.93857,0.203218,0.290328,13.0699,0.044473,
2,1,0,1,0,7299.84,0.0522363,0.0519253,1.25056,6,0.00252669,11,6.49355e-05,-2.9029,0.174147,0.338795,16.5711,0.0519253,
2,1,0,1,0,7300.22,0.0597291,0.0594135,1.37144,6,0.00302095,11,8.14822e-05,-2.86282,0.186283,0.316722,16.9523,0.0594135,
2,1,0,1,0,7300.59,0.0672182,0.0669648,1.50156,6,0.00356164,11,0.000100551,-2.82346,0.192976,0.305737,17.8675,0.0669648,
2,1,0,1,0,7300.96,0.0747092,0.0744025,1.62232,6,0.00414949,11,0.000120705,-2.78986,0.257217,0.229378,14.5119,0.0744025,
2,1,0,1,0,7301.34,0.0822001,0.0819239,1.72594,6,0.00478054,11,0.000141396,-2.76297,0.317521,0.185814,12.5409,0.0819239,
2,1,0,1,0,7301.71,0.0896911,0.0894054,1.82729,6,0.00544937,11,0.000163369,-2.73819,0.309359,0.190717,13.6113,0.0894054,
2,1,0,1,0,7302.09,0.097182,0.0968716,1.93295,6,0.00615662,11,0.000187248,-2.71378,0.245982,0.239854,18.1059,0.0968716,
2,1,0,1,0,7302.46,0.104673,0.104397,2.08921,6,0.00691003,11,0.000218107,-2.68002,0.193444,0.304999,24.8274,0.104397,
2,1,0,1,0,7302.84,0.112164,0.111869,2.30515,6,0.00773281,11,0.000257875,-2.6373,0.158874,0.371363,33.3844,0.111869,
2,1,0,1,0,7303.21,0.119655,0.11938,2.58305,6,0.00864984,11,0.000308363,-2.58787,0.166733,0.353859,35.6594,0.11938,
2,1,0,1,0,7303.59,0.127146,0.126862,2.84861,6,0.00967154,11,0.00036138,-2.54537,0.197303,0.299033,33.2651,0.126862,
2,1,0,1,0,7303.96,0.134637,0.134334,3.07379,6,0.0107868,11,0.000412915,-2.51233,0.295281,0.19981,23.9761,0.134334,
2,1,0,1,0,7304.34,0.142128,0.14183,3.18419,6,0.0119677,11,0.000451615,-2.497,1.63409,0.0361056,4.47324,0.14183,
2,1,0,1,0,7304.71,0.149619,0.149329,3.04803,6,0.0131479,11,0.000455158,-2.51598,-0.169692,-0.347689,-41.1252,0.149329,
2,1,0,1,0,7305.08,0.157108,0.156808,2.57361,6,0.0142112,11,0.000403563,-2.58946,-0.0753503,-0.783009,-78.3343,0.156808,
2,1,0,1,0,7305.46,0.164601,0.164302,2.01196,6,0.0150687,11,0.000330569,-2.69638,-0.0696665,-0.846892,-66.4828,0.164302,
2,1,0,1,0,7305.83,0.172092,0.171832,1.60298,6,0.0157435,11,0.000275442,-2.79507,-0.0885926,-0.66597,-42.0116,0.171832,
2,1,0,1,0,7306.21,0.179582,0.179329,1.36952,6,0.0163002,11,0.000245595,-2.86343,-0.129671,-0.454996,-24.4052,0.179329,
2,1,0,1,0,7306.58,0.187073,0.1868,1.22859,6,0.0167869,11,0.0002295,-2.91059,-0.214606,-0.274923,-13.173,0.1868,
2,1,0,1,0,7306.96,0.194564,0.194285,1.14228,6,0.0172321,11,0.000221928,-2.94223,-0.284755,-0.207195,-9.23248,0.194285,
2,1,0,1,0,7307.33,0.202057,0.20177,1.08265,6,0.0176509,11,0.000218445,-2.96551,-0.376206,-0.156829,-6.6148,0.20177,
2,1,0,1,0,7307.71,0.209546,0.209256,1.04481,6,0.018052,11,0.000218633,-2.98096,-0.401338,-0.147008,-5.99602,0.209256,
2,1,0,1,0,7308.08,0.217037,0.216738,1.01198,6,0.0184397,11,0.000219334,-2.99483,-0.833772,-0.0707628,-2.80732,0.2167381,
2,1,0,1,0,7308.46,0.224528,0.224284,0.99044,6,0.0188181,11,0.00022214,-3.00417,-0.760682,-0.077562,-2.99949,0.224284,
2,1,0,1,0,7308.83,0.232019,0.231717,0.97337,6,0.0191886,11,0.000225546,-3.01172,-1.26694,-0.0465689,-1.76719,0.231717,
2,1,0,1,0,7309.2,0.23951,0.239242,0.956137,6,0.0195529,11,0.000228748,-3.01948,-1.16942,-0.0504525,-1.88427,0.239242,
2,1,0,1,0,7309.58,0.247001,0.246719,0.946173,6,0.0199117,11,0.000233439,-3.02403,-0.663241,-0.0889571,-3.27695,0.246719,
2,1,0,1,0,7309.95,0.254492,0.254231,0.929485,6,0.0202658,11,0.000236304,-3.03176,-1.41872,-0.0415867,-1.51344,0.254231,
2,1,0,1,0,7310.33,0.261983,0.261714,0.921952,6,0.0206154,11,0.000241288,-3.03529,-1.14864,-0.051365,-1.8445,0.2617138,
2,1,0,1,0,7310.7,0.269474,0.26921,0.910335,6,0.0209613,11,0.000245071,-3.0408,-4.65561,-0.0126729,-0.449897,0.26921,
2,1,0,1,0,7311.08,0.276965,0.276714,0.900964,6,0.0213035,11,0.00024931,-3.04529,-1.25417,-0.047043,-1.65736,0.276714,
2,1,0,1,0,7311.45,0.284456,0.28417,0.892088,6,0.0216422,11,0.000253505,-3.04959,-1.89136,-0.0311945,-1.08304,0.28417,
2,1,0,1,0,7311.83,0.291947,0.291651,0.882174,6,0.0219773,11,0.000257287,-3.05445,-1.06717,-0.0552862,-1.90678,0.291651,
2,1,0,1,0,7312.2,0.299436,0.299142,0.871414,6,0.0223092,11,0.000260677,-3.05978,-0.00128975,-45.7454,-519.7,0.299142,
2,0,0,1,0,7312.54,0.293745,0.293446,-0.274121,6,0.0222832,11,-8.04397e-05,-3.56206,-0.0375372,-1.57177,16.5154,0.293446,
2,0,0,1,0,7312.92,0.286254,0.285959,-0.359708,6,0.0221595,11,-0.000102862,-3.44405,-0.0906434,-0.650902,9.21421,0.285959,
2,0,0,1,0,7313.29,0.278763,0.278439,-0.41922,6,0.0220093,11,-0.000116727,-3.37756,-0.147466,-0.400093,6.54138,0.278439,
2,0,0,1,0,7313.67,0.271272,0.270958,-0.468201,6,0.0218405,11,-0.000126863,-3.32957,-0.179277,-0.3291,5.97256,0.270958,
2,0,0,1,0,7314.04,0.263781,0.263523,-0.501683,6,0.0216561,11,-0.000132205,-3.29957,-0.253553,-0.232693,4.55649,0.263523,
2,0,0,1,0,7314.42,0.25629,0.256028,-0.537071,6,0.0214583,11,-0.000137505,-3.26997,-0.42097,-0.140153,2.9238,0.256028,
2,0,0,1,0,7314.79,0.248799,0.24849,-0.568064,6,0.0212485,11,-0.000141158,-3.2456,-0.283771,-0.207914,4.61587,0.2484898,
2,0,0,1,0,7315.17,0.241308,0.241042,-0.59592,6,0.0210271,11,-0.000143642,-3.22481,-0.383672,-0.153777,3.59399,0.241042,
2,0,0,1,0,7315.54,0.233817,0.233512,-0.627666,6,0.0207946,11,-0.000146568,-3.20227,-0.339685,-0.17369,4.24611,0.233512,
2,0,0,1,0,7315.91,0.226326,0.226061,-0.658496,6,0.0205506,11,-0.00014886,-3.18145,-0.383385,-0.153892,3.96505,0.2260609,
2,0,0,1,0,7316.29,0.218835,0.218538,-0.69354,6,0.0202949,11,-0.000151565,-3.15893,-0.301847,-0.195463,5.27503,0.218538,
2,0,0,1,0,7316.66,0.211344,0.211011,-0.725135,6,0.0200266,11,-0.000153011,-3.13958,-0.409629,-0.144033,4.08362,0.211011,
2,0,0,1,0,7317.04,0.203855,0.203545,-0.767685,6,0.0197439,11,-0.000156258,-3.11482,-0.308283,-0.191383,5.74509,0.203545,
2,0,0,1,0,7317.41,0.196362,0.196025,-0.816836,6,0.0194447,11,-0.00016012,-3.08787,-0.25105,-0.235013,7.49162,0.196025,
2,0,0,1,0,7317.79,0.188871,0.188548,-0.882131,6,0.0191242,11,-0.000166324,-3.05447,-0.179573,-0.328558,11.2999,0.188548,
2,0,0,1,0,7318.16,0.18138,0.181043,-0.969368,6,0.018776,11,-0.000175497,-3.01351,-0.153503,-0.384358,14.5584,0.1810427,
2,0,0,1,0,7318.54,0.173891,0.173566,-1.0937,6,0.0183884,11,-0.00018983,-2.9611,-0.125839,-0.468852,20.0318,0.173566,
2,0,0,1,0,7318.91,0.166398,0.166101,-1.28693,6,0.017942,11,-0.000213761,-2.89045,-0.0967338,-0.609922,30.7675,0.166101,
2,0,0,1,0,7319.29,0.158906,0.158591,-1.5932,6,0.0174035,11,-0.000252667,-2.79773,-0.0724904,-0.813901,50.7994,0.158591,
2,0,0,1,0,7319.66,0.151417,0.151123,-2.04704,6,0.0167224,11,-0.000309355,-2.68887,-0.0697551,-0.845817,67.6922,0.151123,
2,0,0,1,0,7320.03,0.143926,0.143588,-2.58001,6,0.0158516,11,-0.000370457,-2.58838,-0.0822245,-0.717548,72.169,0.1435875,
2,0,0,1,0,7320.41,0.136435,0.136117,-3.02142,6,0.014794,11,-0.000411265,-2.51979,-0.153314,-0.38483,45.1425,0.136117,
2,0,0,1,0,7320.78,0.128942,0.128629,-3.22442,6,0.0136148,11,-0.000414753,-2.49155,-0.738759,-0.0798636,10.0038,0.1286286,
2,0,0,1,0,7321.16,0.121453,0.121148,-3.18648,6,0.0124055,11,-0.000386035,-2.49669,0.361377,0.163265,-20.2448,0.121148,
2,0,0,1,0,7321.53,0.113962,0.113669,-2.9723,6,0.0112448,11,-0.000337857,-2.52691,0.197854,0.2982,-34.5984,0.113669,
2,0,0,1,0,7321.91,0.106471,0.106151,-2.69103,6,0.01018,11,-0.000285656,-2.57008,0.169934,0.347194,-36.5584,0.106151,
2,0,0,1,0,7322.28,0.0989799,0.0986793,-2.44271,6,0.00921823,11,-0.000241045,-2.61213,0.208281,0.283271,-26.9701,0.0986793,
2,0,0,1,0,7322.66,0.0914889,0.0912215,-2.26883,6,0.0083365,11,-0.000206966,-2.6442,0.303483,0.194409,-17.2052,0.0912215,
2,0,0,1,0,7323.03,0.083998,0.0837206,-2.15623,6,0.00750714,11,-0.00018052,-2.66631,0.343885,0.171569,-14.4062,0.0837206,
2,0,0,1,0,7323.41,0.076507,0.0762096,-2.06509,6,0.00671471,11,-0.00015738,-2.68506,0.3646,0.161821,-13.024,0.07620962,
2,0,0,1,0,7323.78,0.0690161,0.0687147,-1.96265,6,0.00595712,11,-0.000134863,-2.70716,0.329545,0.179035,-13.7601,0.0687147,
2,0,0,1,0,7324.15,0.0615251,0.061192,-1.85396,6,0.00523705,11,-0.000113448,-2.7319,0.269505,0.21892,-15.878,0.061192,
2,0,0,1,0,7324.53,0.0540342,0.0537516,-1.73732,6,0.00456183,11,-9.33837e-05,-2.76012,0.254149,0.232147,-15.6855,0.0537516,
2,0,0,1,0,7324.9,0.0465432,0.0462414,-1.61389,6,0.00393226,11,-7.46284e-05,-2.79213,0.289546,0.203767,-12.8625,0.0462414,
2,0,0,1,0,7325.28,0.0390523,0.038708,-1.52547,6,0.00334195,11,-5.90478e-05,-2.8166,0.302493,0.195046,-11.6112,0.038708,
2,0,0,1,0,7325.65,0.0315626,0.0312359,-1.46625,6,0.0027798,11,-4.57996e-05,-2.83379,0.568051,0.103864,-5.94599,0.0312359,
2,0,0,1,0,7326.03,0.0240704,0.0237904,-1.43011,6,0.00223439,11,-3.40229e-05,-2.84463,1.01161,0.0583229,-3.27137,0.0237904,
2,0,0,1,0,7326.4,0.0165785,0.0162614,-1.42772,6,0.00169611,11,-2.32167e-05,-2.84536,-3.21464,-0.0183535,1.02394,0.0162614,
2,0,0,1,0,7326.78,0.00908846,0.00880188,-1.43685,6,0.00115739,11,-1.2647e-05,-2.84259,-1.33968,-0.0440402,2.46693,0.00880188,
2,0,0,1,0,7327.15,0.0015984,0.00122867,-1.48356,6,0.000611298,11,-1.82281e-06,-2.8287, , , ,0.00122867,
2,0,0,1,0,7327.22,0.000199195,-0.000179706,-1.46368,6,0.000507655,11,2.63032e-07,-2.83455, , , ,-0.000179706,