Folder: Figs_alphaMnO2_OER_Tafel_sleope/Figure_codes/Fig_3-5/rawdata_trumpetplot_data/before 10th (part 14)

File: 20221101_1-115_002_TrumpetPlot_ParaChange_06_CV_C01_5.csv
mode,ox/red,error,control changes,counter inc.,time/s,control/V,Ewe/V,<I>/mA,cycle number,(Q-Qo)/C,I Range,P/W,log(|I|),Tafel slope mV/dec,alpha_eff,dI/d(E-IR),E-IR/V,
2,0,0,1,0,7237.13,2.44065e-05,-0.000363498,-0.524913,6,0.0000000E+000,11,1.90805e-07,-3.27991, , , ,-0.000363498,
2,1,0,1,0,7237.86,0.00729063,0.00699254,0.39988,6,0.000241215,11,2.79618e-06,-3.39807,0.106747,0.552708,8.56653,0.00699254,
2,1,0,1,0,7238.61,0.0147814,0.0144576,0.446145,6,0.000570285,11,6.45019e-06,-3.35052,0.198378,0.297413,5.1901,0.0144576,
2,1,0,1,0,7239.35,0.0222725,0.0220015,0.47823,6,0.000927702,11,1.05218e-05,-3.32036,0.325861,0.181059,3.37021,0.0220015,
2,1,0,1,0,7240.1,0.0297635,0.0294625,0.509682,6,0.00130736,11,1.50165e-05,-3.2927,0.300996,0.196016,3.8967,0.0294625,
2,1,0,1,0,7240.85,0.0372544,0.0369575,0.542049,6,0.00171079,11,2.00328e-05,-3.26596,0.246682,0.239174,5.08132,0.0369575,
2,1,0,1,0,7241.6,0.0447458,0.0445014,0.588166,6,0.00214314,11,2.61742e-05,-3.2305,0.209148,0.282097,6.44825,0.0445014,
2,1,0,1,0,7242.35,0.0522363,0.0519135,0.641979,6,0.00261234,11,3.33274e-05,-3.19248,0.164936,0.357715,8.93393,0.0519135,
2,1,0,1,0,7243.1,0.0597282,0.059436,0.706919,6,0.00312659,11,4.20164e-05,-3.15063,0.173182,0.340681,9.39154,0.059436,
2,1,0,1,0,7243.85,0.0672182,0.0669861,0.774928,6,0.0036909,11,5.19094e-05,-3.11074,0.19733,0.298991,9.00974,0.0669861,
2,1,0,1,0,7244.6,0.0747092,0.0743909,0.836851,6,0.00430431,11,6.22541e-05,-3.07735,0.266246,0.2216,7.22917,0.0743909,
2,1,0,1,0,7245.35,0.0822001,0.081905,0.887516,6,0.00496255,11,7.2692e-05,-3.05182,0.33674,0.175209,6.10158,0.08190497,
2,1,0,1,0,7246.1,0.0896911,0.0893893,0.944453,6,0.00566003,11,8.4424e-05,-3.02482,0.296976,0.198669,7.32285,0.0893893,
2,1,0,1,0,7246.85,0.097182,0.0969182,0.998783,6,0.00639815,11,9.68003e-05,-3.00053,0.226525,0.260457,10.1567,0.0969182,
2,1,0,1,0,7247.59,0.104673,0.104407,1.09002,6,0.00718709,11,0.000113806,-2.96257,0.181868,0.324411,13.7467,0.1044068,
2,1,0,1,0,7248.34,0.112164,0.111842,1.20728,6,0.00805289,11,0.000135025,-2.91819,0.156903,0.376028,17.6647,0.111842,
2,1,0,1,0,7249.09,0.119655,0.119395,1.35798,6,0.00902223,11,0.000162136,-2.86711,0.169413,0.348261,18.4526,0.119395,
2,1,0,1,0,7249.84,0.127146,0.126874,1.49452,6,0.0101034,11,0.000189615,-2.8255,0.189547,0.311268,18.1989,0.126874,
2,1,0,1,0,7250.59,0.134637,0.134344,1.614,6,0.0112824,11,0.000216832,-2.7921,0.336748,0.175205,11.0285,0.134344,
2,1,0,1,0,7251.34,0.142127,0.14184,1.65264,6,0.0125224,11,0.00023441,-2.78182,-2.53419,-0.0232816,-1.49417,0.14184,
2,1,0,1,0,7252.09,0.149619,0.149329,1.53434,6,0.0137368,11,0.000229121,-2.81408,-0.127498,-0.462753,-27.5281,0.1493288,
2,1,0,1,0,7252.84,0.157109,0.156848,1.25999,6,0.0147979,11,0.000197627,-2.89963,-0.0708124,-0.833187,-40.8241,0.156848,
2,1,0,1,0,7253.59,0.164601,0.164308,0.985554,6,0.0156435,11,0.000161935,-3.00632,-0.0725421,-0.81332,-31.3026,0.164308,
2,1,0,1,0,7254.34,0.172091,0.171808,0.798092,6,0.0163163,11,0.000137119,-3.09795,-0.103615,-0.569416,-17.8802,0.171808,
2,1,0,1,0,7255.09,0.179582,0.179303,0.699066,6,0.0168845,11,0.000125345,-3.15548,-0.163305,-0.361288,-9.87874,0.179303,
2,1,0,1,0,7255.83,0.187074,0.186843,0.638085,6,0.0173926,11,0.000119222,-3.19512,-0.251038,-0.235024,-5.83638,0.186843,
2,1,0,1,0,7256.58,0.194564,0.194233,0.598856,6,0.0178644,11,0.000116317,-3.22268,-0.377338,-0.156359,-3.65438,0.194233,
2,1,0,1,0,7257.33,0.202056,0.201801,0.572065,6,0.018312,11,0.000115443,-3.24255,-0.379158,-0.155608,-3.4639,0.201801,
2,1,0,1,0,7258.08,0.209546,0.209268,0.554713,6,0.0187432,11,0.000116084,-3.25593,-0.507565,-0.116241,-2.51474,0.209268,
2,1,0,1,0,7258.83,0.217038,0.216757,0.537349,6,0.0191617,11,0.000116474,-3.26974,-0.811656,-0.0726909,-1.53085,0.216757,
2,1,0,1,0,7259.58,0.224528,0.224275,0.52648,6,0.0195711,11,0.000118076,-3.27862,-0.873388,-0.067553,-1.38844,0.224275,
2,1,0,1,0,7260.33,0.232019,0.231726,0.520552,6,0.0199728,11,0.000120625,-3.28354,-1.29972,-0.0453945,-0.919797,0.231726,
2,1,0,1,0,7261.08,0.23951,0.239257,0.51016,6,0.0203684,11,0.000122059,-3.29229,-2.23255,-0.0264272,-0.525675,0.239257,
2,1,0,1,0,7261.83,0.247001,0.24672,0.50529,6,0.0207588,11,0.000124665,-3.29646,-1.18426,-0.04982,-0.979803,0.2467197,
2,1,0,1,0,7262.58,0.254492,0.254226,0.497854,6,0.0211445,11,0.000126568,-3.3029,-1.32609,-0.0444916,-0.865711,0.254226,
2,1,0,1,0,7263.33,0.261983,0.261694,0.494331,6,0.021526,11,0.000129363,-3.30598,-1.13139,-0.0521481,-1.00336,0.261694,
2,1,0,1,0,7264.07,0.269474,0.269227,0.486957,6,0.0219038,11,0.000131102,-3.31251,2.18823,0.0269624,0.512576,0.269227,
2,1,0,1,0,7264.82,0.276965,0.276683,0.483256,6,0.022278,11,0.000133708,-3.31582,-0.824857,-0.0715275,-1.35281,0.276683,
2,1,0,1,0,7265.57,0.284456,0.284166,0.479667,6,0.022649,11,0.000136305,-3.31906,-2.20038,-0.0268135,-0.50162,0.284166,
2,1,0,1,0,7266.32,0.291947,0.29164,0.472859,6,0.0230166,11,0.000137904,-3.32527,-1.04888,-0.0562505,-1.04228,0.2916396,
2,1,0,1,0,7267.07,0.299437,0.299174,0.469109,6,0.0233812,11,0.000140345,-3.32873,-0.00121112,-48.7154,-275.048,0.299174,
2,0,0,1,0,7267.76,0.293745,0.293427,-0.112477,6,0.0233633,11,-3.30039e-05,-3.94894,-0.027436,-2.15046,8.97988,0.293427,
2,0,0,1,0,7268.5,0.286253,0.285962,-0.161403,6,0.0232487,11,-4.61552e-05,-3.79209,-0.0661347,-0.892119,5.64638,0.285962,
2,0,0,1,0,7269.25,0.278763,0.278464,-0.19192,6,0.0231047,11,-5.34429e-05,-3.71688,-0.106944,-0.551691,4.16081,0.278464,
2,0,0,1,0,7270,0.271272,0.270988,-0.219312,6,0.0229393,11,-5.9431e-05,-3.65894,-0.16642,-0.354526,3.03137,0.270988,
2,0,0,1,0,7270.75,0.263781,0.263491,-0.23908,6,0.0227561,11,-6.29955e-05,-3.62146,-0.200993,-0.293543,2.77444,0.263491,
2,0,0,1,0,7271.5,0.25629,0.256016,-0.26042,6,0.0225576,11,-6.66718e-05,-3.58433,-0.265102,-0.222556,2.2638,0.256016,
2,0,0,1,0,7272.25,0.248799,0.248491,-0.278226,6,0.0223448,11,-6.91366e-05,-3.5556,-0.265344,-0.222353,2.42453,0.248491,
2,0,0,1,0,7273,0.241308,0.240999,-0.295957,6,0.0221189,11,-7.13252e-05,-3.52877,-0.304634,-0.193675,2.23686,0.240999,
2,0,0,1,0,7273.75,0.233817,0.233506,-0.315357,6,0.02188,11,-7.36379e-05,-3.5012,-0.281561,-0.209546,2.56665,0.233506,
2,0,0,1,0,7274.5,0.226326,0.226053,-0.330481,6,0.021628,11,-7.47064e-05,-3.48085,-0.445282,-0.1325,1.71765,0.226053,
2,0,0,1,0,7275.25,0.218835,0.218551,-0.349657,6,0.0213623,11,-7.64179e-05,-3.45636,-0.305947,-0.192844,2.63508,0.218551,
2,0,0,1,0,7276,0.211344,0.211026,-0.368306,6,0.0210825,11,-7.77223e-05,-3.43379,-0.331768,-0.177835,2.57411,0.211026,
2,0,0,1,0,7276.74,0.203854,0.203535,-0.390921,6,0.0207864,11,-7.95662e-05,-3.40791,-0.30935,-0.190723,2.93192,0.203535,
2,0,0,1,0,7277.49,0.196362,0.19608,-0.421958,6,0.0204719,11,-8.27375e-05,-3.37473,-0.227142,-0.25975,4.27613,0.19608,
2,0,0,1,0,7278.24,0.188872,0.188538,-0.456062,6,0.0201338,11,-8.59849e-05,-3.34098,-0.169811,-0.347445,6.17359,0.188538,
2,0,0,1,0,7278.99,0.18138,0.181072,-0.503118,6,0.0197651,11,-9.11006e-05,-3.29833,-0.16054,-0.367511,7.22843,0.181072,
2,0,0,1,0,7279.74,0.17389,0.173565,-0.574554,6,0.0193536,11,-9.97227e-05,-3.24067,-0.114505,-0.51526,11.5005,0.173565,
2,0,0,1,0,7280.49,0.166398,0.166086,-0.677692,6,0.0188777,11,-0.000112555,-3.16897,-0.0940969,-0.627013,16.6986,0.166086,
2,0,0,1,0,7281.24,0.158907,0.158603,-0.848302,6,0.0182993,11,-0.000134543,-3.07145,-0.0672305,-0.877578,29.2232,0.158603,
2,0,0,1,0,7281.99,0.151417,0.151134,-1.1075,6,0.01756,11,-0.000167381,-2.95566,-0.0664799,-0.887486,38.3544,0.1511336,
2,0,0,1,0,7282.74,0.143925,0.14365,-1.39715,6,0.0166105,11,-0.000200701,-2.85476,-0.0829535,-0.711242,38.6068,0.14365,
2,0,0,1,0,7283.49,0.136435,0.136102,-1.61095,6,0.0154658,11,-0.000219254,-2.79292,-0.192226,-0.30693,19.1888,0.136102,
2,0,0,1,0,7284.24,0.128943,0.128647,-1.68473,6,0.0142145,11,-0.000216736,-2.77347,23.9384,0.00246466,-0.161016,0.128647,
2,0,0,1,0,7284.98,0.121453,0.121189,-1.62665,6,0.0129603,11,-0.000197132,-2.78871,0.288834,0.204269,-12.946,0.121189,
2,0,0,1,0,7285.73,0.113962,0.113679,-1.49981,6,0.0117748,11,-0.000170497,-2.82396,0.171663,0.343696,-20.159,0.113679,
2,0,0,1,0,7286.48,0.106471,0.106178,-1.35812,6,0.0106924,11,-0.000144202,-2.86706,0.173015,0.34101,-18.1673,0.106178,
2,0,0,1,0,7287.23,0.0989799,0.0986785,-1.24537,6,0.00970887,11,-0.000122891,-2.9047,0.250927,0.235128,-11.4085,0.09867847,
2,0,0,1,0,7287.98,0.0914889,0.0911888,-1.1712,6,0.00879759,11,-0.000106801,-2.93137,0.334024,0.176634,-8.05195,0.0911888,
2,0,0,1,0,7288.73,0.083998,0.083696,-1.11211,6,0.00793488,11,-9.30788e-05,-2.95385,0.297414,0.198377,-8.59806,0.083696,
2,0,0,1,0,7289.48,0.076507,0.0761544,-1.06855,6,0.00710857,11,-8.1375e-05,-2.9712,0.35691,0.165308,-6.87848,0.0761544,
2,0,0,1,0,7290.23,0.0690161,0.0686902,-1.01187,6,0.00631889,11,-6.95058e-05,-2.99487,0.324148,0.182016,-7.21894,0.0686902,
2,0,0,1,0,7290.98,0.0615251,0.0612599,-0.953215,6,0.0055697,11,-5.83938e-05,-3.02081,0.27896,0.2115,-7.90608,0.0612599,
2,0,0,1,0,7291.73,0.0540342,0.0537331,-0.895808,6,0.00486704,11,-4.81346e-05,-3.04779,0.273225,0.215939,-7.52017,0.0537331,
2,0,0,1,0,7292.48,0.0465441,0.0462055,-0.83648,6,0.00420917,11,-3.86499e-05,-3.07754,0.314392,0.187664,-6.14471,0.0462055,
2,0,0,1,0,7293.22,0.0390523,0.0387294,-0.796333,6,0.00358793,11,-3.08415e-05,-3.09891,0.3299,0.178842,-5.55572,0.0387294,
2,0,0,1,0,7293.97,0.0315618,0.0312592,-0.770465,6,0.00299195,11,-2.40842e-05,-3.11325,0.665842,0.0886096,-2.66285,0.0312592,
2,0,0,1,0,7294.72,0.0240704,0.0238,-0.757881,6,0.00241005,11,-1.80375e-05,-3.1204,2.26821,0.0260117,-0.771532,0.0238,
2,0,0,1,0,7295.47,0.0165796,0.016265,-0.759068,6,0.00183223,11,-1.23462e-05,-3.11972,-1.05963,-0.0556798,1.64823,0.016265,
2,0,0,1,0,7296.22,0.00908846,0.00880478,-0.765633,6,0.00125116,11,-6.74123e-06,-3.11598,-0.915255,-0.0644629,1.92892,0.00880478,
2,0,0,1,0,7296.97,0.00159728,0.0012576,-0.789919,6,0.00065964,11,-9.93404e-07,-3.10242, , , ,0.0012576,
2,0,0,1,0,7297.11,0.000199195,-0.000155446,-0.782641,6,0.000547747,11,1.21659e-07,-3.10644, , , ,-0.0001554464,

File: 20221101_1-115_002_TrumpetPlot_ParaChange_06_CV_C01_6.csv
mode,ox/red,error,control changes,counter inc.,time/s,control/V,Ewe/V,<I>/mA,cycle number,(Q-Qo)/C,I Range,P/W,log(|I|),Tafel slope mV/dec,alpha_eff,dI/d(E-IR),E-IR/V,
2,0,0,1,0,8468.76,2.44065e-05,-0.000268062,-0.553494,7,0.0000000E+000,11,1.4837e-07,-3.25689, , , ,-0.000268062,
2,1,0,1,0,8469.48,0.00729063,0.00698194,0.390033,7,0.000228627,11,2.72319e-06,-3.4089,0.088519,0.666523,10.0628,0.00698194,
2,1,0,1,0,8470.23,0.0147814,0.014482,0.441443,7,0.000552177,11,6.39299e-06,-3.35512,0.171582,0.343859,5.93558,0.014482,
2,1,0,1,0,8470.98,0.0222725,0.0219973,0.476401,7,0.00090659,11,1.04795e-05,-3.32203,0.256423,0.230088,4.2652,0.0219973,
2,1,0,1,0,8471.73,0.0297635,0.0294596,0.511642,7,0.00128599,11,1.50728e-05,-3.29103,0.260812,0.226216,4.49608,0.0294596,
2,1,0,1,0,8472.48,0.0372544,0.036931,0.546315,7,0.00169212,11,2.0176e-05,-3.26256,0.222217,0.265507,5.69308,0.036931,
2,1,0,1,0,8473.23,0.0447458,0.0444559,0.59732,7,0.00213026,11,2.65544e-05,-3.22379,0.194102,0.303964,7.08213,0.0444559,
2,1,0,1,0,8473.98,0.0522363,0.0519347,0.6527,7,0.00260803,11,3.38978e-05,-3.18529,0.159753,0.369321,9.3947,0.0519347,
2,1,0,1,0,8474.73,0.0597282,0.0594505,0.721137,7,0.0031326,11,4.2872e-05,-3.14198,0.180761,0.326399,9.18524,0.0594505,
2,1,0,1,0,8475.48,0.0672182,0.0669193,0.785818,7,0.00370685,11,5.25864e-05,-3.10468,0.238778,0.247091,7.56258,0.06691929,
2,1,0,1,0,8476.23,0.0747092,0.0744005,0.845211,7,0.0043276,11,6.28841e-05,-3.07304,0.270181,0.218372,7.1967,0.07440047,
2,1,0,1,0,8476.98,0.0822001,0.0819018,0.89112,7,0.00499021,11,7.29843e-05,-3.05006,0.36203,0.16297,5.7054,0.0819018,
2,1,0,1,0,8477.72,0.0896911,0.0893723,0.947053,7,0.00568999,11,8.46403e-05,-3.02363,0.29882,0.197443,7.30285,0.0893723,
2,1,0,1,0,8478.47,0.097182,0.0968673,1.00215,7,0.00642957,11,9.70755e-05,-2.99907,0.216035,0.273104,10.6946,0.0968673,
2,1,0,1,0,8479.22,0.104673,0.10441,1.09235,7,0.00722118,11,0.000114052,-2.96164,0.184532,0.319727,13.583,0.10441,
2,1,0,1,0,8479.97,0.112164,0.111866,1.20976,7,0.00808997,11,0.000135331,-2.9173,0.167255,0.352756,16.619,0.111866,
2,1,0,1,0,8480.72,0.119655,0.119369,1.34693,7,0.00905674,11,0.000160781,-2.87066,0.198817,0.296756,15.5917,0.119369,
2,1,0,1,0,8481.47,0.127146,0.126852,1.46108,7,0.0101219,11,0.000185342,-2.83532,0.237212,0.248723,14.2525,0.126852,
2,1,0,1,0,8482.22,0.134637,0.134346,1.56194,7,0.0112703,11,0.000209841,-2.80634,0.397766,0.148329,9.06629,0.134346,
2,1,0,1,0,8482.97,0.142127,0.141802,1.58974,7,0.0124687,11,0.000225429,-2.79867,-0.961944,-0.0613341,-3.78516,0.141802,
2,1,0,1,0,8483.72,0.149619,0.149361,1.46027,7,0.013632,11,0.000218107,-2.83557,-0.112438,-0.524732,-29.7561,0.149361,
2,1,0,1,0,8484.47,0.157109,0.1568,1.18855,7,0.0146371,11,0.000186364,-2.92498,-0.0712612,-0.82794,-38.333,0.1568,
2,1,0,1,0,8485.22,0.164601,0.164304,0.937746,7,0.015437,11,0.000154075,-3.02791,-0.0774813,-0.761474,-27.877,0.164304,
2,1,0,1,0,8485.96,0.172091,0.171803,0.773404,7,0.0160829,11,0.000132873,-3.11159,-0.11302,-0.52203,-15.8857,0.171803,
2,1,0,1,0,8486.71,0.179582,0.179315,0.684257,7,0.0166374,11,0.000122698,-3.16478,-0.180492,-0.326883,-8.76848,0.179315,
2,1,0,1,0,8487.46,0.187074,0.186802,0.632654,7,0.0171389,11,0.000118181,-3.19883,-0.274745,-0.214745,-5.28375,0.1868016,
2,1,0,1,0,8488.21,0.194564,0.19428,0.595429,7,0.0176074,11,0.00011568,-3.22517,-0.36608,-0.161167,-3.75153,0.19428,
2,1,0,1,0,8488.96,0.202056,0.201779,0.571556,7,0.0180541,11,0.000115328,-3.24294,-0.413369,-0.142729,-3.1742,0.201779,
2,1,0,1,0,8489.71,0.209546,0.209256,0.553426,7,0.0184854,11,0.000115807,-3.25694,-0.617598,-0.0955313,-2.06613,0.209256,
2,1,0,1,0,8490.46,0.217038,0.21673,0.538692,7,0.0189046,11,0.000116751,-3.26866,-0.846581,-0.0696921,-1.47004,0.21673,
2,1,0,1,0,8491.21,0.224528,0.224233,0.530122,7,0.019315,11,0.000118871,-3.27562,-1.02652,-0.0574756,-1.18605,0.224233,
2,1,0,1,0,8491.96,0.232019,0.231758,0.520596,7,0.0197178,11,0.000120652,-3.2835,-0.921908,-0.0639977,-1.29874,0.231758,
2,1,0,1,0,8492.71,0.23951,0.239214,0.512839,7,0.0201146,11,0.000122678,-3.29002,-1.67928,-0.0351341,-0.704116,0.239214,
2,1,0,1,0,8493.46,0.247001,0.246708,0.506739,7,0.0205059,11,0.000125017,-3.29522,-0.994566,-0.0593224,-1.16895,0.246708,
2,1,0,1,0,8494.2,0.254492,0.254238,0.499584,7,0.0208925,11,0.000127013,-3.30139,-1.53018,-0.0385575,-0.752801,0.254238,
2,1,0,1,0,8494.95,0.261983,0.261704,0.49394,7,0.0212747,11,0.000129266,-3.30633,-1.61736,-0.0364791,-0.702846,0.261704,
2,1,0,1,0,8495.7,0.269474,0.269152,0.489711,7,0.0216533,11,0.000131807,-3.31006,-8.12163,-0.00726455,-0.138549,0.269152,
2,1,0,1,0,8496.45,0.276965,0.276666,0.48347,7,0.0220281,11,0.00013376,-3.31563,-1.07988,-0.0546358,-1.03342,0.2766656,
2,1,0,1,0,8497.2,0.284456,0.284145,0.481015,7,0.0223996,11,0.000136678,-3.31784,-1.43486,-0.0411189,-0.771308,0.284145,
2,1,0,1,0,8497.95,0.291947,0.291652,0.474136,7,0.0227676,11,0.000138283,-3.3241,-1.69943,-0.0347176,-0.644417,0.291652,
2,1,0,1,0,8498.7,0.299437,0.299161,0.47064,7,0.0231324,11,0.000140797,-3.32731,-0.000730449,-80.7722,-267.585,0.299161,
2,0,0,1,0,8499.38,0.293745,0.293455,-0.107838,7,0.0231206,11,-3.16456e-05,-3.96723,-0.0243536,-2.42264,9.7967,0.293455,
2,0,0,1,0,8500.13,0.286253,0.285936,-0.155727,7,0.0230099,11,-4.45278e-05,-3.80764,-0.0689588,-0.855583,5.23902,0.285936,
2,0,0,1,0,8500.88,0.278763,0.278496,-0.189141,7,0.022869,11,-5.26749e-05,-3.72321,-0.112794,-0.523078,3.86352,0.278496,
2,0,0,1,0,8501.63,0.271272,0.270973,-0.217699,7,0.0227064,11,-5.89907e-05,-3.66214,-0.15372,-0.383815,3.23846,0.270973,
2,0,0,1,0,8502.38,0.263781,0.26347,-0.237704,7,0.0225258,11,-6.2628e-05,-3.62396,-0.218583,-0.26992,2.51185,0.26347,
2,0,0,1,0,8503.13,0.25629,0.255974,-0.258549,7,0.0223296,11,-6.61819e-05,-3.58746,-0.281947,-0.209259,2.10615,0.255974,
2,0,0,1,0,8503.88,0.248799,0.248503,-0.276226,7,0.0221193,11,-6.86432e-05,-3.55873,-0.318144,-0.185451,1.9944,0.2485033,
2,0,0,1,0,8504.63,0.241308,0.241,-0.292646,7,0.0218959,11,-7.05277e-05,-3.53366,-0.326461,-0.180726,2.07605,0.241,
2,0,0,1,0,8505.38,0.233817,0.233514,-0.310651,7,0.0216596,11,-7.25416e-05,-3.50773,-0.265222,-0.222455,2.68312,0.233514,
2,0,0,1,0,8506.13,0.226326,0.226016,-0.329885,7,0.0214103,11,-7.45594e-05,-3.48164,-0.39484,-0.149428,1.91958,0.2260163,
2,0,0,1,0,8506.87,0.218835,0.218548,-0.345862,7,0.0211479,11,-7.55875e-05,-3.4611,-0.265521,-0.222205,2.9834,0.218548,
2,0,0,1,0,8507.62,0.211344,0.21106,-0.365687,7,0.0208716,11,-7.71821e-05,-3.43689,-0.371278,-0.158911,2.26967,0.21106,
2,0,0,1,0,8508.37,0.203854,0.20354,-0.38625,7,0.0205797,11,-7.86173e-05,-3.41313,-0.28485,-0.207127,3.13824,0.20354,
2,0,0,1,0,8509.12,0.196362,0.196062,-0.412422,7,0.0202705,11,-8.08602e-05,-3.38466,-0.249308,-0.236655,3.80918,0.196062,
2,0,0,1,0,8509.87,0.188872,0.188527,-0.445134,7,0.0199394,11,-8.39198e-05,-3.35151,-0.176271,-0.334712,5.80789,0.188527,
2,0,0,1,0,8510.62,0.18138,0.181047,-0.487439,7,0.0195803,11,-8.82491e-05,-3.31208,-0.171175,-0.344676,6.58019,0.181047,
2,0,0,1,0,8511.37,0.17389,0.173607,-0.551837,7,0.0191825,11,-9.58026e-05,-3.25819,-0.13306,-0.44341,9.53155,0.173607,
2,0,0,1,0,8512.12,0.166398,0.166075,-0.643453,7,0.0187272,11,-0.000106861,-3.19148,-0.102107,-0.577827,14.6193,0.166075,
2,0,0,1,0,8512.87,0.158907,0.158578,-0.796598,7,0.0181815,11,-0.000126323,-3.09876,-0.0731595,-0.806457,25.1688,0.158578,
2,0,0,1,0,8513.62,0.151417,0.151123,-1.0299,7,0.0174914,11,-0.000155641,-2.98721,-0.0673096,-0.876547,35.2696,0.151123,
2,0,0,1,0,8514.37,0.143925,0.143615,-1.31106,7,0.0166043,11,-0.000188287,-2.88238,-0.0795754,-0.741435,37.8133,0.143615,
2,0,0,1,0,8515.11,0.136435,0.13612,-1.53273,7,0.0155222,11,-0.000208636,-2.81453,-0.165024,-0.357524,21.2896,0.13612,
2,0,0,1,0,8515.86,0.128943,0.128639,-1.62482,7,0.0143225,11,-0.000209016,-2.78919,-1.2336,-0.0478274,3.0161,0.128639,
2,0,0,1,0,8516.61,0.121453,0.121181,-1.59467,7,0.0131017,11,-0.000193244,-2.79733,0.365224,0.161545,-10.0377,0.121181,
2,0,0,1,0,8517.36,0.113962,0.11367,-1.49325,7,0.0119307,11,-0.000169738,-2.82587,0.220349,0.267757,-15.6465,0.1136705,
2,0,0,1,0,8518.11,0.106471,0.106166,-1.3724,7,0.0108445,11,-0.000145702,-2.86252,0.19826,0.297589,-16.0053,0.106166,
2,0,0,1,0,8518.86,0.0989799,0.0986785,-1.26222,7,0.00984934,11,-0.000124554,-2.89887,0.237873,0.248031,-12.2141,0.0986785,
2,0,0,1,0,8519.61,0.0914889,0.0911761,-1.18453,7,0.0089267,11,-0.000108001,-2.92645,0.327384,0.180217,-8.31711,0.0911761,
2,0,0,1,0,8520.36,0.083998,0.0837098,-1.12506,7,0.00805415,11,-9.41787e-05,-2.94882,0.318567,0.185204,-8.12367,0.0837098,
2,0,0,1,0,8521.11,0.076507,0.0761894,-1.0805,7,0.00721833,11,-8.23225e-05,-2.96638,0.391121,0.150848,-6.35594,0.0761894,
2,0,0,1,0,8521.86,0.0690161,0.068704,-1.02879,7,0.00641723,11,-7.06817e-05,-2.98767,0.322128,0.183157,-7.39023,0.068704,
2,0,0,1,0,8522.61,0.0615251,0.0612504,-0.976267,7,0.00565338,11,-5.97967e-05,-3.01043,0.269451,0.218964,-8.36671,0.0612504,
2,0,0,1,0,8523.35,0.0540342,0.0537596,-0.918623,7,0.00493349,11,-4.93849e-05,-3.03686,0.27479,0.21471,-7.68147,0.0537596,
2,0,0,1,0,8524.1,0.0465441,0.0462253,-0.856758,7,0.00425879,11,-3.96039e-05,-3.06714,0.283646,0.208006,-6.97242,0.0462253,
2,0,0,1,0,8524.85,0.0390523,0.0387507,-0.814301,7,0.00362341,11,-3.15547e-05,-3.08922,0.286701,0.205789,-6.51547,0.03875066,
2,0,0,1,0,8525.6,0.0315618,0.0312465,-0.782743,7,0.00301763,11,-2.4458e-05,-3.10638,0.591713,0.0997105,-3.04061,0.0312465,
2,0,0,1,0,8526.35,0.0240704,0.0238435,-0.761866,7,0.00242981,11,-1.81655e-05,-3.11812,1.17784,0.0500916,-1.49863,0.0238435,
2,0,0,1,0,8527.1,0.0165796,0.0162673,-0.760869,7,0.00184955,11,-1.23773e-05,-3.11869,-1.51108,-0.039045,1.15958,0.0162673,
2,0,0,1,0,8527.85,0.00908846,0.00880796,-0.765122,7,0.00126861,11,-6.73917e-06,-3.11627,-2.17348,-0.0271454,0.811305,0.00880796,
2,0,0,1,0,8528.6,0.00159728,0.00122062,-0.788368,7,0.000678947,11,-9.62299e-07,-3.10327, , , ,0.00122062,
2,0,0,1,0,8528.74,0.000199195,-0.000153538,-0.781872,7,0.000567512,11,1.20047e-07,-3.10686, , , ,-0.000153538,