Folder: Figs_alphaMnO2_OER_Tafel_sleope/Figure_codes/Fig_3-5/rawdata_trumpetplot_data/before 10th (part 45)

File: 20221101_1-115_002_TrumpetPlot_ParaChange_13_CV_C01_4.csv
mode,ox/red,error,control changes,counter inc.,time/s,control/V,Ewe/V,<I>/mA,cycle number,(Q-Qo)/C,I Range,P/W,log(|I|),Tafel slope mV/dec,alpha_eff,dI/d(E-IR),E-IR/V,
2,1,0,0,0,6140.71,2.44065e-05,-0.000535284,13.92,5,0.0000000E+000,10,-7.45117e-06,-1.85636, , , ,-0.000535284,
2,1,0,1,0,6140.73,0.0100623,0.00975172,16.3806,5,0.000373687,10,0.00015974,-1.78567,0.142362,0.414437,263.535,0.00975172,
2,1,0,1,0,6140.76,0.0204636,0.0201649,18.3677,5,0.000828712,10,0.000370383,-1.73594,0.315375,0.187079,133.86,0.0201649,
2,1,0,1,0,6140.78,0.0308677,0.0305558,19.4299,5,0.00132146,10,0.000593698,-1.71153,0.594967,0.0991652,75.0094,0.0305558,
2,1,0,1,0,6140.81,0.0412635,0.0409213,20.0898,5,0.00183533,10,0.0008221,-1.69702,0.773473,0.0762794,59.7987,0.0409213,
2,1,0,1,0,6140.83,0.051662,0.0513006,20.7747,5,0.00236656,10,0.00106575,-1.68247,0.611663,0.0964584,78.3644,0.0513006,
2,1,0,1,0,6140.86,0.0620633,0.0617095,21.7411,5,0.00291886,10,0.00134163,-1.66272,0.465506,0.126744,107.567,0.0617095,
2,1,0,1,0,6140.89,0.0724674,0.0721026,23.0645,5,0.00350057,10,0.00166301,-1.63706,0.374461,0.15756,141.813,0.0721026,
2,1,0,1,0,6140.91,0.0828632,0.082555,24.6613,5,0.00412072,10,0.00203592,-1.60798,0.344703,0.171162,164.914,0.082555,
2,1,0,1,0,6140.94,0.0932618,0.0929788,26.6147,5,0.00478683,10,0.0024746,-1.57488,0.309626,0.190553,197.865,0.0929788,
2,1,0,1,0,6140.96,0.103669,0.103302,28.6477,5,0.00550521,10,0.00295936,-1.54291,0.329423,0.179101,200.183,0.103302,
2,1,0,1,0,6140.99,0.114067,0.11378,30.7499,5,0.00627735,10,0.00349872,-1.51216,0.339256,0.17391,208.672,0.11378,
2,1,0,1,0,6141.02,0.124463,0.124159,32.9916,5,0.00710569,10,0.00409621,-1.4816,0.32783,0.179971,231.876,0.124159,
2,1,0,1,0,6141.04,0.134861,0.134551,35.6424,5,0.00799727,10,0.00479573,-1.44803,0.290312,0.203229,282.892,0.134551,
2,1,0,1,0,6141.07,0.145268,0.144978,38.8236,5,0.00896452,10,0.00562856,-1.4109,0.277814,0.212373,321.706,0.144978,
2,1,0,1,0,6141.09,0.155667,0.155337,42.3022,5,0.0100191,10,0.00657109,-1.37364,0.285834,0.206414,340.695,0.155337,
2,1,0,1,0,6141.12,0.166063,0.165782,45.7137,5,0.0111644,10,0.00757851,-1.33995,0.345567,0.170734,304.343,0.165782,
2,1,0,1,0,6141.15,0.176461,0.176115,48.424,5,0.0123909,10,0.00852818,-1.31494,0.58279,0.101237,190.957,0.176115,
2,1,0,1,0,6141.17,0.186868,0.186593,49.2136,5,0.0136663,10,0.00918288,-1.30792,-1.31853,-0.0447468,-85.6195,0.186593,
2,1,0,1,0,6141.2,0.197267,0.197007,46.1279,5,0.0149154,10,0.00908751,-1.33604,-0.200377,-0.294445,-527.09,0.197007,
2,1,0,1,0,6141.22,0.207662,0.207395,38.5973,5,0.0160235,10,0.00800486,-1.41344,-0.103963,-0.567509,-851.395,0.207395,
2,1,0,1,0,6141.25,0.218061,0.217771,29.6242,5,0.0169076,10,0.00645128,-1.52835,-0.0877785,-0.672146,-779.292,0.217771,
2,1,0,1,0,6141.28,0.228468,0.228162,23.088,5,0.017585,10,0.0052678,-1.63661,-0.114814,-0.513873,-465.273,0.228162,
2,1,0,1,0,6141.3,0.238866,0.238546,19.5911,5,0.0181339,10,0.00467338,-1.70794,-0.195668,-0.301532,-231.211,0.238546,
2,1,0,1,0,6141.33,0.249262,0.248995,17.881,5,0.0186184,10,0.0044523,-1.74761,-0.346848,-0.170103,-119.025,0.248995,
2,1,0,1,0,6141.35,0.259661,0.259385,16.9626,5,0.0190704,10,0.00439984,-1.77051,-0.580835,-0.101578,-67.2979,0.2593852,
2,1,0,1,0,6141.38,0.270068,0.269777,16.3507,5,0.0195028,10,0.00441103,-1.78646,-0.757982,-0.0778382,-49.6606,0.269777,
2,1,0,1,0,6141.41,0.280466,0.280163,15.8494,5,0.0199212,10,0.00444041,-1.79999,-0.798438,-0.0738943,-45.7125,0.280163,
2,1,0,1,0,6141.43,0.290862,0.29056,15.4291,5,0.0203277,10,0.00448308,-1.81166,-0.906787,-0.0650649,-39.1943,0.29056,
2,1,0,0,0,6141.46,0.300012,0.299708,15.1043,5,0.0206773,10,0.00452689,-1.8209,0.000491149,120.126,56166.7,0.299708,
2,0,0,1,0,6141.48,0.290704,0.290449,-0.943479,5,0.0207983,10,-0.000274032,-3.02527,-0.051278,-1.15059,840.984,0.290449,
2,0,0,1,0,6141.5,0.280305,0.280018,-5.72828,5,0.0206987,10,-0.00160402,-2.24198,-0.0515509,-1.1445,249.606,0.280018,
2,0,0,1,0,6141.53,0.269909,0.269576,-7.49122,5,0.0205239,10,-0.00201945,-2.12545,-0.142822,-0.413103,119.848,0.269576,
2,0,0,1,0,6141.56,0.2595,0.259206,-8.46268,5,0.0203157,10,-0.00219358,-2.07249,-0.244966,-0.24085,79.3856,0.259206,
2,0,0,1,0,6141.58,0.249104,0.248804,-9.2037,5,0.0200857,10,-0.00228992,-2.03604,-0.330733,-0.178391,64.0697,0.248804,
2,0,0,1,0,6141.61,0.238705,0.238391,-9.86704,5,0.0198377,10,-0.00235222,-2.00581,-0.36868,-0.16003,61.5935,0.238391,
2,0,0,1,0,6141.63,0.22831,0.228023,-10.4826,5,0.0195731,10,-0.00239026,-1.97953,-0.410586,-0.143697,58.8092,0.228023,
2,0,0,1,0,6141.66,0.2179,0.217581,-11.1342,5,0.0192921,10,-0.00242259,-1.95334,-0.392328,-0.150384,65.3059,0.2175808,
2,0,0,1,0,6141.69,0.207504,0.207205,-11.829,5,0.0189938,10,-0.00245102,-1.92705,-0.366641,-0.16092,74.3818,0.2072047,
2,0,0,1,0,6141.71,0.197106,0.196846,-12.6568,5,0.0186755,10,-0.00249144,-1.89768,-0.334095,-0.176596,87.3642,0.196846,
2,0,0,1,0,6141.74,0.18671,0.186445,-13.713,5,0.0183331,10,-0.00255672,-1.86287,-0.27182,-0.217055,116.274,0.186445,
2,0,0,1,0,6141.76,0.1763,0.175983,-15.1348,5,0.0179589,10,-0.00266348,-1.82002,-0.215775,-0.273433,161.75,0.175983,
2,0,0,1,0,6141.79,0.165905,0.165598,-17.1401,5,0.0175407,10,-0.00283835,-1.76599,-0.173744,-0.339581,227.455,0.165598,
2,0,0,1,0,6141.82,0.155506,0.155177,-19.9749,5,0.0170601,10,-0.00309965,-1.69951,-0.143658,-0.410697,320.652,0.155177,
2,0,0,1,0,6141.84,0.145105,0.144841,-23.8521,5,0.0164925,10,-0.00345477,-1.62247,-0.128441,-0.459357,428.262,0.144841,
2,0,0,1,0,6141.87,0.134701,0.134405,-28.7184,5,0.01581,10,-0.00385988,-1.54184,-0.13219,-0.446328,499.923,0.134405,
2,0,0,1,0,6141.89,0.124305,0.124069,-33.9421,5,0.0149957,10,-0.00421116,-1.46926,-0.154632,-0.381552,504.293,0.124069,
2,0,0,1,0,6141.92,0.113906,0.113673,-38.8881,5,0.014047,10,-0.00442051,-1.41018,-0.20246,-0.291416,441.757,0.113673,
2,0,0,1,0,6141.95,0.103505,0.103251,-43.05,5,0.0129796,10,-0.00444495,-1.36603,-0.288673,-0.204384,342.683,0.103251,
2,0,0,1,0,6141.97,0.0931008,0.09286,-45.8286,5,0.0118204,10,-0.00425565,-1.33886,-0.560699,-0.105226,187.828,0.09286,
2,0,0,1,0,6142,0.0827051,0.0824065,-46.7892,5,0.0106118,10,-0.00385573,-1.32985,10.0675,0.00586046,-10.6779,0.0824065,
2,0,0,1,0,6142.02,0.0723065,0.0720156,-45.636,5,0.0094058,10,-0.00328651,-1.34069,0.52242,0.112936,-200.821,0.0720156,
2,0,0,1,0,6142.05,0.0618996,0.061578,-42.9464,5,0.00825248,10,-0.00264456,-1.36707,0.337792,0.174664,-292.541,0.061578,
2,0,0,1,0,6142.08,0.0515011,0.0512083,-39.9384,5,0.0071759,10,-0.00204518,-1.39861,0.332263,0.17757,-276.742,0.0512083,
2,0,0,1,0,6142.1,0.0411053,0.0408078,-37.1907,5,0.00617383,10,-0.00151767,-1.42957,0.326017,0.180972,-262.765,0.0408078,
2,0,0,1,0,6142.13,0.0307068,0.0304349,-34.4297,5,0.00524218,10,-0.00104787,-1.46307,0.283897,0.207822,-279.109,0.0304349,
2,0,0,1,0,6142.15,0.0202999,0.0200101,-31.3261,5,0.00438684,10,-0.000626839,-1.50409,0.231699,0.254641,-311.057,0.0200101,
2,0,0,1,0,6142.18,0.00990136,0.00958311,-28.2212,5,0.00361404,10,-0.000270447,-1.54942,0.241856,0.243947,-269.102,0.00958311,
2,0,0,1,0,6142.21,-0.000494411,-0.000829017,-26.0206,5,0.00291166,10,2.15715e-05,-1.58468,0.375419,0.157158,-159.636,-0.000829017,
2,0,0,1,0,6142.23,-0.010893,-0.0112348,-24.7452,5,0.00225402,10,0.000278007,-1.60651,0.717058,0.0822806,-79.5374,-0.0112348,
2,0,0,1,0,6142.26,-0.0212998,-0.0216268,-24.2446,5,0.00161855,10,0.000524332,-1.61539,2.84093,0.0207678,-19.6718,-0.02162678,
2,0,0,1,0,6142.28,-0.0316984,-0.0320273,-24.2626,5,0.00098883,10,0.000777063,-1.61506,-2.87626,-0.0205127,19.4266,-0.0320273,
2,0,0,1,0,6142.31,-0.0420942,-0.0424574,-24.5766,5,0.000354486,10,0.00104346,-1.60948,-1.45653,-0.0405074,38.8533,-0.0424574,
2,0,0,1,0,6142.34,-0.0524927,-0.0528261,-25.0661,5,-0.000290676,10,0.00132414,-1.60091,-1.09126,-0.0540657,52.9329,-0.0528261,
2,0,0,1,0,6142.36,-0.0628996,-0.0632,-25.7,5,-0.000950447,10,0.00162424,-1.59007,-0.907697,-0.0649996,65.1913,-0.0632,
2,0,0,1,0,6142.39,-0.0732982,-0.0735941,-26.417,5,-0.00162774,10,0.00194413,-1.57812,-0.797237,-0.0740056,76.2876,-0.0735941,
2,0,0,1,0,6142.41,-0.0836939,-0.0840476,-27.2459,5,-0.00232515,10,0.00228995,-1.5647,-0.750602,-0.0786036,83.5823,-0.0840476,
2,0,0,1,0,6142.44,-0.0940925,-0.0944683,-28.1919,5,-0.00304566,10,0.00266324,-1.54988,-0.655169,-0.0900531,99.1366,-0.0944683,
2,0,0,1,1,6142.46,-0.0978574,-0.0982295,-22.4737,5,-0.00361008,10,0.00220758,-1.64833,-0.0193872,-3.04324,2517.72,-0.0982295,
2,0,0,1,1,6142.49,-0.0874588,-0.0879001,-3.23754,5,-0.00391457,10,0.00028458,-2.48978,-0.00582383,-10.1308,1329.69,-0.0879001,
2,1,0,1,1,6142.51,-0.077052,-0.0775039,7.25515,5,-0.00384872,10,-0.000562302,-2.13935,0.0202947,2.90717,769.017,-0.0775039,
2,1,0,1,1,6142.54,-0.0666562,-0.0670599,13.5158,5,-0.00357151,10,-0.000906368,-1.86916,0.0671039,0.879234,457.587,-0.0670599,
2,1,0,1,1,6142.57,-0.0562576,-0.0565926,17.2336,5,-0.00316698,10,-0.000975293,-1.76362,0.145348,0.405921,271.809,-0.0565926,
2,1,0,1,1,6142.59,-0.0458563,-0.0462484,19.3858,5,-0.00268811,10,-0.000896561,-1.71252,0.291877,0.20214,152.618,-0.0462484,
2,1,0,1,1,6142.62,-0.0354522,-0.0357991,20.5959,5,-0.0021668,10,-0.000737314,-1.68622,0.562077,0.104968,84.1492,-0.03579912,
2,1,0,1,1,6142.64,-0.0250564,-0.0254146,21.1754,5,-0.00162288,10,-0.000538164,-1.67417,1.55216,0.0380116,31.3673,-0.0254146,
2,1,0,1,1,6142.67,-0.0146579,-0.014977,21.3544,5,-0.00106934,10,-0.000319824,-1.67051,8.4877,0.00695124,5.79388,-0.014977,
2,1,0,1,1,6142.7,-0.00425653,-0.004638,21.2997,5,-0.000514263,10,-9.87879e-05,-1.67163,-4.11617,-0.0143337,-11.9185,-0.004638,
2,1,0,0,1,6142.71,-7.54729e-05,-0.000458935,21.2261,5,-0.000290772,10,-9.7414e-06,-1.67313, , , ,-0.000458935,

File: 20221101_1-115_002_TrumpetPlot_ParaChange_13_CV_C01_5.csv
mode,ox/red,error,control changes,counter inc.,time/s,control/V,Ewe/V,<I>/mA,cycle number,(Q-Qo)/C,I Range,P/W,log(|I|),Tafel slope mV/dec,alpha_eff,dI/d(E-IR),E-IR/V,
2,1,0,0,0,7372.33,2.44065e-05,-0.000458935,13.693,6,0.0000000E+000,10,-6.28417e-06,-1.8635, , , ,-0.000458935,
2,1,0,1,0,7372.36,0.0100623,0.00973157,16.318,6,0.000369248,10,0.000158799,-1.78733,0.131173,0.449787,284.731,0.00973157,
2,1,0,1,0,7372.38,0.0204636,0.0201522,18.4586,6,0.000824765,10,0.000371982,-1.7338,0.286694,0.205795,147.955,0.0201522,
2,1,0,1,0,7372.41,0.0308677,0.0305548,19.613,6,0.00132119,10,0.000599271,-1.70746,0.526005,0.112166,85.6542,0.0305548,
2,1,0,1,0,7372.44,0.0412635,0.0409552,20.3736,6,0.00184113,10,0.000834406,-1.69093,0.6636,0.088909,70.681,0.0409552,
2,1,0,1,0,7372.46,0.051662,0.0513197,21.168,6,0.00238107,10,0.00108633,-1.67432,0.538619,0.109539,90.6631,0.0513197,
2,1,0,1,0,7372.49,0.0620633,0.0617604,22.2601,6,0.00294511,10,0.00137479,-1.65247,0.421378,0.140017,121.694,0.0617604,
2,1,0,1,0,7372.51,0.0724674,0.0721482,23.7115,6,0.00354216,10,0.00171074,-1.62504,0.363078,0.162499,150.36,0.0721482,
2,1,0,1,0,7372.54,0.0828632,0.0825083,25.4085,6,0.00418013,10,0.00209641,-1.59502,0.318705,0.185124,183.761,0.0825083,
2,1,0,1,0,7372.57,0.0932618,0.0929682,27.4189,6,0.00486706,10,0.00254909,-1.56195,0.320925,0.183844,196.67,0.0929682,
2,1,0,1,0,7372.59,0.103669,0.103367,29.4571,6,0.00560639,10,0.00304488,-1.53081,0.344664,0.171181,196.739,0.103367,
2,1,0,1,0,7372.62,0.114067,0.113797,31.5411,6,0.00639946,10,0.00358927,-1.50112,0.350212,0.16847,207.408,0.113797,
2,1,0,1,0,7372.64,0.124463,0.124159,33.822,6,0.00724884,10,0.0041993,-1.4708,0.33038,0.178582,235.841,0.124159,
2,1,0,1,0,7372.67,0.134861,0.134559,36.5099,6,0.00816253,10,0.00491276,-1.43759,0.295349,0.199763,284.856,0.134559,
2,1,0,1,0,7372.7,0.145268,0.144977,39.7072,6,0.00915285,10,0.00575662,-1.40113,0.28633,0.206056,319.159,0.144977,
2,1,0,1,0,7372.72,0.155667,0.155343,43.0601,6,0.010229,10,0.0066891,-1.36593,0.307196,0.19206,322.655,0.1553434,
2,1,0,1,0,7372.75,0.166063,0.165709,46.2138,6,0.0113911,10,0.00765804,-1.33523,0.384163,0.153581,276.767,0.165709,
2,1,0,1,0,7372.77,0.176461,0.176143,48.5128,6,0.0126259,10,0.00854521,-1.31414,0.808939,0.0729351,137.788,0.176143,
2,1,0,1,0,7372.8,0.186868,0.186571,48.5085,6,0.0138945,10,0.00905029,-1.31418,-0.605378,-0.0974598,-183.786,0.1865713,
2,1,0,1,0,7372.83,0.197267,0.196981,44.2859,6,0.0151108,10,0.00872349,-1.35373,-0.1608,-0.366916,-630.472,0.196981,
2,1,0,1,0,7372.85,0.207662,0.207393,35.9656,6,0.0161587,10,0.00745903,-1.44411,-0.0924749,-0.638011,-892.53,0.207393,
2,1,0,1,0,7372.88,0.218061,0.217756,27.1391,6,0.0169746,10,0.00590969,-1.5664,-0.0855419,-0.689721,-733.503,0.217756,
2,1,0,1,0,7372.9,0.228468,0.228142,21.1887,6,0.017595,10,0.00483405,-1.6739,-0.118969,-0.495926,-412.324,0.228142,
2,1,0,1,0,7372.93,0.238866,0.238555,18.2031,6,0.0181017,10,0.00434243,-1.73985,-0.219665,-0.268591,-191.33,0.238555,
2,1,0,1,0,7372.96,0.249262,0.248936,16.8276,6,0.0185548,10,0.00418899,-1.77398,-0.416789,-0.141558,-93.1846,0.248936,
2,1,0,1,0,7372.98,0.259661,0.259341,16.1217,6,0.0189824,10,0.00418101,-1.79259,-0.730027,-0.080819,-50.904,0.259341,
2,1,0,1,0,7373.01,0.270068,0.269784,15.6735,6,0.0193953,10,0.00422845,-1.80483,-0.950375,-0.0620807,-37.9481,0.269784,
2,1,0,1,0,7373.03,0.280466,0.280153,15.299,6,0.0197976,10,0.00428608,-1.81534,-0.980281,-0.0601869,-35.914,0.280153,
2,1,0,1,0,7373.06,0.290862,0.290565,14.9553,6,0.0201908,10,0.0043455,-1.8252,-1.08527,-0.0543645,-31.7538,0.290565,
2,1,0,0,0,7373.08,0.300012,0.299689,14.6909,6,0.0205304,10,0.0044027,-1.83295,0.000175991,335.245,150956,0.2996892,
2,0,0,1,0,7373.11,0.290704,0.290384,-1.47739,6,0.0206404,10,-0.000429011,-2.8305,-0.0214216,-2.75423,842.341,0.290384,
2,0,0,1,0,7373.13,0.280305,0.279988,-6.28806,6,0.0205262,10,-0.00176058,-2.20148,-0.0577335,-1.02194,244.873,0.279988,
2,0,0,1,0,7373.16,0.269909,0.269666,-7.95251,6,0.020338,10,-0.00214452,-2.0995,-0.165402,-0.356706,110.063,0.269666,
2,0,0,1,0,7373.19,0.2595,0.259225,-8.8372,6,0.0201189,10,-0.00229082,-2.05369,-0.296269,-0.199143,68.5471,0.259225,
2,0,0,1,0,7373.21,0.249104,0.248785,-9.48599,6,0.0198804,10,-0.00235998,-2.02292,-0.386309,-0.152727,56.5416,0.248785,
2,0,0,1,0,7373.24,0.238705,0.238455,-10.0772,6,0.019626,10,-0.00240295,-1.99666,-0.422394,-0.13968,54.9217,0.238455,
2,0,0,1,0,7373.26,0.22831,0.227999,-10.635,6,0.0193566,10,-0.00242477,-1.97326,-0.44178,-0.133551,55.4616,0.227999,
2,0,0,1,0,7373.29,0.2179,0.217633,-11.2405,6,0.0190723,10,-0.0024463,-1.94922,-0.440595,-0.13391,58.6749,0.217633,
2,0,0,1,0,7373.32,0.207504,0.207209,-11.8754,6,0.0187721,10,-0.00246069,-1.92535,-0.404879,-0.145723,67.6602,0.207209,
2,0,0,1,0,7373.34,0.197106,0.196796,-12.6404,6,0.0184534,10,-0.00248757,-1.89824,-0.35135,-0.167924,82.9592,0.196796,
2,0,0,1,0,7373.37,0.18671,0.186423,-13.6132,6,0.0181124,10,-0.0025378,-1.86604,-0.293007,-0.20136,107.09,0.186423,
2,0,0,1,0,7373.39,0.1763,0.176012,-14.9419,6,0.017742,10,-0.00262995,-1.82559,-0.226877,-0.260053,151.847,0.176012,
2,0,0,1,0,7373.42,0.165905,0.165619,-16.8155,6,0.0173305,10,-0.00278496,-1.77429,-0.180912,-0.326126,214.206,0.165619,
2,0,0,1,0,7373.45,0.155506,0.155253,-19.4924,6,0.0168605,10,-0.00302626,-1.71013,-0.147518,-0.39995,304.703,0.155253,
2,0,0,1,0,7373.47,0.145105,0.144852,-23.209,6,0.0163075,10,-0.00336187,-1.63434,-0.127437,-0.462973,420.095,0.144852,
2,0,0,1,0,7373.5,0.134701,0.134428,-27.9966,6,0.0156429,10,-0.00376353,-1.55289,-0.131208,-0.449667,490.962,0.134428,
2,0,0,1,0,7373.52,0.124305,0.12407,-33.1526,6,0.0148476,10,-0.00411324,-1.47948,-0.151312,-0.389922,504.497,0.12407,
2,0,0,1,0,7373.55,0.113906,0.113669,-38.2143,6,0.0139176,10,-0.0043438,-1.41777,-0.196827,-0.299756,446.453,0.113669,
2,0,0,1,0,7373.58,0.103505,0.103258,-42.4268,6,0.012867,10,-0.00438092,-1.37236,-0.272585,-0.216446,357.762,0.103258,
2,0,0,1,0,7373.6,0.0931008,0.0928314,-45.3701,6,0.0117218,10,-0.00421177,-1.34323,-0.513225,-0.114959,203.108,0.0928314,
2,0,0,1,0,7373.63,0.0827051,0.0824426,-46.5588,6,0.0105226,10,-0.00383842,-1.332,-5.799,-0.0101742,18.4504,0.0824426,
2,0,0,1,0,7373.65,0.0723065,0.0720326,-45.758,6,0.00931813,10,-0.00329607,-1.33953,0.628571,0.0938637,-167.364,0.0720326,
2,0,0,1,0,7373.68,0.0618996,0.0616194,-43.3517,6,0.0081576,10,-0.0026713,-1.36299,0.364206,0.161996,-273.823,0.0616194,
2,0,0,1,0,7373.71,0.0515011,0.0511935,-40.4455,6,0.00706902,10,-0.00207055,-1.39313,0.342628,0.172198,-271.656,0.0511935,
2,0,0,1,0,7373.73,0.0411053,0.0407898,-37.7078,6,0.00605385,10,-0.00153809,-1.42357,0.34098,0.173031,-254.756,0.0407898,
2,0,0,1,0,7373.76,0.0307068,0.0303819,-35.0161,6,0.005108,10,-0.00106386,-1.45573,0.295431,0.199708,-272.856,0.0303819,
2,0,0,1,0,7373.78,0.0202999,0.0199889,-32.0046,6,0.00423626,10,-0.000639737,-1.49479,0.242122,0.243679,-303.889,0.0199889,
2,0,0,1,0,7373.81,0.00990136,0.00957675,-28.7831,6,0.00344693,10,-0.000275649,-1.54086,0.227819,0.258978,-291.213,0.00957675,
2,0,0,1,0,7373.84,-0.000494411,-0.00083644,-26.2867,6,0.00273358,10,2.19872e-05,-1.58026,0.320228,0.184244,-189.167,-0.00083644,
2,0,0,1,0,7373.86,-0.010893,-0.0112359,-24.7686,6,0.00207242,10,0.000278296,-1.6061,0.581261,0.101503,-98.2156,-0.01123585,
2,0,0,1,0,7373.89,-0.0212998,-0.0216703,-24.1261,6,0.00143848,10,0.000522819,-1.61751,1.76409,0.0334449,-31.523,-0.0216703,
2,0,0,1,0,7373.91,-0.0316984,-0.0320357,-24.0679,6,0.000813037,10,0.000771034,-1.61856,-3.60246,-0.0163777,15.3904,-0.0320357,
2,0,0,1,0,7373.94,-0.0420942,-0.0424574,-24.3687,6,0.000183846,10,0.00103463,-1.61317,-1.40661,-0.0419448,39.9129,-0.0424574,
2,0,0,1,0,7373.97,-0.0524927,-0.0527646,-24.889,6,-0.000456225,10,0.00131326,-1.60399,-1.01616,-0.0580616,56.4171,-0.0527646,
2,0,0,1,0,7373.99,-0.0628996,-0.0632456,-25.5498,6,-0.00111163,10,0.00161591,-1.59261,-0.861962,-0.0684485,68.2324,-0.0632456,
2,0,0,1,0,7374.02,-0.0732982,-0.0736493,-26.3018,6,-0.0017855,10,0.00193711,-1.58002,-0.73475,-0.0802994,82.4523,-0.07364928,
2,0,0,1,0,7374.04,-0.0836939,-0.0840498,-27.1805,6,-0.00248061,10,0.00228451,-1.56574,-0.687488,-0.0858196,91.0031,-0.0840498,
2,0,0,1,0,7374.07,-0.0940925,-0.0944152,-28.1724,6,-0.00319999,10,0.00265991,-1.55018,-0.631193,-0.0934738,102.817,-0.0944152,
2,0,0,1,1,7374.09,-0.0978574,-0.0982879,-22.4315,6,-0.00376418,10,0.00220474,-1.64914,-0.0188215,-3.13471,2587.31,-0.0982879,
2,0,0,1,1,7374.12,-0.0874588,-0.0878195,-3.0756,6,-0.004066,10,0.000270098,-2.51207,-0.00663303,-8.89488,1339.19,-0.0878195,
2,1,0,1,1,7374.14,-0.077052,-0.0774827,7.57391,6,-0.0039939,10,-0.000586846,-2.12068,0.0210459,2.8034,776.184,-0.0774827,
2,1,0,1,1,7374.17,-0.0666562,-0.0670472,13.9652,6,-0.00370659,10,-0.000936328,-1.85495,0.0673385,0.87617,471.577,-0.0670472,
2,1,0,1,1,7374.19,-0.0562576,-0.0566213,17.7824,6,-0.00328898,10,-0.00100686,-1.75001,0.146658,0.402298,277.91,-0.0566213,
2,1,0,1,1,7374.22,-0.0458563,-0.0462081,19.9809,6,-0.00279512,10,-0.000923279,-1.69938,0.294106,0.200608,156.048,-0.0462081,
2,1,0,1,1,7374.25,-0.0354522,-0.0358087,21.1792,6,-0.0022583,10,-0.000758399,-1.67409,0.594256,0.0992838,81.8976,-0.0358087,
2,1,0,1,1,7374.27,-0.0250564,-0.0253647,21.7245,6,-0.00169944,10,-0.000551036,-1.66305,1.77387,0.0332606,28.1697,-0.0253647,
2,1,0,1,1,7374.3,-0.0146579,-0.0150173,21.8599,6,-0.00113213,10,-0.000328276,-1.66035,-59.7025,-0.000988233,-0.842759,-0.0150173,
2,1,0,1,1,7374.32,-0.00425653,-0.00459558,21.734,6,-0.000564936,10,-9.98803e-05,-1.66286,-2.38765,-0.0247105,-20.9669,-0.00459558,
2,1,0,0,1,7374.33,-7.54729e-05,-0.000306236,21.6389,6,-0.000337103,10,-6.62662e-06,-1.66476, , , ,-0.000306236,