Folder: Figs_alphaMnO2_OER_Tafel_sleope/Figure_codes/Fig_3-5/rawdata_trumpetplot_data/before 10th (part 20)

File: 20221101_1-115_002_TrumpetPlot_ParaChange_08_CV_C01.mpt
EC-Lab ASCII FILE
Nb header lines : 68

Cyclic Voltammetry

Run on channel : 1 (SN 65296)
User :
CE vs. WE compliance from -10 V to 10 V
Electrode connection : standard
Potential control : Ewe
Ewe ctrl range : min = -1.00 V, max = 1.00 V
Safety Limits :
	Do not start on E overload
Acquisition started on : 11/08/2022 17:30:03.488
Loaded Setting File :  NONE
Saved on :
	File : 20221101_1-115_002_TrumpetPlot_ParaChange_08_CV_C01.mpr
	Directory : C:\Users\NakamuraT\Documents\EC-Lab\Data\Yatsuzuka\20221108_1-115_001_TrumpetPlot\
	Host : 192.109.209.100
Device : SP-50e (SN .003219)
Address : 192.109.209.128
EC-Lab for windows v11.43 (software)
Internet server v11.40 (firmware)
Command interpretor v11.40 (firmware)
Electrode material : Au/Pd
Initial state :
Electrolyte : NaCl (0.2M)
Comments : Fe(CN)63-/Fe(CN)64- 5.10-3 M
Reference electrode : SCE Saturated Calomel Electrode (0.241 V)
Electrode surface area : 0.001 cm2
Characteristic mass : 0.001 g
Equivalent Weight : 0.000 g/eq.
Density : 0.000 g/cm3
Volume (V) : 0.001 cm3
Cycle Definition : Charge/Discharge alternance
Ei (V)              0.000
vs.                 Ref
dE/dt               40.000
dE/dt unit          mV/s
E1 (V)              0.300
vs.                 Ref
Step percent        50
N                   10
E range min (V)     -1.000
E range max (V)     1.000
I Range             10 mA
I Range min         Unset
I Range max         Unset
I Range init        Unset
Bandwidth           5
E2 (V)              0.000
vs.                 Ref
nc cycles           0
Reverse Scan        0
Ef (V)              0.000
vs.                 Eoc

Number of loops : 8
Loop 0 from point number 0 to 1205
Loop 1 from point number 1206 to 2411
Loop 2 from point number 2412 to 3617
Loop 3 from point number 3618 to 4823
Loop 4 from point number 4824 to 6029
Loop 5 from point number 6030 to 7235
Loop 6 from point number 7236 to 8441
Loop 7 from point number 8442 to 9647

mode	ox/red	error	control changes	counter inc.	time/s	control/V	Ewe/V	<I>/mA	cycle number	(Q-Qo)/C	I Range	P/W
2	0	0	1	0	1169.19	2.44065e-05	-0.000268062	-2.18649	1	0.0000000E+000	11	5.86113e-07
2	1	0	1	0	1170.07	0.0352586	0.0349446	1.92409	1	0.00148913	11	6.72366e-05
2	1	0	1	0	1170.96	0.070714	0.0704353	2.41387	1	0.00336456	11	0.000170022
2	1	0	1	0	1171.84	0.106171	0.105908	3.58233	1	0.00598709	11	0.000379396
2	1	0	1	0	1172.73	0.141627	0.141361	6.85812	1	0.0104425	11	0.000969474
2	1	0	1	0	1173.62	0.177082	0.1768	3.46427	1	0.0157508	11	0.000612485
2	1	0	1	0	1174.5	0.212543	0.212309	2.07003	1	0.0180074	11	0.000439486
2	1	0	1	0	1175.39	0.248002	0.247724	1.80372	1	0.0197054	11	0.000446825
2	1	0	1	0	1176.28	0.283459	0.283159	1.68792	1	0.0212532	11	0.000477948
2	0	0	1	0	1177.13	0.282208	0.281885	-0.821238	1	0.0216779	11	-0.000231495
2	0	0	1	0	1178.02	0.246749	0.246445	-1.16034	1	0.0207815	11	-0.000285961
2	0	0	1	0	1178.91	0.211292	0.211014	-1.50704	1	0.0196065	11	-0.000318006
2	0	0	1	0	1179.79	0.175837	0.175527	-2.46777	1	0.0179423	11	-0.000433161
2	0	0	1	0	1180.68	0.14038	0.140069	-6.52514	1	0.0141858	11	-0.000913969
2	0	0	1	0	1181.57	0.104924	0.104628	-4.64091	1	0.00855878	11	-0.000485568
2	0	0	1	0	1182.45	0.0694682	0.069168	-3.16759	1	0.00521777	11	-0.000219096
2	0	0	1	0	1183.34	0.0340083	0.0337095	-2.6334	1	0.00272207	11	-8.87708e-05
2	0	0	1	0	2400.82	0.000299075	-1.71997e-05	-1.42778	2	-1.0423e-05	11	2.45573e-08
2	1	0	1	0	2401.71	0.0357545	0.0355012	1.96615	2	0.0015343	11	6.98007e-05
2	1	0	1	0	2402.6	0.0712107	0.070915	2.61221	2	0.00350352	11	0.000185245
2	1	0	1	0	2403.48	0.106671	0.106395	3.78909	2	0.00632419	11	0.00040314
2	1	0	1	0	2404.37	0.14213	0.141875	6.8248	2	0.0109254	11	0.000968266
2	1	0	1	0	2405.26	0.177587	0.177278	3.26224	2	0.0159686	11	0.000578323
2	1	0	1	0	2406.14	0.213042	0.212757	2.03741	2	0.0181484	11	0.000433472
2	1	0	1	0	2407.03	0.248499	0.248232	1.79083	2	0.0198329	11	0.000444542
2	1	0	1	0	2407.92	0.283955	0.283671	1.68831	2	0.0213764	11	0.000478925
2	0	0	1	0	2408.77	0.281709	0.281384	-0.836364	2	0.021763	11	-0.000235339
2	0	0	1	0	2409.66	0.246252	0.24596	-1.16506	2	0.020859	11	-0.000286557
2	0	0	1	0	2410.55	0.210797	0.210512	-1.4987	2	0.0196853	11	-0.000315495
2	0	0	1	0	2411.43	0.175339	0.174997	-2.41595	2	0.0180491	11	-0.000422783
2	0	0	1	0	2412.32	0.13988	0.139579	-6.3981	2	0.0143689	11	-0.000893039
2	0	0	1	0	2413.21	0.104421	0.104131	-4.75511	2	0.00878915	11	-0.000495155
2	0	0	1	0	2414.09	0.0689643	0.0686929	-3.35532	2	0.00529859	11	-0.000230486
2	0	0	1	0	2414.98	0.033509	0.0332041	-2.6803	2	0.00270551	11	-8.89969e-05
2	0	0	1	0	3632.47	0.000798471	0.000467303	-0.438446	3	-2.30013e-05	11	-2.04887e-07
2	1	0	1	0	3633.35	0.0362583	0.0359651	1.9619	3	0.00150202	11	7.056e-05
2	1	0	1	0	3634.24	0.0717146	0.0714314	2.71915	3	0.00351843	11	0.000194233
2	1	0	1	0	3635.12	0.10717	0.10691	3.86056	3	0.00642773	11	0.000412733
2	1	0	1	0	3636.01	0.142627	0.14239	6.52172	3	0.0109674	11	0.000928626
2	1	0	1	0	3636.9	0.178083	0.177853	3.2072	3	0.0158036	11	0.000570409
2	1	0	1	0	3637.78	0.213539	0.21325	2.01929	3	0.0179507	11	0.000430613
2	1	0	1	0	3638.67	0.248999	0.24875	1.78522	3	0.0196248	11	0.000444075
2	1	0	1	0	3639.56	0.284458	0.284167	1.68337	3	0.0211661	11	0.000478359
2	0	0	1	0	3640.42	0.281212	0.280896	-0.815669	3	0.021546	11	-0.000229118
2	0	0	1	0	3641.3	0.245753	0.245459	-1.14284	3	0.0206621	11	-0.00028052
2	0	0	1	0	3642.19	0.210293	0.209996	-1.45687	3	0.0195137	11	-0.000305938
2	0	0	1	0	3643.07	0.174836	0.174543	-2.28359	3	0.0179396	11	-0.000398585
2	0	0	1	0	3643.96	0.139381	0.139092	-5.94841	3	0.014514	11	-0.000827377
2	0	0	1	0	3644.85	0.103924	0.103614	-4.96519	3	0.00905807	11	-0.000514463
2	0	0	1	0	3645.73	0.0684685	0.0682162	-3.53827	3	0.00541068	11	-0.000241367
2	0	0	1	0	3646.62	0.0330122	0.0327061	-2.71107	3	0.00271269	11	-8.86687e-05
2	0	0	1	0	4864.11	0.00129787	0.000947221	0.176336	4	-2.61052e-05	11	1.67029e-07
2	1	0	1	0	4864.99	0.036755	0.0364795	2.00299	4	0.00152025	11	7.3068e-05
2	1	0	1	0	4865.88	0.0722104	0.0719519	2.84195	4	0.00361156	11	0.000204483
2	1	0	1	0	4866.77	0.107667	0.107383	3.9524	4	0.0066138	11	0.000424422
2	1	0	1	0	4867.65	0.143127	0.142838	6.35635	4	0.0111824	11	0.000907928
2	1	0	1	0	4868.54	0.178585	0.178251	3.12291	4	0.0157604	11	0.000556662
2	1	0	1	0	4869.43	0.214043	0.213746	2.00242	4	0.0178831	11	0.00042801
2	1	0	1	0	4870.31	0.249498	0.249249	1.78707	4	0.0195494	11	0.000445425
2	1	0	1	0	4871.2	0.284955	0.284687	1.68413	4	0.0210873	11	0.000479449
2	0	0	1	0	4872.06	0.280709	0.280399	-0.813346	4	0.0214376	11	-0.000228061
2	0	0	1	0	4872.94	0.245253	0.244966	-1.15132	4	0.0205486	11	-0.000282036
2	0	0	1	0	4873.83	0.209796	0.209504	-1.44085	4	0.0194034	11	-0.000301865
2	0	0	1	0	4874.72	0.174341	0.174041	-2.20021	4	0.0178618	11	-0.000382927
2	0	0	1	0	4875.6	0.138883	0.138585	-5.69508	4	0.0145952	11	-0.000789251
2	0	0	1	0	4876.49	0.103424	0.103073	-5.08414	4	0.00923686	11	-0.000524036
2	0	0	1	0	4877.37	0.0679646	0.0676484	-3.6702	4	0.00548615	11	-0.000248283
2	0	0	1	0	4878.26	0.0325084	0.0322036	-2.75242	4	0.00269641	11	-8.86377e-05
2	1	0	1	0	6095.75	0.00179548	0.00141145	0.562622	5	-2.28462e-05	11	7.94114e-07
2	1	0	1	0	6096.63	0.0372544	0.0369904	2.04112	5	0.00154945	11	7.5502e-05
2	1	0	1	0	6097.52	0.0727143	0.0724539	2.95393	5	0.00371768	11	0.000214024
2	1	0	1	0	6098.41	0.108171	0.107867	4.03794	5	0.00679782	11	0.000435561
[...]
2	1	0	1	0	7329.16	0.073211	0.0729182	3.05354	6	0.00383121	11	0.000222658
2	1	0	1	0	7330.05	0.108666	0.1084	4.12703	6	0.00697833	11	0.000447372
2	1	0	1	0	7330.93	0.144123	0.143858	6.10857	6	0.0116128	11	0.000878765
2	1	0	1	0	7331.82	0.179582	0.179282	2.76239	6	0.01571	11	0.000495247
2	1	0	1	0	7332.71	0.215042	0.214738	1.93025	6	0.0176768	11	0.000414499
2	1	0	1	0	7333.59	0.250499	0.250236	1.76059	6	0.0193047	11	0.000440564
2	1	0	1	0	7334.48	0.285954	0.285665	1.66092	6	0.020822	11	0.000474466
2	0	0	1	0	7335.34	0.279708	0.279407	-0.837304	6	0.0210967	11	-0.000233949
2	0	0	1	0	7336.22	0.244253	0.243935	-1.15636	6	0.0201967	11	-0.000282076
2	0	0	1	0	7337.11	0.208797	0.208492	-1.41694	6	0.0190569	11	-0.00029542
2	0	0	1	0	7338	0.17334	0.173052	-2.08171	6	0.0175656	11	-0.000360245
2	0	0	1	0	7338.88	0.137885	0.137581	-5.34044	6	0.0145305	11	-0.000734741
2	0	0	1	0	7339.77	0.102427	0.102104	-5.14327	6	0.00934878	11	-0.000525146
2	0	0	1	0	7340.66	0.0669685	0.0666596	-3.79109	6	0.00552567	11	-0.000252713
2	0	0	1	0	7341.54	0.0315087	0.031174	-2.81677	6	0.00262632	11	-8.78102e-05
2	1	0	1	0	8559.03	0.00279427	0.00248477	1.01001	7	-6.99575e-06	11	2.50965e-06
2	1	0	1	0	8559.92	0.0382514	0.0379783	2.09164	7	0.00157557	11	7.94371e-05
2	1	0	1	0	8560.8	0.0737104	0.073447	3.08154	7	0.00384842	11	0.00022633
2	1	0	1	0	8561.69	0.10917	0.108883	4.14352	7	0.00700433	11	0.000451157
2	1	0	1	0	8562.57	0.144626	0.144345	5.86859	7	0.0115607	11	0.000847099
2	1	0	1	0	8563.46	0.180082	0.179808	2.66298	7	0.0154328	11	0.000478826
2	1	0	1	0	8564.35	0.215539	0.215243	1.93284	7	0.0173692	11	0.000416029
2	1	0	1	0	8565.23	0.250994	0.2507	1.76121	7	0.0189998	11	0.000441535
2	1	0	1	0	8566.12	0.286451	0.286185	1.66834	7	0.0205212	11	0.000477454
2	0	0	1	0	8566.98	0.279212	0.278919	-0.816307	7	0.0207901	11	-0.000227683
2	0	0	1	0	8567.87	0.243757	0.243459	-1.13193	7	0.0199085	11	-0.000275577
2	0	0	1	0	8568.75	0.2083	0.207966	-1.40461	7	0.0187874	11	-0.000292111
2	0	0	1	0	8569.64	0.172841	0.172568	-1.99721	7	0.0173351	11	-0.000344655
2	0	0	1	0	8570.52	0.13738	0.137067	-5.03588	7	0.0144706	11	-0.000690251
2	0	0	1	0	8571.41	0.101925	0.101633	-5.14925	7	0.00946653	11	-0.000523333
2	0	0	1	0	8572.3	0.0664691	0.0661521	-3.83881	7	0.00561387	11	-0.000253945
2	0	0	1	0	8573.18	0.031012	0.0306836	-2.86644	7	0.00264599	11	-8.79526e-05
2	1	0	1	0	9790.67	0.00329902	0.00299451	1.20908	8	1.0963e-05	11	3.62061e-06
2	1	0	1	0	9791.56	0.0387544	0.0384465	2.17768	8	0.00165806	11	8.37241e-05
2	1	0	1	0	9792.44	0.0742098	0.0739368	3.16152	8	0.00401511	11	0.000233753
2	1	0	1	0	9793.33	0.109667	0.109336	4.25857	8	0.00724156	11	0.000465615
2	1	0	1	0	9794.22	0.145122	0.144853	5.81403	8	0.0118513	11	0.00084218
2	1	0	1	0	9795.1	0.180579	0.180274	2.53826	8	0.0155452	11	0.000457582
2	1	0	1	0	9795.99	0.216038	0.215781	1.89682	8	0.0174268	11	0.000409299
2	1	0	1	0	9796.88	0.251498	0.251211	1.75676	8	0.019041	11	0.000441317
2	1	0	1	0	9797.76	0.286955	0.286653	1.65266	8	0.0205543	11	0.00047374
2	0	0	1	0	9798.62	0.278713	0.278377	-0.846454	8	0.0207711	11	-0.000235633
2	0	0	1	0	9799.51	0.243252	0.242931	-1.15759	8	0.0198669	11	-0.000281214
2	0	0	1	0	9800.39	0.207797	0.207492	-1.4115	8	0.0187311	11	-0.000292875
2	0	0	1	0	9801.28	0.172341	0.172024	-1.98698	8	0.017276	11	-0.00034181
2	0	0	1	0	9802.17	0.136884	0.136576	-4.99338	8	0.0144485	11	-0.000681974
2	0	0	1	0	9803.05	0.101429	0.101099	-5.15495	8	0.00945651	11	-0.000521162
2	0	0	1	0	9803.94	0.0659715	0.0656522	-3.85823	8	0.00559478	11	-0.000253301
2	0	0	1	0	9804.82	0.0305126	0.0302425	-2.89587	8	0.00259984	11	-8.75783e-05
2	0	0	1	0	9805.59	-2.44065e-05	-0.000306236	-2.76685	8	0.0004851	11	8.47309e-07

File: 20221101_1-115_002_TrumpetPlot_ParaChange_08_CV_C01_0.csv
mode,ox/red,error,control changes,counter inc.,time/s,control/V,Ewe/V,<I>/mA,cycle number,(Q-Qo)/C,I Range,P/W,log(|I|),Tafel slope mV/dec,alpha_eff,dI/d(E-IR),E-IR/V,
2,0,0,1,0,1169.19,2.44065e-05,-0.000268062,-2.18649,1,0.0000000E+000,11,5.86113e-07,-2.66025, , , ,-0.000268062,
2,1,0,1,0,1169.37,0.00729063,0.00700318,1.70305,1,0.000202942,11,1.19267e-05,-2.76877,0.230313,0.256173,17.025,0.00700318,
2,1,0,1,0,1169.56,0.014778,0.0145101,1.79418,1,0.000531997,11,2.60338e-05,-2.74613,0.384817,0.15332,10.7188,0.0145101,
2,1,0,1,0,1169.75,0.0222743,0.0219845,1.85359,1,0.000874925,11,4.07503e-05,-2.73199,0.79109,0.0745806,5.39134,0.0219845,
2,1,0,1,0,1169.93,0.0297626,0.0295024,1.89065,1,0.00122624,11,5.57786e-05,-2.72339,0.873831,0.0675188,4.98636,0.02950236,
2,1,0,1,0,1170.12,0.0372544,0.0369812,1.93934,1,0.00158579,11,7.1719e-05,-2.71235,0.803056,0.0734694,5.54875,0.0369812,
2,1,0,1,0,1170.31,0.0447472,0.0444414,1.98717,1,0.00195444,11,8.83126e-05,-2.70177,0.539487,0.109363,8.51945,0.0444414,
2,1,0,1,0,1170.49,0.0522345,0.051971,2.06856,1,0.00233511,11,0.000107505,-2.68433,0.324026,0.182084,14.724,0.051971,
2,1,0,1,0,1170.68,0.0597309,0.0594425,2.18693,1,0.00273393,11,0.000129996,-2.66017,0.257716,0.228934,19.4878,0.0594425,
2,1,0,1,0,1170.87,0.0672182,0.0669749,2.33093,1,0.00315673,11,0.000156114,-2.63247,0.22774,0.259067,23.6274,0.0669749,
2,1,0,1,0,1171.06,0.0747074,0.0744387,2.52809,1,0.00361165,11,0.000188188,-2.59721,0.216506,0.27251,26.8345,0.0744387,
2,1,0,1,0,1171.24,0.0822019,0.0819441,2.74404,1,0.00410593,11,0.000224858,-2.56161,0.220871,0.267124,28.589,0.0819441,
2,1,0,1,0,1171.43,0.0896911,0.0894318,2.95043,1,0.00464203,11,0.000263862,-2.53011,0.219299,0.269039,31.3078,0.0894318,
2,1,0,1,0,1171.62,0.097182,0.0968984,3.22784,1,0.00522309,11,0.000312773,-2.49109,0.197579,0.298615,37.565,0.0968984,
2,1,0,1,0,1171.81,0.104675,0.10445,3.51702,1,0.00585422,11,0.000367353,-2.45382,0.186646,0.316107,43.3155,0.1044499,
2,1,0,1,0,1171.99,0.112162,0.111901,3.89204,1,0.00654625,11,0.000435524,-2.40982,0.152062,0.388,59.0603,0.111901,
2,1,0,1,0,1172.18,0.119655,0.119352,4.46547,1,0.00732615,11,0.000532961,-2.35013,0.117917,0.500351,87.2014,0.119352,
2,1,0,1,0,1172.37,0.127146,0.126881,5.23638,1,0.00823283,11,0.000664398,-2.28097,0.104613,0.563982,115.546,0.126881,
2,1,0,1,0,1172.55,0.134635,0.134339,6.14788,1,0.00930043,11,0.0008259,-2.21127,0.122405,0.482005,115.648,0.134339,
2,1,0,1,0,1172.74,0.14213,0.141844,6.90771,1,0.0105293,11,0.000979817,-2.16067,0.195177,0.30229,81.1945,0.141844,
2,1,0,1,0,1172.93,0.149619,0.149342,7.22872,1,0.0118619,11,0.00107955,-2.14094,4.06897,0.0145,4.0784,0.149342,
2,1,0,1,0,1173.12,0.157106,0.156827,6.8672,1,0.0131948,11,0.00107696,-2.16322,-0.141989,-0.415524,-110.627,0.156827,
2,1,0,1,0,1173.3,0.164602,0.164301,5.61026,1,0.0143764,11,0.000921773,-2.25102,-0.0607256,-0.971584,-211.61,0.164301,
2,1,0,1,0,1173.49,0.172091,0.171801,4.10339,1,0.0152806,11,0.000704968,-2.38686,-0.0582085,-1.0136,-163.802,0.171801,
2,1,0,1,0,1173.68,0.179582,0.179308,3.23681,1,0.0159601,11,0.000580388,-2.48988,-0.0923635,-0.638781,-80.979,0.179308,
2,1,0,1,0,1173.87,0.187074,0.186822,2.75764,1,0.0165179,11,0.000515187,-2.55946,-0.133974,-0.440384,-47.3251,0.186822,
2,1,0,1,0,1174.05,0.194563,0.194296,2.44875,1,0.0170033,11,0.000475783,-2.61106,-0.178435,-0.330653,-31.6366,0.1942963,
2,1,0,1,0,1174.24,0.202059,0.201845,2.25273,1,0.0174427,11,0.000454701,-2.64729,-0.21578,-0.273427,-23.9067,0.201845,
2,1,0,1,0,1174.43,0.209546,0.209275,2.10777,1,0.0178508,11,0.000441104,-2.67618,-0.262392,-0.224855,-18.5642,0.209275,
2,1,0,1,0,1174.61,0.217035,0.21677,2.00356,1,0.0182368,11,0.00043431,-2.6982,-0.437864,-0.134745,-10.6069,0.21677,
2,1,0,1,0,1174.8,0.22453,0.224263,1.9466,1,0.0186079,11,0.00043655,-2.71072,-0.632452,-0.0932877,-7.05508,0.224263,
2,1,0,1,0,1174.99,0.232019,0.231744,1.8865,1,0.0189668,11,0.000437186,-2.72434,-0.802376,-0.0735317,-5.42048,0.231744,
2,1,0,1,0,1175.18,0.23951,0.239243,1.84756,1,0.0193171,11,0.000442016,-2.7334,-0.703006,-0.0839253,-6.04857,0.239243,
2,1,0,1,0,1175.36,0.247003,0.246733,1.81642,1,0.0196601,11,0.000448171,-2.74078,-0.71743,-0.082238,-5.79126,0.246733,
2,1,0,1,0,1175.55,0.25449,0.254237,1.77595,1,0.0199968,11,0.000451512,-2.75057,-1.16902,-0.0504696,-3.51032,0.254237,
2,1,0,1,0,1175.74,0.261983,0.26175,1.75561,1,0.0203283,11,0.000459532,-2.75557,-1.52155,-0.0387762,-2.65059,0.26175,
2,1,0,1,0,1175.93,0.269474,0.269207,1.72824,1,0.020655,11,0.000465256,-2.7624,-2.50034,-0.0235968,-1.59291,0.269207,
2,1,0,1,0,1176.11,0.276963,0.276685,1.70376,1,0.0209772,11,0.000471403,-2.76859,-1.30473,-0.0452202,-3.01824,0.276685,
2,1,0,1,0,1176.3,0.284458,0.284194,1.69035,1,0.0212955,11,0.000480386,-2.77202,-2.58331,-0.0228389,-1.49797,0.284194,
2,1,0,1,0,1176.49,0.291947,0.291677,1.66368,1,0.0216097,11,0.000485256,-2.77893,-0.865552,-0.0681646,-4.42172,0.291677,
2,1,0,1,0,1176.67,0.299434,0.299209,1.64117,1,0.0219202,11,0.000491054,-2.78485,-0.00662143,-8.91046,-398.028,0.299209,
2,0,0,1,0,1176.83,0.294196,0.293879,-0.597607,1,0.0218947,11,-0.000175624,-3.22358,-0.0546288,-1.08002,24.8276,0.293879,
2,0,0,1,0,1177.02,0.286701,0.286419,-0.739905,1,0.0217667,11,-0.000211922,-3.13082,-0.10256,-0.575275,16.9207,0.286419,
2,0,0,1,0,1177.21,0.279212,0.278931,-0.861837,1,0.0216148,11,-0.000240394,-3.06457,-0.162288,-0.363552,12.1554,0.2789315,
2,0,0,1,0,1177.4,0.271725,0.271457,-0.943255,1,0.0214451,11,-0.000256054,-3.02537,-0.158832,-0.371462,13.6315,0.271457,
2,0,0,1,0,1177.58,0.264228,0.263946,-1.01494,1,0.0212604,11,-0.000267888,-2.99356,-0.27291,-0.216188,8.58698,0.263946,
2,0,0,1,0,1177.77,0.256741,0.256471,-1.08676,1,0.0210631,11,-0.000278723,-2.96387,-0.369203,-0.159804,6.71833,0.256471,
2,0,0,1,0,1177.96,0.249248,0.248953,-1.14145,1,0.0208538,11,-0.000284166,-2.94254,-0.453515,-0.130095,5.82299,0.248953,
2,0,0,1,0,1178.14,0.241756,0.241475,-1.19475,1,0.020633,11,-0.000288502,-2.92272,-0.350147,-0.168501,7.95271,0.241475,
2,0,0,1,0,1178.33,0.234268,0.233961,-1.27063,1,0.0204009,11,-0.000297278,-2.89598,-0.306629,-0.192415,9.52101,0.233961,
2,0,0,1,0,1178.52,0.226772,0.22649,-1.3334,1,0.0201562,11,-0.000302002,-2.87504,-0.253578,-0.23267,12.1266,0.2264903,
2,0,0,1,0,1178.71,0.219284,0.21902,-1.41654,1,0.0198984,11,-0.00031025,-2.84877,-0.28376,-0.207923,11.4399,0.21902,
2,0,0,1,0,1178.89,0.211796,0.21149,-1.50241,1,0.0196255,11,-0.000317745,-2.82321,-0.313413,-0.18825,10.9693,0.21149,
2,0,0,1,0,1179.08,0.204301,0.204002,-1.60519,1,0.0193335,11,-0.000327462,-2.79447,-0.284588,-0.207318,13.0674,0.204002,
2,0,0,1,0,1179.27,0.196812,0.196513,-1.74182,1,0.0190196,11,-0.00034229,-2.759,-0.188929,-0.312287,21.3139,0.196513,
2,0,0,1,0,1179.46,0.189321,0.189026,-1.93152,1,0.0186752,11,-0.000365108,-2.7141,-0.159351,-0.370252,27.8848,0.189026,
2,0,0,1,0,1179.64,0.181828,0.181532,-2.18222,1,0.0182903,11,-0.000396144,-2.6611,-0.123164,-0.479036,40.9663,0.181532,
2,0,0,1,0,1179.83,0.174341,0.174062,-2.55509,1,0.0178483,11,-0.000444744,-2.59259,-0.0986252,-0.598224,59.5948,0.174062,
2,0,0,1,0,1180.02,0.166848,0.166574,-3.10264,1,0.017322,11,-0.00051682,-2.50827,-0.0820939,-0.718689,86.7804,0.166574,
2,0,0,1,0,1180.2,0.159357,0.159069,-3.88568,1,0.0166717,11,-0.00061809,-2.41053,-0.0707577,-0.833832,127.023,0.159069,
2,0,0,1,0,1180.39,0.151868,0.151555,-4.94599,1,0.0158455,11,-0.000749591,-2.30575,-0.0773054,-0.763206,147.382,0.1515552,
2,0,0,1,0,1180.58,0.144373,0.144104,-6.02265,1,0.0148138,11,-0.000867885,-2.22021,-0.103001,-0.57281,134.664,0.144104,
2,0,0,1,0,1180.77,0.136884,0.136594,-6.83846,1,0.013601,11,-0.000934091,-2.16504,-0.197266,-0.299088,79.6406,0.136594,
2,0,0,1,0,1180.95,0.129393,0.129113,-7.14946,1,0.0122813,11,-0.000923091,-2.14573,17.4943,0.00337253,-0.9364,0.1291133,
2,0,0,1,0,1181.14,0.1219,0.121599,-6.76091,1,0.0109672,11,-0.000822118,-2.16999,0.155456,0.379529,-99.7617,0.121599,
2,0,0,1,0,1181.33,0.114413,0.114117,-5.79512,1,0.00978631,11,-0.000661323,-2.23694,0.0918512,0.642343,-145.167,0.114117,
2,0,0,1,0,1181.52,0.10692,0.106584,-4.83492,1,0.00879533,11,-0.000515326,-2.31561,0.106487,0.554059,-104.805,0.106584,
2,0,0,1,0,1181.7,0.0994284,0.099129,-4.23529,1,0.00794979,11,-0.00041984,-2.37312,0.173125,0.340795,-56.5505,0.099129,
2,0,0,1,0,1181.89,0.0919401,0.0916663,-3.88214,1,0.00719167,11,-0.000355862,-2.41093,0.243331,0.242468,-36.7318,0.0916663,
2,0,0,1,0,1182.08,0.0844447,0.0841678,-3.62752,1,0.00648852,11,-0.00030532,-2.44039,0.272736,0.216326,-30.573,0.0841678,
2,0,0,1,0,1182.26,0.0769565,0.0766528,-3.388,1,0.00583163,11,-0.0002597,-2.47006,0.235678,0.250342,-33.1276,0.07665281,
2,0,0,1,0,1182.45,0.0694682,0.069168,-3.16759,1,0.00521777,11,-0.000219096,-2.49927,0.248285,0.23763,-29.3274,0.069168,
2,0,0,1,0,1182.64,0.0619728,0.0616797,-2.9621,1,0.00464362,11,-0.000182702,-2.5284,0.256937,0.229628,-26.5761,0.0616797,
2,0,0,1,0,1182.83,0.0544836,0.0542274,-2.80303,1,0.00410375,11,-0.000152001,-2.55237,0.513714,0.11485,-12.5964,0.0542274,
2,0,0,1,0,1183.01,0.0469927,0.0466738,-2.71244,1,0.00358716,11,-0.0001266,-2.56664,0.831096,0.0709906,-7.48745,0.0466738,
2,0,0,1,0,1183.2,0.0394999,0.039204,-2.65319,1,0.00308516,11,-0.000104016,-2.57623,1.17876,0.0500527,-5.18055,0.039204,
2,0,0,1,0,1183.39,0.0320125,0.0316626,-2.62816,1,0.00259049,11,-8.32146e-05,-2.58035,3.85678,0.0152977,-1.57033,0.0316626,
2,0,0,1,0,1183.58,0.0245198,0.0242272,-2.63534,1,0.0020968,11,-6.38467e-05,-2.57916,-4.40442,-0.0133956,1.37868,0.0242272,
2,0,0,1,0,1183.76,0.0170289,0.0167416,-2.65445,1,0.00159985,11,-4.44399e-05,-2.57602,-1.08313,-0.0544716,5.68534,0.0167416,
2,0,0,1,0,1183.95,0.0095397,0.00926452,-2.71161,1,0.00109601,11,-2.51218e-05,-2.56677,-0.711985,-0.0828669,8.75091,0.00926452,
2,0,0,1,0,1184.14,0.00204518,0.00168788,-2.84521,1,0.000581582,11,-4.80237e-06,-2.54589,-0.627252,-0.0940611,10.1707,0.00168788,
2,0,0,1,0,1184.18,0.000177222,-0.000168808,-2.79058,1,0.000450038,11,4.71071e-07,-2.55431, , , ,-0.000168808,