Folder: Figs_alphaMnO2_OER_Tafel_sleope/Figure_codes/Fig_3-5/rawdata_trumpetplot_data/before 10th (part 32)

File: 20221101_1-115_002_TrumpetPlot_ParaChange_10_CV_C01_5.csv
mode,ox/red,error,control changes,counter inc.,time/s,control/V,Ewe/V,<I>/mA,cycle number,(Q-Qo)/C,I Range,P/W,log(|I|),Tafel slope mV/dec,alpha_eff,dI/d(E-IR),E-IR/V,
2,0,0,0,0,7352.53,2.44065e-05,0.000190034,-5.84459,6,0.0000000E+000,11,-1.11067e-06,-2.23325, , , ,0.000190034,
2,1,0,1,0,7352.62,0.0072942,0.00695035,2.60678,6,1.13848e-05,11,1.81181e-05,-2.5839,0.0225217,2.61969,247.568,0.00695035,
2,1,0,1,0,7352.72,0.0147816,0.0144933,3.30243,6,0.000298404,11,4.7863e-05,-2.48117,0.186922,0.31564,40.6191,0.0144933,
2,1,0,1,0,7352.81,0.0222707,0.0219765,3.50648,6,0.000618344,11,7.70602e-05,-2.45513,0.415858,0.141876,19.4147,0.0219765,
2,1,0,1,0,7352.9,0.0297581,0.0294761,3.68949,6,0.000954924,11,0.000108752,-2.43303,0.352808,0.16723,24.0266,0.0294761,
2,1,0,1,0,7353,0.0372544,0.0369575,3.88681,6,0.00130961,11,0.000143647,-2.41041,0.295536,0.199637,30.3236,0.0369575,
2,1,0,1,0,7353.09,0.0447507,0.0444726,4.14925,6,0.00168626,11,0.000184528,-2.38203,0.25768,0.228966,37.1582,0.0444726,
2,1,0,1,0,7353.18,0.0522381,0.0519538,4.48931,6,0.00209028,11,0.000233237,-2.34782,0.206066,0.286316,50.1296,0.0519538,
2,1,0,1,0,7353.28,0.0597273,0.0594865,4.87936,6,0.00252845,11,0.000290256,-2.31164,0.189196,0.311846,59.3771,0.05948649,
2,1,0,1,0,7353.37,0.0672147,0.0669438,5.31603,6,0.00300577,11,0.000355876,-2.27441,0.211592,0.278839,57.8341,0.0669438,
2,1,0,1,0,7353.47,0.0747038,0.0744182,5.76929,6,0.00352442,11,0.000429341,-2.23888,0.235467,0.250566,56.2723,0.0744182,
2,1,0,1,0,7353.56,0.0822055,0.0819223,6.17127,6,0.00408464,11,0.000505565,-2.20963,0.260958,0.22609,54.4373,0.08192227,
2,1,0,1,0,7353.65,0.0896946,0.0894123,6.54311,6,0.00468076,11,0.000585035,-2.18422,0.325269,0.181388,46.3861,0.0894123,
2,1,0,1,0,7353.75,0.097182,0.0969072,6.9289,6,0.00531158,11,0.00067146,-2.15934,0.308068,0.191516,51.7656,0.0969072,
2,1,0,1,0,7353.84,0.104671,0.10441,7.34712,6,0.00597924,11,0.000767114,-2.13388,0.235788,0.250224,71.8899,0.10441,
2,1,0,1,0,7353.93,0.112159,0.111854,7.93899,6,0.0066942,11,0.000888005,-2.10023,0.202222,0.291759,90.5155,0.111854,
2,1,0,1,0,7354.03,0.119655,0.119333,8.74137,6,0.00747444,11,0.00104313,-2.05842,0.179682,0.328359,111.944,0.119333,
2,1,0,1,0,7354.12,0.127149,0.126835,9.62252,6,0.00833462,11,0.00122047,-2.01671,0.183743,0.3211,120.612,0.126835,
2,1,0,1,0,7354.21,0.134639,0.134308,10.4808,6,0.00927724,11,0.00140766,-1.9796,0.228864,0.257794,105.502,0.134308,
2,1,0,1,0,7354.31,0.142126,0.141777,11.1959,6,0.0102942,11,0.00158733,-1.95094,0.319554,0.184632,80.6244,0.141777,
2,1,0,1,0,7354.4,0.149615,0.149309,11.6012,6,0.011365,11,0.00173216,-1.9355,1.31483,0.0448728,20.2612,0.149309,
2,1,0,1,0,7354.5,0.157103,0.15684,11.2845,6,0.0124436,11,0.00176986,-1.94752,-0.23011,-0.256399,-112.419,0.15684,
2,1,0,1,0,7354.59,0.164606,0.164328,9.77831,6,0.0134416,11,0.00160685,-2.00974,-0.0780164,-0.756251,-287.183,0.164328,
2,1,0,1,0,7354.68,0.172095,0.171802,7.48488,6,0.0142499,11,0.00128592,-2.12581,-0.0596445,-0.989194,-289.393,0.171802,
2,1,0,1,0,7354.78,0.179582,0.179301,5.76402,6,0.0148626,11,0.0010335,-2.23927,-0.0816703,-0.722417,-163.626,0.179301,
2,1,0,1,0,7354.87,0.18707,0.186797,4.88835,6,0.0153575,11,0.000913127,-2.31084,-0.128252,-0.460033,-87.9586,0.186797,
2,1,0,1,0,7354.96,0.194559,0.194295,4.39399,6,0.0157897,11,0.000853731,-2.35714,-0.190265,-0.310093,-53.1005,0.194295,
2,1,0,1,0,7355.06,0.202062,0.201787,4.04347,6,0.0161839,11,0.000815919,-2.39325,-0.256055,-0.23042,-36.3443,0.201787,
2,1,0,1,0,7355.15,0.20955,0.209275,3.81331,6,0.0165512,11,0.000798031,-2.4187,-0.28033,-0.210466,-31.3571,0.209275,
2,1,0,1,0,7355.24,0.217039,0.216762,3.65041,6,0.0169001,11,0.00079127,-2.43766,-0.456793,-0.129161,-18.4185,0.216762,
2,1,0,1,0,7355.34,0.224526,0.224232,3.53451,6,0.0172363,11,0.000792549,-2.45167,-0.678558,-0.086949,-11.9947,0.224232,
2,1,0,1,0,7355.43,0.232016,0.231762,3.44687,6,0.0175631,11,0.000798853,-2.46258,-0.817503,-0.072171,-9.70647,0.2317618,
2,1,0,1,0,7355.53,0.23951,0.239247,3.387,6,0.0178831,11,0.000810331,-2.47018,-0.822183,-0.0717602,-9.45899,0.239247,
2,1,0,1,0,7355.62,0.247006,0.246728,3.33006,6,0.0181973,11,0.000821618,-2.47755,-1.41366,-0.0417356,-5.41094,0.246728,
2,1,0,1,0,7355.71,0.254494,0.254209,3.26986,6,0.0185063,11,0.000831228,-2.48547,-1.09709,-0.0537786,-6.87671,0.254209,
2,1,0,1,0,7355.81,0.261983,0.261685,3.2322,6,0.0188109,11,0.00084582,-2.4905,-1.00101,-0.0589406,-7.43524,0.261685,
2,1,0,1,0,7355.9,0.26947,0.269197,3.19423,6,0.0191115,11,0.000859877,-2.49563,-12.8625,-0.00458698,-0.571314,0.269197,
2,1,0,1,0,7355.99,0.276959,0.276681,3.14653,6,0.0194086,11,0.000870585,-2.50217,-2.19831,-0.0268387,-3.30133,0.276681,
2,1,0,1,0,7356.09,0.284461,0.284175,3.11987,6,0.0197027,11,0.00088659,-2.50586,-1.15687,-0.0509997,-6.19716,0.284175,
2,1,0,1,0,7356.18,0.29195,0.291676,3.08323,6,0.0199928,11,0.000899304,-2.51099,-1.53297,-0.0384873,-4.62135,0.291676,
2,1,0,1,0,7356.27,0.299438,0.299167,3.03466,6,0.0202796,11,0.000907869,-2.51789,-0.0200316,-2.94535,-307.67,0.299167,
2,0,0,1,0,7356.35,0.29424,0.29392,-1.18318,6,0.0202852,11,-0.00034776,-2.92695,-0.0274776,-2.1472,92.0127,0.29392,
2,0,0,1,0,7356.45,0.286753,0.286467,-1.48434,6,0.020158,11,-0.000425215,-2.82847,-0.109157,-0.540505,31.4336,0.2864674,
2,0,0,1,0,7356.54,0.279264,0.278968,-1.68287,6,0.0200087,11,-0.000469467,-2.77395,-0.199635,-0.29554,19.4585,0.278968,
2,0,0,1,0,7356.63,0.271776,0.271448,-1.84253,6,0.0198435,11,-0.00050015,-2.73459,-0.211628,-0.278791,19.9882,0.271448,
2,0,0,1,0,7356.73,0.26428,0.263976,-1.96851,6,0.0196652,11,-0.00051964,-2.70586,-0.233436,-0.252746,19.3416,0.263976,
2,0,0,1,0,7356.82,0.256786,0.256503,-2.07064,6,0.0194758,11,-0.000531126,-2.6839,-0.383836,-0.153712,12.4341,0.256503,
2,0,0,1,0,7356.92,0.249296,0.249003,-2.18318,6,0.0192767,11,-0.00054362,-2.66091,-0.477865,-0.123466,10.4918,0.249003,
2,0,0,1,0,7357.01,0.241809,0.241492,-2.2635,6,0.0190682,11,-0.000546618,-2.64522,-0.378663,-0.155811,13.8164,0.241492,
2,0,0,1,0,7357.1,0.23432,0.234009,-2.3655,6,0.0188509,11,-0.000553548,-2.62608,-0.477356,-0.123597,11.4469,0.234009,
2,0,0,1,0,7357.2,0.226833,0.226535,-2.47041,6,0.0186246,11,-0.000559634,-2.60723,-0.373584,-0.15793,15.1858,0.226535,
2,0,0,1,0,7357.29,0.219329,0.219008,-2.57721,6,0.0183884,11,-0.000564429,-2.58885,-0.328823,-0.179428,17.9682,0.219008,
2,0,0,1,0,7357.38,0.21184,0.211537,-2.67749,6,0.0181427,11,-0.000566389,-2.57227,-0.425248,-0.138742,14.5118,0.211537,
2,0,0,1,0,7357.48,0.204353,0.204052,-2.81925,6,0.0178854,11,-0.000575273,-2.54987,-0.533603,-0.110569,12.16,0.204052,
2,0,0,1,0,7357.57,0.196863,0.196568,-2.96583,6,0.0176149,11,-0.000582986,-2.52785,-0.283419,-0.208172,24.1442,0.196568,
2,0,0,1,0,7357.66,0.189376,0.189076,-3.1635,6,0.0173279,11,-0.000598141,-2.49983,-0.240828,-0.244988,30.3629,0.189076,
2,0,0,1,0,7357.76,0.18188,0.181583,-3.44494,6,0.0170188,11,-0.000625542,-2.46282,-0.186945,-0.315601,42.3761,0.181583,
2,0,0,1,0,7357.85,0.174385,0.174097,-3.81878,6,0.0166798,11,-0.00066484,-2.41808,-0.139513,-0.422899,63.0543,0.174097,
2,0,0,1,0,7357.95,0.166896,0.16657,-4.35918,6,0.0162986,11,-0.000726107,-2.3606,-0.111797,-0.52774,89.9072,0.16657,
2,0,0,1,0,7358.04,0.159409,0.159088,-5.18026,6,0.0158544,11,-0.000824118,-2.28565,-0.0956106,-0.617087,124.832,0.159088,
2,0,0,1,0,7358.13,0.151919,0.151611,-6.35088,6,0.0153176,11,-0.000962862,-2.19717,-0.0812362,-0.726277,180.167,0.151611,
2,0,0,1,0,7358.23,0.144425,0.144175,-7.82319,6,0.014655,11,-0.00112791,-2.10662,-0.0849825,-0.694261,212.378,0.144175,
2,0,0,1,0,7358.32,0.136929,0.136655,-9.40172,6,0.0138462,11,-0.0012848,-2.02679,-0.109772,-0.53748,196.836,0.136655,
2,0,0,1,0,7358.41,0.129441,0.129137,-10.6997,6,0.0129026,11,-0.00138173,-1.97063,-0.16222,-0.363704,151.527,0.129137,
2,0,0,1,0,7358.51,0.121952,0.121632,-11.5021,6,0.0118587,11,-0.00139903,-1.93922,-0.403868,-0.146087,65.4378,0.121632,
2,0,0,1,0,7358.6,0.114465,0.114138,-11.6902,6,0.0107682,11,-0.0013343,-1.93218,1.29369,0.0456061,-20.7768,0.114138,
2,0,0,1,0,7358.69,0.106976,0.106657,-11.2719,6,0.00968895,11,-0.00120223,-1.948,0.271552,0.21727,-95.4574,0.106657,
2,0,0,1,0,7358.79,0.0994721,0.0991561,-10.3574,6,0.00867155,11,-0.001027,-1.98475,0.171661,0.343701,-138.967,0.0991561,
2,0,0,1,0,7358.88,0.0919847,0.0916905,-9.31855,6,0.00775118,11,-0.000854423,-2.03065,0.17203,0.342964,-124.942,0.09169054,
2,0,0,1,0,7358.98,0.0844973,0.084225,-8.53789,6,0.00691781,11,-0.000719104,-2.06865,0.232745,0.253496,-84.5124,0.084225,
2,0,0,1,0,7359.07,0.0770082,0.0766954,-8.01916,6,0.00614484,11,-0.000615032,-2.09587,0.334206,0.176538,-55.2626,0.0766954,
2,0,0,1,0,7359.16,0.0695208,0.0691586,-7.63703,6,0.00541224,11,-0.000528167,-2.11708,0.360182,0.163806,-48.8676,0.0691586,
2,0,0,1,0,7359.26,0.0620245,0.0616999,-7.29189,6,0.00471252,11,-0.000449909,-2.13716,0.324671,0.181723,-51.6658,0.0616999,
2,0,0,1,0,7359.35,0.0545282,0.0541945,-6.87447,6,0.00404851,11,-0.000372559,-2.16276,0.294738,0.200178,-53.6822,0.0541945,
2,0,0,1,0,7359.44,0.0470408,0.046728,-6.38554,6,0.00342719,11,-0.000298383,-2.1948,0.220447,0.267638,-66.7336,0.046728,
2,0,0,1,0,7359.54,0.0395517,0.0392539,-5.92931,6,0.00285167,11,-0.000232749,-2.227,0.22762,0.259204,-59.8308,0.0392539,
2,0,0,1,0,7359.63,0.0320643,0.0317383,-5.54142,6,0.00231657,11,-0.000175875,-2.25638,0.323969,0.182116,-39.3881,0.0317383,
2,0,0,1,0,7359.72,0.0245751,0.0242806,-5.2922,6,0.0018101,11,-0.000128498,-2.27636,0.482216,0.122352,-25.3299,0.0242806,
2,0,0,1,0,7359.82,0.0170735,0.0167548,-5.1737,6,0.00131956,11,-8.66841e-05,-2.2862,1.01493,0.0581319,-11.754,0.0167548,
2,0,0,1,0,7359.91,0.00958429,0.00924219,-5.13994,6,0.000837137,11,-4.75043e-05,-2.28904,-2.42127,-0.0243674,4.88688,0.00924219,
2,0,0,1,0,7360.01,0.0020969,0.00172384,-5.22317,6,0.000355192,11,-9.00389e-06,-2.28207,-0.783776,-0.0752766,15.2061,0.00172384,
2,0,0,1,0,7360.03,0.000199195,-0.000187895,-5.20626,6,0.000231474,11,9.7823e-07,-2.28347, , , ,-0.000187895,

File: 20221101_1-115_002_TrumpetPlot_ParaChange_10_CV_C01_6.csv
mode,ox/red,error,control changes,counter inc.,time/s,control/V,Ewe/V,<I>/mA,cycle number,(Q-Qo)/C,I Range,P/W,log(|I|),Tafel slope mV/dec,alpha_eff,dI/d(E-IR),E-IR/V,
2,0,0,0,0,8584.16,2.44065e-05,0.000113685,-6.19692,7,0.0000000E+000,11,-7.04496e-07,-2.20782, , , ,0.000113685,
2,1,0,1,0,8584.25,0.0072942,0.00704204,2.33397,7,-1.44749e-05,11,1.64359e-05,-2.6319,0.0189788,3.10873,259.958,0.00704204,
2,1,0,1,0,8584.34,0.0147816,0.0144636,3.13248,7,0.000252144,11,4.53069e-05,-2.50411,0.136602,0.43191,52.6656,0.0144636,
2,1,0,1,0,8584.44,0.0222707,0.0219864,3.3941,7,0.000559278,11,7.46241e-05,-2.46927,0.30325,0.194559,25.7739,0.0219864,
2,1,0,1,0,8584.53,0.0297581,0.0294158,3.61727,7,0.000887123,11,0.000106405,-2.44162,0.279817,0.210852,29.6813,0.0294158,
2,1,0,1,0,8584.63,0.0372544,0.0369548,3.84842,7,0.00123652,11,0.000142218,-2.41472,0.251786,0.234326,35.2095,0.0369548,
2,1,0,1,0,8584.72,0.0447507,0.0444685,4.13628,7,0.00161093,11,0.000183934,-2.38339,0.235392,0.250646,40.5659,0.0444685,
2,1,0,1,0,8584.81,0.0522381,0.0519027,4.49838,7,0.00201503,11,0.000233478,-2.34694,0.202908,0.290772,51.0396,0.0519027,
2,1,0,1,0,8584.91,0.0597273,0.0594306,4.89657,7,0.0024547,11,0.000291006,-2.31011,0.188545,0.312922,59.819,0.0594306,
2,1,0,1,0,8585,0.0672147,0.0669169,5.33134,7,0.00293355,11,0.000356757,-2.27316,0.211466,0.279004,58.0005,0.0669169,
2,1,0,1,0,8585.09,0.0747038,0.0743974,5.75898,7,0.00345265,11,0.000428454,-2.23965,0.252947,0.233251,52.3397,0.0743974,
2,1,0,1,0,8585.19,0.0822055,0.0819005,6.14187,7,0.00401123,11,0.000503022,-2.2117,0.275477,0.214174,51.3367,0.0819005,
2,1,0,1,0,8585.28,0.0896946,0.0893783,6.4931,7,0.00460347,11,0.000580342,-2.18755,0.337993,0.17456,44.2895,0.0893783,
2,1,0,1,0,8585.37,0.097182,0.0968533,6.86699,7,0.0052288,11,0.00066509,-2.16323,0.311258,0.189553,50.7604,0.0968533,
2,1,0,1,0,8585.47,0.104671,0.104376,7.28034,7,0.00588993,11,0.000759891,-2.13785,0.234982,0.251083,71.3873,0.104376,
2,1,0,1,0,8585.56,0.112159,0.111883,7.85962,7,0.00659769,11,0.000879359,-2.1046,0.206447,0.285787,87.7633,0.111883,
2,1,0,1,0,8585.66,0.119655,0.11938,8.62111,7,0.00736879,11,0.00102919,-2.06444,0.193789,0.304454,102.313,0.11938,
2,1,0,1,0,8585.75,0.127149,0.126886,9.4222,7,0.00821415,11,0.00119555,-2.02585,0.204352,0.288717,106.098,0.126886,
2,1,0,1,0,8585.84,0.134639,0.134317,10.1631,7,0.00913228,11,0.00136507,-1.99297,0.251397,0.234688,93.1347,0.134317,
2,1,0,1,0,8585.94,0.142126,0.141868,10.779,7,0.0101145,11,0.00152919,-1.96742,0.373759,0.157856,66.3431,0.141868,
2,1,0,1,0,8586.03,0.149615,0.14929,11.1057,7,0.0111421,11,0.00165797,-1.95445,2.52443,0.0233717,10.1025,0.14929,
2,1,0,1,0,8586.12,0.157103,0.156821,10.737,7,0.0121718,11,0.00168378,-1.96912,-0.21589,-0.273288,-114.046,0.156821,
2,1,0,1,0,8586.22,0.164606,0.164311,9.24103,7,0.0131183,11,0.0015184,-2.03428,-0.0778251,-0.75811,-272.274,0.164311,
2,1,0,1,0,8586.31,0.172095,0.171834,7.12837,7,0.0138837,11,0.0012249,-2.14701,-0.0646976,-0.911935,-254.273,0.171834,
2,1,0,1,0,8586.4,0.179582,0.179307,5.6265,7,0.0144739,11,0.00100887,-2.24976,-0.0912993,-0.646226,-142.725,0.179307,
2,1,0,1,0,8586.5,0.18707,0.186808,4.82414,7,0.0149599,11,0.000901189,-2.31658,-0.137458,-0.429222,-80.9435,0.186808,
2,1,0,1,0,8586.59,0.194559,0.194268,4.34763,7,0.0153873,11,0.000844606,-2.36175,-0.187229,-0.315123,-53.4196,0.194268,
2,1,0,1,0,8586.69,0.202062,0.201751,4.01458,7,0.0157782,11,0.000809944,-2.39636,-0.275966,-0.213795,-33.497,0.201751,
2,1,0,1,0,8586.78,0.20955,0.209293,3.79583,7,0.0161435,11,0.000794441,-2.42069,-0.301311,-0.195811,-29.0526,0.209293,
2,1,0,1,0,8586.87,0.217039,0.216759,3.64345,7,0.0164914,11,0.00078975,-2.43849,-0.460162,-0.128216,-18.2413,0.216759,
2,1,0,1,0,8586.97,0.224526,0.224287,3.53946,7,0.0168274,11,0.000793856,-2.45106,-0.659882,-0.0894099,-12.3413,0.224287,
2,1,0,1,0,8587.06,0.232016,0.231747,3.44996,7,0.0171544,11,0.000799517,-2.46219,-1.20766,-0.048855,-6.58366,0.231747,
2,1,0,1,0,8587.15,0.23951,0.239235,3.39091,7,0.017475,11,0.000811223,-2.46968,-0.871861,-0.0676714,-8.95255,0.239235,
2,1,0,1,0,8587.25,0.247006,0.246739,3.34049,7,0.01779,11,0.000824229,-2.47619,-1.35774,-0.0434547,-5.6476,0.246739,
2,1,0,1,0,8587.34,0.254494,0.254222,3.28077,7,0.0180999,11,0.000834043,-2.48402,-1.35815,-0.0434416,-5.57507,0.2542218,
2,1,0,1,0,8587.43,0.261983,0.261695,3.23908,7,0.0184056,11,0.000847651,-2.48958,-0.839962,-0.0702413,-8.89139,0.261695,
2,1,0,1,0,8587.53,0.26947,0.269181,3.20723,7,0.0187073,11,0.000863325,-2.49387,-2.46435,-0.0239414,-2.9914,0.269181,
2,1,0,1,0,8587.62,0.276959,0.276678,3.16081,7,0.0190055,11,0.000874528,-2.5002,-2.7819,-0.0212085,-2.6201,0.276678,
2,1,0,1,0,8587.72,0.284461,0.284171,3.13031,7,0.0193008,11,0.000889544,-2.50441,-1.1853,-0.0497763,-6.07366,0.284171,
2,1,0,1,0,8587.81,0.29195,0.291632,3.09695,7,0.0195919,11,0.000903169,-2.50907,-1.11615,-0.0528602,-6.36751,0.291632,
2,1,0,1,0,8587.9,0.299438,0.299218,3.04799,7,0.0198797,11,0.000912015,-2.51599,-0.0212029,-2.78263,-293.893,0.299218,
2,0,0,1,0,8587.98,0.29424,0.293949,-1.03843,7,0.0198966,11,-0.000305246,-2.98362,-0.021077,-2.79926,103.449,0.293949,
2,0,0,1,0,8588.08,0.286753,0.286445,-1.40023,7,0.0197798,11,-0.00040109,-2.8538,-0.0912853,-0.646325,35.2024,0.286445,
2,0,0,1,0,8588.17,0.279264,0.278972,-1.60472,7,0.0196383,11,-0.000447672,-2.7946,-0.157531,-0.374528,23.516,0.278972,
2,0,0,1,0,8588.26,0.271776,0.271444,-1.76886,7,0.0194799,11,-0.000480147,-2.75231,-0.201898,-0.292227,20.1656,0.271444,
2,0,0,1,0,8588.36,0.26428,0.264031,-1.90482,7,0.0193077,11,-0.00050293,-2.72015,-0.222249,-0.265468,19.6748,0.264031,
2,0,0,1,0,8588.45,0.256786,0.25644,-2.00959,7,0.019124,11,-0.000515338,-2.69689,-0.299421,-0.197047,15.4746,0.25644,
2,0,0,1,0,8588.54,0.249296,0.248986,-2.12144,7,0.0189303,11,-0.000528208,-2.67337,-0.511321,-0.115387,9.53866,0.248986,
2,0,0,1,0,8588.64,0.241809,0.241545,-2.21642,7,0.0187272,11,-0.000535365,-2.65435,-0.375148,-0.157271,13.6228,0.241545,
2,0,0,1,0,8588.73,0.23432,0.233999,-2.30746,7,0.0185152,11,-0.000539942,-2.63687,-0.397947,-0.148261,13.396,0.233999,
2,0,0,1,0,8588.82,0.226833,0.226548,-2.40412,7,0.0182942,11,-0.000544649,-2.61904,-0.42562,-0.138621,13.0183,0.226548,
2,0,0,1,0,8588.92,0.219329,0.219053,-2.51841,7,0.0180636,11,-0.000551665,-2.59887,-0.392045,-0.150493,14.7338,0.219053,
2,0,0,1,0,8589.01,0.21184,0.211523,-2.61272,7,0.0178238,11,-0.000552651,-2.58291,-0.391888,-0.150553,15.3552,0.211523,
2,0,0,1,0,8589.11,0.204353,0.204054,-2.73937,7,0.0175731,11,-0.000558981,-2.56235,-0.542269,-0.108802,11.6562,0.2040545,
2,0,0,1,0,8589.2,0.196863,0.196539,-2.88006,7,0.0173102,11,-0.000566043,-2.5406,-0.333621,-0.176847,19.9017,0.196539,
2,0,0,1,0,8589.29,0.189376,0.189044,-3.05589,7,0.0170323,11,-0.000577696,-2.51486,-0.244122,-0.241682,28.9267,0.189044,
2,0,0,1,0,8589.39,0.18188,0.181529,-3.29824,7,0.0167347,11,-0.000598727,-2.48172,-0.201376,-0.292985,37.7634,0.1815294,
2,0,0,1,0,8589.48,0.174385,0.174075,-3.63634,7,0.0164107,11,-0.000632997,-2.43934,-0.162627,-0.362793,51.4554,0.174075,
2,0,0,1,0,8589.57,0.166896,0.166561,-4.11614,7,0.0160498,11,-0.000685586,-2.38551,-0.118884,-0.496282,79.6188,0.166561,
2,0,0,1,0,8589.67,0.159409,0.159061,-4.81583,7,0.0156341,11,-0.000766011,-2.31733,-0.0976175,-0.6044,113.815,0.159061,
2,0,0,1,0,8589.76,0.151919,0.151636,-5.86155,7,0.0151367,11,-0.00088882,-2.23199,-0.0825331,-0.714864,163.793,0.151636,
2,0,0,1,0,8589.85,0.144425,0.144093,-7.22807,7,0.0145251,11,-0.00104151,-2.14098,-0.0845541,-0.697778,196.725,0.144093,
2,0,0,1,0,8589.95,0.136929,0.136627,-8.71035,7,0.013778,11,-0.00119007,-2.05996,-0.10348,-0.570156,193.618,0.1366272,
2,0,0,1,0,8590.04,0.129441,0.129135,-10.0056,7,0.0128992,11,-0.00129207,-1.99976,-0.159023,-0.371015,144.547,0.129135,
2,0,0,1,0,8590.14,0.121952,0.121654,-10.8684,7,0.0119187,11,-0.00132218,-1.96384,-0.317372,-0.185902,78.6416,0.121654,
2,0,0,1,0,8590.23,0.114465,0.114115,-11.1854,7,0.0108822,11,-0.00127642,-1.95135,-4.19857,-0.0140524,6.12472,0.114115,
2,0,0,1,0,8590.32,0.106976,0.106606,-10.9638,7,0.00984112,11,-0.0011688,-1.96004,0.381565,0.154627,-66.1034,0.106606,
2,0,0,1,0,8590.42,0.0994721,0.0991666,-10.2927,7,0.00884091,11,-0.0010207,-1.98747,0.212854,0.277185,-111.252,0.0991666,
2,0,0,1,0,8590.51,0.0919847,0.0916469,-9.39487,7,0.00791927,11,-0.000861011,-2.02711,0.194327,0.303612,-111.417,0.0916469,
2,0,0,1,0,8590.6,0.0844973,0.0841572,-8.63887,7,0.0070767,11,-0.000727023,-2.06354,0.228673,0.258011,-87.0553,0.0841572,
2,0,0,1,0,8590.7,0.0770082,0.0766661,-8.1283,7,0.00629405,11,-0.000623165,-2.09,0.311373,0.189483,-60.0561,0.0766661,
2,0,0,1,0,8590.79,0.0695208,0.0692531,-7.7424,7,0.00555223,11,-0.000536185,-2.11112,0.41974,0.140563,-42.5063,0.0692531,
2,0,0,1,0,8590.88,0.0620245,0.0616838,-7.40742,7,0.0048418,11,-0.000456918,-2.13033,0.35326,0.167016,-48.3352,0.06168377,
2,0,0,1,0,8590.98,0.0545282,0.0541884,-7.05098,7,0.00416393,11,-0.000382081,-2.15175,0.315816,0.186818,-51.3626,0.0541884,
2,0,0,1,0,8591.07,0.0470408,0.0467137,-6.60716,7,0.0035242,11,-0.000308645,-2.17999,0.257316,0.22929,-59.1151,0.0467137,
2,0,0,1,0,8591.17,0.0395517,0.0392338,-6.13728,7,0.00292765,11,-0.000240789,-2.21202,0.228279,0.258455,-61.899,0.0392338,
2,0,0,1,0,8591.26,0.0320643,0.0317011,-5.73046,7,0.00237323,11,-0.000181662,-2.24181,0.263046,0.224296,-50.143,0.0317011,
2,0,0,1,0,8591.35,0.0245751,0.0242591,-5.42866,7,0.00185234,11,-0.000131695,-2.26531,0.431589,0.136704,-28.9821,0.0242591,
2,0,0,1,0,8591.45,0.0170735,0.0167606,-5.24385,7,0.00135222,11,-8.78898e-05,-2.28035,0.694805,0.0849159,-17.4318,0.0167606,
2,0,0,1,0,8591.54,0.00958429,0.00928616,-5.18023,7,0.000864531,11,-4.81044e-05,-2.28565,2.50353,0.0235668,-4.76329,0.00928616,
2,0,0,1,0,8591.63,0.0020969,0.00172656,-5.23687,7,0.000380346,11,-9.04178e-06,-2.28093,-0.811619,-0.0726942,14.7282,0.00172656,
2,0,0,1,0,8591.66,0.000199195,-0.000163081,-5.22081,7,0.00025652,11,8.51417e-07,-2.28226, , , ,-0.000163081,