Folder: Figs_alphaMnO2_OER_Tafel_sleope/Figure_codes/Fig_3-5/rawdata_trumpetplot_data/before 10th (part 38)

File: 20221101_1-115_002_TrumpetPlot_ParaChange_12_CV_C01.mpt
EC-Lab ASCII FILE
Nb header lines : 68

Cyclic Voltammetry

Run on channel : 1 (SN 65296)
User :
CE vs. WE compliance from -10 V to 10 V
Electrode connection : standard
Potential control : Ewe
Ewe ctrl range : min = -1.00 V, max = 1.00 V
Safety Limits :
	Do not start on E overload
Acquisition started on : 11/08/2022 17:30:03.488
Loaded Setting File :  NONE
Saved on :
	File : 20221101_1-115_002_TrumpetPlot_ParaChange_12_CV_C01.mpr
	Directory : C:\Users\NakamuraT\Documents\EC-Lab\Data\Yatsuzuka\20221108_1-115_001_TrumpetPlot\
	Host : 192.109.209.100
Device : SP-50e (SN .003219)
Address : 192.109.209.128
EC-Lab for windows v11.43 (software)
Internet server v11.40 (firmware)
Command interpretor v11.40 (firmware)
Electrode material : Au/Pd
Initial state :
Electrolyte : NaCl (0.2M)
Comments : Fe(CN)63-/Fe(CN)64- 5.10-3 M
Reference electrode : SCE Saturated Calomel Electrode (0.241 V)
Electrode surface area : 0.001 cm2
Characteristic mass : 0.001 g
Equivalent Weight : 0.000 g/eq.
Density : 0.000 g/cm3
Volume (V) : 0.001 cm3
Cycle Definition : Charge/Discharge alternance
Ei (V)              0.000
vs.                 Ref
dE/dt               200.000
dE/dt unit          mV/s
E1 (V)              0.300
vs.                 Ref
Step percent        50
N                   10
E range min (V)     -1.000
E range max (V)     1.000
I Range             100 mA
I Range min         Unset
I Range max         Unset
I Range init        Unset
Bandwidth           5
E2 (V)              -0.100
vs.                 Ref
nc cycles           0
Reverse Scan        1
Ef (V)              0.000
vs.                 Ref

Number of loops : 8
Loop 0 from point number 0 to 1609
Loop 1 from point number 1610 to 3219
Loop 2 from point number 3220 to 4829
Loop 3 from point number 4830 to 6439
Loop 4 from point number 6440 to 8049
Loop 5 from point number 8050 to 9659
Loop 6 from point number 9660 to 11269
Loop 7 from point number 11270 to 12879

mode	ox/red	error	control changes	counter inc.	time/s	control/V	Ewe/V	<I>/mA	cycle number	(Q-Qo)/C	I Range	P/W
2	1	0	1	0	1210.09	2.44065e-05	-0.000287149	6.98028	1	0.0000000E+000	10	-2.00438e-06
2	1	0	1	0	1210.33	0.0472514	0.0469132	10.6275	1	0.00241452	10	0.000498569
2	1	0	1	0	1210.56	0.0946941	0.0944024	13.993	1	0.00522293	10	0.00132097
2	1	0	1	0	1210.8	0.142137	0.141874	24.2508	1	0.00951561	10	0.00344056
2	1	0	1	0	1211.04	0.18957	0.189315	22.9865	1	0.0163885	10	0.00435169
2	1	0	1	0	1211.28	0.237013	0.236735	8.73343	1	0.0192237	10	0.00206751
2	1	0	1	0	1211.51	0.284456	0.284186	7.77355	1	0.0211651	10	0.00220913
2	0	0	1	0	1211.74	0.269265	0.269024	-4.48624	1	0.0213181	10	-0.00120691
2	0	0	1	0	1211.98	0.221822	0.221547	-6.22898	1	0.0200508	10	-0.00138001
2	0	0	1	0	1212.22	0.174389	0.1741	-10.5409	1	0.0181869	10	-0.00183516
2	0	0	1	0	1212.46	0.126946	0.126672	-27.3946	1	0.0138977	10	-0.00347013
2	0	0	1	0	1212.69	0.0795034	0.0791733	-19.3035	1	0.00745951	10	-0.00152832
2	0	0	1	0	1212.93	0.0320607	0.0317891	-11.942	1	0.0040014	10	-0.000379626
2	0	0	1	0	1213.17	-0.0153729	-0.0157635	-12.5107	1	0.00116101	10	0.000197213
2	0	0	1	0	1213.41	-0.0628156	-0.0631469	-14.5836	1	-0.00203677	10	0.000920912
2	1	0	1	1	1213.64	-0.0911859	-0.0915124	1.22023	1	-0.00527783	10	-0.000111666
2	1	0	1	1	1213.87	-0.0437477	-0.044116	11.67	1	-0.00297802	10	-0.000514836
2	1	0	1	0	2441.73	0.00229666	0.00197557	8.10412	2	8.46284e-05	10	1.60102e-05
2	1	0	1	0	2441.97	0.0497393	0.0494405	10.9365	2	0.00257077	10	0.000540705
2	1	0	1	0	2442.21	0.0971729	0.0968291	15.2924	2	0.00557785	10	0.00148075
2	1	0	1	0	2442.44	0.144616	0.144294	25.8872	2	0.0102264	10	0.00373537
2	1	0	1	0	2442.68	0.192058	0.191782	18.1721	2	0.0168917	10	0.00348509
2	1	0	1	0	2442.92	0.23951	0.239208	8.58104	2	0.0193826	10	0.00205265
2	1	0	1	0	2443.15	0.286953	0.286664	7.7375	2	0.0213088	10	0.00221807
2	0	0	1	0	2443.39	0.266786	0.266524	-4.56643	2	0.0212959	10	-0.00121706
2	0	0	1	0	2443.62	0.219344	0.219016	-6.29745	2	0.0200102	10	-0.00137924
2	0	0	1	0	2443.86	0.171901	0.171611	-10.7501	2	0.0181265	10	-0.00184484
2	0	0	1	0	2444.1	0.124449	0.12423	-27.919	2	0.013704	10	-0.00346836
2	0	0	1	0	2444.33	0.0770064	0.0767119	-19.3033	2	0.00736007	10	-0.00148079
2	0	0	1	0	2444.57	0.0295637	0.0292354	-12.0842	2	0.00381649	10	-0.000353286
2	0	0	1	0	2444.81	-0.017879	-0.0182459	-12.625	2	0.000950355	10	0.000230354
2	0	0	1	0	2445.05	-0.0653308	-0.0656838	-14.6869	2	-0.0022756	10	0.000964689
2	1	0	1	1	2445.28	-0.0887025	-0.0891152	4.2335	2	-0.00526616	10	-0.000377269
2	1	0	1	1	2445.51	-0.0412598	-0.041567	11.7294	2	-0.00279753	10	-0.000487554
2	1	0	1	0	3673.37	0.00479364	0.00450615	8.73685	3	0.000189702	10	3.93696e-05
2	1	0	1	0	3673.61	0.0522363	0.0519151	10.9472	3	0.0026352	10	0.000568323
2	1	0	1	0	3673.85	0.099679	0.0993471	15.6538	3	0.00571196	10	0.00155515
2	1	0	1	0	3674.08	0.147131	0.146817	25.1138	3	0.0103559	10	0.00368714
2	1	0	1	0	3674.32	0.194573	0.194271	17.5004	3	0.016649	10	0.00339982
2	1	0	1	0	3674.56	0.242016	0.241724	8.66771	3	0.0191997	10	0.0020952
2	1	0	1	0	3674.8	0.28945	0.289192	7.72611	3	0.021128	10	0.00223433
2	0	0	1	0	3675.03	0.26428	0.263969	-4.47576	3	0.0210386	10	-0.00118146
2	0	0	1	0	3675.26	0.216828	0.216507	-6.13683	3	0.0197828	10	-0.00132867
2	0	0	1	0	3675.5	0.169386	0.16908	-10.2619	3	0.0179622	10	-0.00173509
2	0	0	1	0	3675.74	0.121943	0.121667	-25.8144	3	0.01382	10	-0.00314076
2	0	0	1	0	3675.98	0.0745049	0.0741924	-20.3057	3	0.0077106	10	-0.00150653
2	0	0	1	0	3676.21	0.0270667	0.0267474	-12.6386	3	0.00390357	10	-0.000338049
2	0	0	1	0	3676.45	-0.020376	-0.0206802	-12.5022	3	0.0010108	10	0.000258548
2	0	0	1	0	3676.69	-0.0678187	-0.0681808	-14.472	3	-0.00216945	10	0.000986715
2	1	0	1	1	3676.92	-0.0861874	-0.0865853	4.37443	3	-0.00491341	10	-0.000378761
2	1	0	1	1	3677.15	-0.0387447	-0.0390908	11.2415	3	-0.00259997	10	-0.000439438
2	1	0	1	0	4905.01	0.00729063	0.00697037	9.18246	4	0.000302043	10	6.40052e-05
2	1	0	1	0	4905.25	0.0547333	0.0544301	11.2646	4	0.00277229	10	0.000613136
2	1	0	1	0	4905.49	0.102176	0.101923	16.2547	4	0.00598404	10	0.00165673
2	1	0	1	0	4905.72	0.149619	0.149295	25.4977	4	0.010775	10	0.00380668
2	1	0	1	0	4905.96	0.197052	0.196814	15.0561	4	0.0166598	10	0.00296324
2	1	0	1	0	4906.2	0.244495	0.244234	8.84946	4	0.0191526	10	0.00216134
2	1	0	1	0	4906.44	0.291938	0.291659	7.78477	4	0.0211078	10	0.0022705
2	0	0	1	0	4906.67	0.261783	0.261469	-4.47406	4	0.0208976	10	-0.00116983
2	0	0	1	0	4906.9	0.214341	0.214059	-6.12434	4	0.0196409	10	-0.00131097
2	0	0	1	0	4907.14	0.166907	0.166597	-10.1716	4	0.0178309	10	-0.00169455
2	0	0	1	0	4907.38	0.119464	0.119193	-25.1419	4	0.0137474	10	-0.00299672
2	0	0	1	0	4907.62	0.0720215	0.0717345	-20.3339	4	0.00780321	10	-0.00145864
2	0	0	1	0	4907.85	0.0245788	0.0242843	-13.0981	4	0.00389826	10	-0.000318078
2	0	0	1	0	4908.09	-0.0228729	-0.0232118	-12.6106	4	0.00095027	10	0.000292714
2	0	0	1	0	4908.33	-0.0703157	-0.0706979	-14.5724	4	-0.00225068	10	0.00103024
2	1	0	1	1	4908.56	-0.0837086	-0.0841022	5.34316	4	-0.00476381	10	-0.000449371
2	1	0	1	1	4908.79	-0.0362659	-0.0366286	11.0971	4	-0.00243577	10	-0.00040647
2	1	0	1	0	6136.65	0.00977853	0.00947254	9.44023	5	0.000418108	10	8.9423e-05
2	1	0	1	0	6136.89	0.0572303	0.0569183	11.6343	5	0.0029233	10	0.000662207
2	1	0	1	0	6137.13	0.104673	0.104367	16.7773	5	0.00626254	10	0.00175099
2	1	0	1	0	6137.37	0.152116	0.151822	25.6596	5	0.0111698	10	0.0038957
[...]
2	1	0	1	0	7368.77	0.10717	0.106878	17.4352	6	0.00659575	10	0.00186343
2	1	0	1	0	7369.01	0.154613	0.154323	26.2273	6	0.0117027	10	0.00404746
2	1	0	1	0	7369.24	0.202055	0.20177	11.8787	6	0.0169138	10	0.00239677
2	1	0	1	0	7369.48	0.249498	0.249168	8.38997	6	0.0191582	10	0.00209052
2	1	0	1	0	7369.72	0.296932	0.296627	7.59171	6	0.0210443	10	0.00225191
2	0	0	1	0	7369.95	0.256785	0.256458	-4.72709	6	0.0205097	10	-0.0012123
2	0	0	1	0	7370.19	0.209347	0.209054	-6.23044	6	0.0192117	10	-0.0013025
2	0	0	1	0	7370.42	0.161904	0.161564	-10.3228	6	0.0173776	10	-0.00166779
2	0	0	1	0	7370.66	0.114461	0.114187	-24.7505	6	0.0132618	10	-0.0028262
2	0	0	1	0	7370.9	0.0670275	0.0667388	-20.2149	6	0.00749828	10	-0.00134912
2	0	0	1	0	7371.14	0.0195849	0.0192817	-13.2553	6	0.00354395	10	-0.000255585
2	0	0	1	0	7371.37	-0.0278578	-0.0281841	-12.6307	6	0.000587801	10	0.000355985
2	0	0	1	0	7371.61	-0.0753005	-0.0756691	-14.812	6	-0.0026378	10	0.00112081
2	1	0	1	1	7371.84	-0.0787055	-0.0790614	7.06749	6	-0.0046628	10	-0.000558765
2	1	0	1	1	7372.08	-0.0312628	-0.0316051	11.253	6	-0.00221406	10	-0.000355652
2	1	0	1	0	8599.94	0.0147725	0.0144587	9.61883	7	0.000639232	10	0.000139075
2	1	0	1	0	8600.17	0.0622152	0.0618967	12.3548	7	0.00320001	10	0.00076472
2	1	0	1	0	8600.41	0.109658	0.10932	17.4539	7	0.00673123	10	0.00190806
2	1	0	1	0	8600.65	0.157091	0.156775	25.5197	7	0.0118089	10	0.00400084
2	1	0	1	0	8600.88	0.204552	0.204229	11.3845	7	0.0166388	10	0.00232505
2	1	0	1	0	8601.12	0.251995	0.2517	8.37947	7	0.0188693	10	0.00210912
2	1	0	1	0	8601.36	0.299438	0.299186	7.59921	7	0.0207535	10	0.00227358
2	0	0	1	0	8601.59	0.254301	0.253978	-4.57742	7	0.0201355	10	-0.00116257
2	0	0	1	0	8601.83	0.206863	0.206524	-6.1273	7	0.0188691	10	-0.00126543
2	0	0	1	0	8602.06	0.159407	0.159114	-10.0972	7	0.0170753	10	-0.0016066
2	0	0	1	0	8602.3	0.111964	0.111699	-23.6315	7	0.0130907	10	-0.00263961
2	0	0	1	0	8602.54	0.0645215	0.0642089	-19.8991	7	0.00756361	10	-0.0012777
2	0	0	1	0	8602.78	0.0170697	0.016757	-13.4565	7	0.00359851	10	-0.00022549
2	0	0	1	0	8603.01	-0.030373	-0.0307254	-12.5971	7	0.000623398	10	0.000387049
2	0	0	1	0	8603.25	-0.0778157	-0.0781634	-14.7084	7	-0.00258373	10	0.00114966
2	1	0	1	1	8603.48	-0.0762085	-0.0765935	7.00347	7	-0.0043681	10	-0.00053642
2	1	0	1	1	8603.72	-0.0287658	-0.0291217	10.8638	7	-0.00201205	10	-0.000316372
2	1	0	1	0	9831.58	0.0172786	0.0169948	10.0157	8	0.00077142	10	0.000170215
2	1	0	1	0	9831.81	0.0647303	0.0643763	13.0339	8	0.0034486	10	0.000839073
2	1	0	1	0	9832.05	0.112173	0.111836	18.1923	8	0.00714659	10	0.00203456
2	1	0	1	0	9832.29	0.159616	0.159328	25.8995	8	0.0124215	10	0.00412651
2	1	0	1	0	9832.52	0.207058	0.20678	10.6089	8	0.0169318	10	0.00219371
2	1	0	1	0	9832.76	0.254492	0.254153	8.18848	8	0.0190733	10	0.00208112
2	1	0	1	0	9832.99	0.299229	0.299014	5.36781	8	0.0208821	10	0.00160505
2	0	0	1	0	9833.23	0.251786	0.251421	-4.84598	8	0.0201023	10	-0.00121838
2	0	0	1	0	9833.47	0.204343	0.204048	-6.33363	8	0.0187824	10	-0.00129236
2	0	0	1	0	9833.71	0.156901	0.156618	-10.4585	8	0.0169322	10	-0.001638
2	0	0	1	0	9833.94	0.109467	0.109163	-24.0574	8	0.0128185	10	-0.00262618
2	0	0	1	0	9834.18	0.0620245	0.0617006	-19.8798	8	0.0072729	10	-0.0012266
2	0	0	1	0	9834.42	0.0145818	0.0142045	-13.4366	8	0.00331235	10	-0.000190859
2	0	0	1	0	9834.65	-0.0328518	-0.0332327	-12.6991	8	0.000332808	10	0.000422024
2	0	0	1	0	9834.89	-0.0802945	-0.0806387	-15.0043	8	-0.00292106	10	0.00120992
2	1	0	1	1	9835.12	-0.0737025	-0.0740701	8.09599	8	-0.00441692	10	-0.000599671
2	1	0	1	1	9835.36	-0.0262688	-0.0266268	11.1991	8	-0.00192051	10	-0.000298196
2	1	0	0	1	9835.49	-2.44065e-05	-0.000344411	10.8664	8	-0.00046508	10	-3.74252e-06

File: 20221101_1-115_002_TrumpetPlot_ParaChange_12_CV_C01_0.csv
mode,ox/red,error,control changes,counter inc.,time/s,control/V,Ewe/V,<I>/mA,cycle number,(Q-Qo)/C,I Range,P/W,log(|I|),Tafel slope mV/dec,alpha_eff,dI/d(E-IR),E-IR/V,
2,1,0,1,0,1210.09,2.44065e-05,-0.000287149,6.98028,1,0.0000000E+000,10,-2.00438e-06,-2.15613, , , ,-0.0002871489,
2,1,0,1,0,1210.14,0.00977853,0.00951419,10.1233,1,0.000434984,10,9.63153e-05,-1.99468,0.18428,0.320165,125.851,0.00951419,
2,1,0,1,0,1210.19,0.0197755,0.0194674,10.6135,1,0.000958088,10,0.000206616,-1.97414,6.05902,0.00973755,4.0309,0.0194674,
2,1,0,1,0,1210.24,0.0297726,0.0294396,10.5965,1,0.00148896,10,0.000311956,-1.97484,-2.72293,-0.0216679,-8.96199,0.0294396,
2,1,0,1,0,1210.29,0.0397514,0.0394002,10.5703,1,0.00201684,10,0.000416471,-1.97591,2.18814,0.0269635,11.1346,0.0394002,
2,1,0,1,0,1210.34,0.0497393,0.0494336,10.6936,1,0.00254667,10,0.000528624,-1.97088,1.23968,0.0475931,19.8368,0.0494336,
2,1,0,1,0,1210.39,0.0597364,0.0594232,10.9704,1,0.00308671,10,0.000651897,-1.95978,0.585164,0.100826,43.1039,0.0594232,
2,1,0,1,0,1210.44,0.0697152,0.0694078,11.502,1,0.00364625,10,0.000798328,-1.93923,0.428252,0.137769,61.9361,0.0694078,
2,1,0,1,0,1210.49,0.0796941,0.0793512,12.3111,1,0.00423925,10,0.000976903,-1.9097,0.314261,0.187742,90.1295,0.0793512,
2,1,0,1,0,1210.54,0.0896911,0.0893703,13.373,1,0.00488053,10,0.00119515,-1.87377,0.261225,0.225859,118.071,0.0893703,
2,1,0,1,0,1210.59,0.099679,0.0994099,14.6458,1,0.00557925,10,0.00145593,-1.83429,0.250132,0.235876,134.675,0.0994099,
2,1,0,1,0,1210.64,0.109658,0.10935,16.0428,1,0.00634408,10,0.00175427,-1.79472,0.238877,0.246989,154.748,0.10935,
2,1,0,1,0,1210.69,0.119655,0.119339,17.7906,1,0.0071882,10,0.00212311,-1.74981,0.209684,0.281376,195.469,0.119339,
2,1,0,1,0,1210.74,0.129652,0.129324,20.1722,1,0.00813434,10,0.00260874,-1.69525,0.161606,0.365085,287.582,0.129324,
2,1,0,1,0,1210.79,0.139631,0.139326,23.3541,1,0.00921795,10,0.00325384,-1.63164,0.152394,0.387154,352.989,0.139326,
2,1,0,1,0,1210.84,0.149619,0.149316,26.9922,1,0.010474,10,0.00403035,-1.56876,0.173991,0.339098,356.795,0.149316,
2,1,0,1,0,1210.89,0.159616,0.159348,30.222,1,0.0119084,10,0.00481581,-1.51968,0.261173,0.225904,266.423,0.159348,
2,1,0,1,0,1210.94,0.169595,0.16932,32.008,1,0.0134709,10,0.00541961,-1.49474,1.87586,0.0314523,39.1902,0.16932,
2,1,0,1,0,1210.99,0.179573,0.179279,30.1431,1,0.015042,10,0.005404,-1.52081,-0.150628,-0.391692,-458.912,0.179279,
2,1,0,1,0,1211.04,0.18957,0.189315,22.9865,1,0.0163885,10,0.00435169,-1.63853,-0.0598142,-0.986388,-881.885,0.189315,
2,1,0,1,0,1211.09,0.199558,0.199294,14.769,1,0.0173182,10,0.00294336,-1.83065,-0.0533965,-1.10494,-638.884,0.199294,
2,1,0,1,0,1211.14,0.209537,0.209294,10.6857,1,0.0179343,10,0.00223646,-1.9712,-0.111037,-0.531354,-222.351,0.2092942,
2,1,0,1,0,1211.19,0.219534,0.219233,9.46239,1,0.0184315,10,0.00207446,-2.024,-0.351169,-0.16801,-62.1756,0.219233,
2,1,0,1,0,1211.24,0.229531,0.229252,8.9857,1,0.0188923,10,0.00205999,-2.04645,-0.510834,-0.115497,-40.5299,0.229252,
2,1,0,1,0,1211.29,0.23951,0.239244,8.65605,1,0.0193323,10,0.0020709,-2.06268,-0.729682,-0.0808571,-27.3392,0.239244,
2,1,0,1,0,1211.34,0.249498,0.249192,8.39363,1,0.0197576,10,0.00209162,-2.07605,-0.820717,-0.0718884,-23.536,0.2491919,
2,1,0,1,0,1211.39,0.259495,0.259207,8.17807,1,0.0201715,10,0.00211981,-2.08735,-0.772551,-0.0763703,-24.3913,0.259207,
2,1,0,1,0,1211.44,0.269474,0.269181,7.98772,1,0.0205749,10,0.00215015,-2.09758,-1.05617,-0.0558623,-17.4444,0.269181,
2,1,0,1,0,1211.49,0.279453,0.279177,7.83304,1,0.02097,10,0.00218681,-2.10607,-1.0811,-0.054574,-16.6979,0.279177,
2,1,0,1,0,1211.54,0.28945,0.289179,7.69852,1,0.0213584,10,0.00222625,-2.11359,-1.72622,-0.0341787,-10.269,0.289179,
2,1,0,1,0,1211.59,0.299438,0.299148,7.57315,1,0.0217394,10,0.0022655,-2.12072,-0.0407375,-1.4483,-402.143,0.299148,
2,0,0,1,0,1211.63,0.291747,0.291508,-2.99142,1,0.0217628,10,-0.000872023,-2.52412,-0.0254325,-2.31987,257.258,0.291508,
2,0,0,1,0,1211.68,0.28175,0.28143,-3.96229,1,0.0215819,10,-0.00111511,-2.40205,-0.189624,-0.311142,47.8476,0.28143,
2,0,0,1,0,1211.73,0.27178,0.271462,-4.37661,1,0.021374,10,-0.00118808,-2.35886,-0.227999,-0.258773,44.299,0.271462,
2,0,0,1,0,1211.78,0.261783,0.261496,-4.77605,1,0.0211451,10,-0.00124892,-2.32093,-0.334264,-0.176507,32.7522,0.261496,
2,0,0,1,0,1211.83,0.251786,0.251493,-5.11202,1,0.0208978,10,-0.00128564,-2.29141,-0.31345,-0.188228,37.6083,0.251493,
2,0,0,1,0,1211.88,0.241807,0.241528,-5.46435,1,0.0206336,10,-0.00131979,-2.26246,-0.359432,-0.164148,35.0318,0.241528,
2,0,0,1,0,1211.93,0.231824,0.231587,-5.8213,1,0.020352,10,-0.00134814,-2.23498,-0.316334,-0.186511,42.4759,0.231587,
2,0,0,1,0,1211.98,0.221822,0.221547,-6.22898,1,0.0200508,10,-0.00138001,-2.20558,-0.310967,-0.189731,46.0422,0.221547,
2,0,0,1,0,1212.03,0.211844,0.211588,-6.70069,1,0.0197284,10,-0.00141778,-2.17388,-0.329008,-0.179327,46.9765,0.211588,
2,0,0,1,0,1212.08,0.201865,0.201615,-7.31945,1,0.019379,10,-0.00147571,-2.13552,-0.250309,-0.235709,67.3324,0.201615,
2,0,0,1,0,1212.13,0.191868,0.191603,-8.14349,1,0.0189932,10,-0.00156032,-2.08919,-0.186285,-0.316719,100.912,0.191603,
2,0,0,1,0,1212.18,0.18188,0.181568,-9.34588,1,0.0185587,10,-0.00169691,-2.02938,-0.146635,-0.40236,146.529,0.181568,
2,0,0,1,0,1212.23,0.171901,0.171628,-11.0355,1,0.018053,10,-0.001894,-1.95721,-0.124194,-0.475065,204.733,0.171628,
2,0,0,1,0,1212.28,0.161904,0.161625,-13.5524,1,0.0174422,10,-0.00219042,-1.86798,-0.103424,-0.570466,301.607,0.161625,
2,0,0,1,0,1212.33,0.151907,0.151671,-16.9983,1,0.0166815,10,-0.00257816,-1.76959,-0.102455,-0.575862,382.267,0.151671,
2,0,0,1,0,1212.38,0.141928,0.141652,-21.2646,1,0.0157289,10,-0.00301217,-1.67234,-0.110997,-0.531546,440.52,0.141652,
2,0,0,1,0,1212.43,0.13194,0.131714,-25.5035,1,0.0145601,10,-0.00335917,-1.5934,-0.144493,-0.408324,406.26,0.131714,
2,0,0,1,0,1212.48,0.121943,0.121683,-28.963,1,0.0131922,10,-0.00352432,-1.53816,-0.257203,-0.229391,258.757,0.121683,
2,0,0,1,0,1212.53,0.111964,0.111658,-30.5553,1,0.0116971,10,-0.00341173,-1.51491,-2.20365,-0.0267737,31.885,0.111658,
2,0,0,1,0,1212.58,0.101985,0.101728,-29.2387,1,0.0101912,10,-0.00297439,-1.53404,0.216037,0.273101,-310.711,0.101728,
2,0,0,1,0,1212.63,0.0919883,0.0916799,-24.9283,1,0.0088292,10,-0.00228542,-1.60331,0.116512,0.506387,-492.581,0.0916799,
2,0,0,1,0,1212.68,0.0820004,0.0816984,-20.2653,1,0.00770663,10,-0.00165564,-1.69325,0.116551,0.506215,-400.522,0.0816984,
2,0,0,1,0,1212.73,0.0720215,0.0717735,-17.1282,1,0.00678099,10,-0.00122935,-1.76629,0.163137,0.361659,-242.125,0.0717735,
2,0,0,1,0,1212.78,0.0620245,0.0617605,-15.1372,1,0.00597742,10,-0.000934881,-1.81995,0.202058,0.291996,-172.583,0.0617605,
2,0,0,1,0,1212.83,0.0520275,0.0517093,-13.6224,1,0.00525995,10,-0.000704405,-1.86575,0.228895,0.257761,-137.086,0.0517093,
2,0,0,1,0,1212.88,0.0420486,0.0417741,-12.5202,1,0.00460984,10,-0.000523019,-1.90239,0.364217,0.161991,-79.2699,0.0417741,
2,0,0,1,0,1212.93,0.0320607,0.0317891,-11.942,1,0.0040014,10,-0.000379626,-1.92292,0.746019,0.0790864,-36.8521,0.0317891,
2,0,0,1,0,1212.98,0.0220637,0.0217544,-11.7435,1,0.00341075,10,-0.000255472,-1.9302,4.23059,0.0139461,-6.39396,0.0217544,
2,0,0,1,0,1213.03,0.0120848,0.0118158,-11.779,1,0.00282429,10,-0.000139178,-1.92889,-2.98983,-0.0197335,9.08645,0.0118158,
2,0,0,1,0,1213.08,0.00210598,0.00177081,-12.0481,1,0.00223188,10,-2.1335e-05,-1.91908,-0.746403,-0.0790458,37.0256,0.001770811,
2,0,0,1,0,1213.13,-0.00789103,-0.00823095,-12.2466,1,0.00162452,10,0.000100801,-1.91199,-0.847955,-0.0695792,33.3404,-0.00823095,
2,0,0,1,0,1213.18,-0.017879,-0.0182284,-12.6208,1,0.00100399,10,0.000230058,-1.89891,-0.737473,-0.0800029,39.3505,-0.0182284,
2,0,0,1,0,1213.23,-0.0278578,-0.0282657,-12.9782,1,0.000365413,10,0.000366837,-1.88679,-0.835798,-0.0705912,35.7951,-0.0282657,
2,0,0,1,0,1213.28,-0.0378548,-0.0381816,-13.3975,1,-0.000294098,10,0.000511538,-1.87298,-0.782072,-0.0754406,39.4144,-0.0381816,
2,0,0,1,0,1213.33,-0.0478519,-0.0481521,-13.8221,1,-0.000974946,10,0.000665562,-1.85943,-0.659069,-0.0895202,48.3488,-0.0481521,
2,0,0,1,0,1213.38,-0.0578126,-0.0581538,-14.3167,1,-0.00167561,10,0.000832571,-1.84416,-0.619433,-0.0952484,53.1788,-0.0581538,
2,0,0,1,0,1213.43,-0.0678187,-0.0681686,-14.8591,1,-0.00240479,10,0.00101293,-1.82801,-0.530055,-0.111309,64.5913,-0.0681686,
2,0,0,1,0,1213.48,-0.0778157,-0.0781669,-15.5419,1,-0.00316458,10,0.00121486,-1.8085,-0.510074,-0.115669,70.2006,-0.0781669,
2,0,0,1,0,1213.53,-0.0877945,-0.0881429,-16.3968,1,-0.00396094,10,0.00144526,-1.78524,-0.396491,-0.148806,95.2547,-0.0881429,
2,0,0,1,0,1213.58,-0.0977734,-0.0981158,-17.3914,1,-0.00480375,10,0.00170637,-1.75967,-0.379819,-0.155337,105.489,-0.0981158,
2,0,0,1,1,1213.62,-0.0936874,-0.0940632,-2.14735,1,-0.00527346,10,0.000201987,-2.6681,-0.00419569,-14.062,1575.81,-0.0940632,
2,1,0,1,1,1213.67,-0.0837086,-0.0841317,6.98743,1,-0.00510834,10,-0.000587864,-2.15568,0.0314777,1.87434,501.669,-0.0841317,
2,1,0,1,1,1213.72,-0.0737025,-0.0740458,10.1365,1,-0.00466615,10,-0.000750567,-1.99411,0.129802,0.454539,178.938,-0.0740458,
2,1,0,1,1,1213.77,-0.0637236,-0.0640603,11.2039,1,-0.0041296,10,-0.000717728,-1.95063,0.441566,0.133615,58.3055,-0.0640603,
2,1,0,1,1,1213.82,-0.0537447,-0.0541151,11.5656,1,-0.00355986,10,-0.000625873,-1.93683,1.64209,0.0359297,16.2174,-0.0541151,
2,1,0,1,1,1213.87,-0.0437477,-0.044116,11.67,1,-0.00297802,10,-0.000514836,-1.93293,25.1931,0.00234191,1.0655,-0.04411599,
2,1,0,1,1,1213.92,-0.0337507,-0.0341134,11.6398,1,-0.00239463,10,-0.000397073,-1.93405,-4.04502,-0.0145859,-6.6321,-0.0341134,
2,1,0,1,1,1213.97,-0.0237809,-0.0241446,11.5527,1,-0.00181702,10,-0.000278934,-1.93732,-3.90482,-0.0151095,-6.80281,-0.0241446,
2,1,0,1,1,1214.02,-0.0137839,-0.0141168,11.397,1,-0.00124303,10,-0.000160889,-1.94321,-1.35543,-0.0435286,-19.3881,-0.0141168,
2,1,0,1,1,1214.07,-0.0037869,-0.00413411,11.2303,1,-0.000677144,10,-4.64273e-05,-1.94961,-1.50474,-0.0392094,-17.1731,-0.00413411,
2,1,0,0,1,1214.09,-2.55332e-05,-0.000248974,11.1367,1,-0.000467872,10,-2.77276e-06,-1.95324, , , ,-0.000248974,