Folder: Figs_alphaMnO2_OER_Tafel_sleope/Figure_codes/Fig_3-5/rawdata_trumpetplot_data/before 10th (part 27)

File: 20221101_1-115_002_TrumpetPlot_ParaChange_09_CV_C01_4.csv
mode,ox/red,error,control changes,counter inc.,time/s,control/V,Ewe/V,<I>/mA,cycle number,(Q-Qo)/C,I Range,P/W,log(|I|),Tafel slope mV/dec,alpha_eff,dI/d(E-IR),E-IR/V,
2,0,0,1,0,6110.8,2.44065e-05,-9.62757e-05,-4.37901,5,0.0000000E+000,11,4.21592e-07,-2.35862, , , ,-9.62757e-05,
2,1,0,1,0,6110.92,0.007288,0.00701576,2.14859,5,7.03823e-05,11,1.5074e-05,-2.66785,0.039036,1.51143,121.841,0.00701576,
2,1,0,1,0,6111.05,0.0147816,0.0144725,2.50005,5,0.000367207,11,3.6182e-05,-2.60205,0.214856,0.274603,26.8409,0.0144725,
2,1,0,1,0,6111.17,0.0222712,0.0220107,2.66472,5,0.000690714,11,5.86524e-05,-2.57435,0.37364,0.157906,16.3637,0.0220107,
2,1,0,1,0,6111.3,0.0297648,0.029529,2.79966,5,0.00103164,11,8.26711e-05,-2.55289,0.35561,0.165912,18.0327,0.029529,
2,1,0,1,0,6111.42,0.0372518,0.036965,2.93747,5,0.00138937,11,0.000108583,-2.53203,0.310111,0.190254,21.8474,0.036965,
2,1,0,1,0,6111.55,0.0447467,0.0444667,3.11654,5,0.00176793,11,0.000138582,-2.50633,0.266641,0.221272,27.0309,0.0444667,
2,1,0,1,0,6111.67,0.052235,0.0519352,3.3591,5,0.00217241,11,0.000174456,-2.47378,0.218305,0.270264,35.4473,0.0519352,
2,1,0,1,0,6111.8,0.0597299,0.0594745,3.66068,5,0.00261063,11,0.000217717,-2.43644,0.188693,0.312677,44.551,0.0594745,
2,1,0,1,0,6111.92,0.0672156,0.0669389,3.99237,5,0.0030876,11,0.000267245,-2.39877,0.180816,0.326298,50.8129,0.0669389,
2,1,0,1,0,6112.05,0.0747105,0.0744567,4.33093,5,0.00360803,11,0.000322467,-2.36342,0.228629,0.258059,43.6673,0.0744567,
2,1,0,1,0,6112.17,0.0821988,0.0819059,4.66426,5,0.0041705,11,0.00038203,-2.33122,0.27689,0.213081,38.7677,0.0819059,
2,1,0,1,0,6112.3,0.0896937,0.0893914,4.96815,5,0.00477252,11,0.00044411,-2.30381,0.28756,0.205175,39.7219,0.0893914,
2,1,0,1,0,6112.42,0.0971794,0.0968691,5.25362,5,0.005411,11,0.000508913,-2.27954,0.277798,0.212384,43.5995,0.0968691,
2,1,0,1,0,6112.55,0.104674,0.104359,5.59185,5,0.00608822,11,0.00058356,-2.25244,0.232303,0.253979,55.5296,0.104359,
2,1,0,1,0,6112.67,0.112163,0.111834,6.06805,5,0.00681475,11,0.000678613,-2.21695,0.194456,0.30341,71.8454,0.111834,
2,1,0,1,0,6112.8,0.119657,0.119351,6.7145,5,0.00761109,11,0.00080138,-2.17299,0.164087,0.359565,94.1412,0.119351,
2,1,0,1,0,6112.92,0.127143,0.126854,7.46002,5,0.00849556,11,0.000946337,-2.12726,0.164458,0.358755,104.497,0.126854,
2,1,0,1,0,6113.05,0.134638,0.134348,8.19984,5,0.00947605,11,0.00110163,-2.08619,0.205845,0.286623,91.8992,0.134348,
2,1,0,1,0,6113.17,0.142126,0.141841,8.81403,5,0.0105415,11,0.00125019,-2.05483,0.303145,0.194626,66.8822,0.1418414,
2,1,0,1,0,6113.3,0.149621,0.149317,9.11692,5,0.0116666,11,0.00136131,-2.04015,4.09558,0.0144058,5.1068,0.149317,
2,1,0,1,0,6113.42,0.157107,0.156789,8.74915,5,0.0127904,11,0.00137177,-2.05803,-0.186298,-0.316696,-107.649,0.1567889,
2,1,0,1,0,6113.55,0.164602,0.164316,7.43197,5,0.013811,11,0.00122119,-2.1289,-0.0741926,-0.795228,-230.049,0.164316,
2,1,0,1,0,6113.67,0.17209,0.171811,5.72327,5,0.0146307,11,0.000983321,-2.24236,-0.064767,-0.910957,-204.216,0.171811,
2,1,0,1,0,6113.8,0.179585,0.179313,4.56403,5,0.0152666,11,0.00081839,-2.34065,-0.0935698,-0.630545,-112.674,0.179313,
2,1,0,1,0,6113.92,0.187072,0.186807,3.89522,5,0.0157915,11,0.000727654,-2.40947,-0.138654,-0.425519,-64.7848,0.186807,
2,1,0,1,0,6114.05,0.194566,0.19426,3.46754,5,0.0162498,11,0.000673604,-2.45998,-0.172935,-0.341169,-46.2157,0.19426,
2,1,0,1,0,6114.17,0.202055,0.201827,3.17851,5,0.0166633,11,0.000641508,-2.49778,-0.21351,-0.276334,-34.2318,0.201827,
2,1,0,1,0,6114.3,0.209549,0.20926,2.99085,5,0.0170478,11,0.000625867,-2.5242,-0.282283,-0.20901,-24.3358,0.2092602,
2,1,0,1,0,6114.42,0.217036,0.216737,2.8442,5,0.0174113,11,0.000616444,-2.54604,-0.480473,-0.122796,-13.6649,0.216737,
2,1,0,1,0,6114.54,0.224529,0.224239,2.74618,5,0.0177614,11,0.000615802,-2.56127,-0.521556,-0.113123,-12.191,0.224239,
2,1,0,1,0,6114.67,0.232019,0.231733,2.68692,5,0.0181009,11,0.000622649,-2.57074,-0.783273,-0.0753249,-7.88763,0.231733,
2,1,0,1,0,6114.79,0.239513,0.239224,2.63644,5,0.0184331,11,0.000630701,-2.57898,-1.13951,-0.0517766,-5.30196,0.239224,
2,1,0,1,0,6114.92,0.247001,0.2467,2.58497,5,0.0187587,11,0.000637713,-2.58754,-1.07339,-0.054966,-5.5366,0.2467,
2,1,0,1,0,6115.04,0.254493,0.254222,2.53614,5,0.0190792,11,0.000644742,-2.59583,-0.845295,-0.0697982,-6.93803,0.254222,
2,1,0,1,0,6115.17,0.261983,0.261721,2.5058,5,0.0193948,11,0.000655821,-2.60105,-0.974323,-0.0605549,-5.93071,0.261721,
2,1,0,1,0,6115.29,0.269477,0.269202,2.48186,5,0.0197064,11,0.000668122,-2.60522,-2.71909,-0.0216984,-2.09331,0.269202,
2,1,0,1,0,6115.42,0.276965,0.276672,2.44468,5,0.0200139,11,0.000676373,-2.61178,-3.85636,-0.0152994,-1.46141,0.276672,
2,1,0,1,0,6115.54,0.284457,0.284177,2.41113,5,0.0203178,11,0.000685187,-2.61778,-1.4771,-0.0399432,-3.76726,0.2841773,
2,1,0,1,0,6115.67,0.291947,0.291703,2.38881,5,0.0206179,11,0.000696823,-2.62182,-0.693976,-0.0850173,-7.90979,0.291703,
2,1,0,1,0,6115.79,0.29944,0.29916,2.36133,5,0.0209148,11,0.000706416,-2.62684,-0.00352244,-16.7497,-897.564,0.29916,
2,0,0,1,0,6115.91,0.293742,0.293429,-0.872683,5,0.0209065,11,-0.00025607,-3.05914,-0.0374941,-1.57358,51.6388,0.293429,
2,0,0,1,0,6116.03,0.286254,0.285951,-1.10737,5,0.0207808,11,-0.000316653,-2.95571,-0.0977756,-0.603423,26.2853,0.285951,
2,0,0,1,0,6116.16,0.278761,0.27847,-1.27095,5,0.0206305,11,-0.000353921,-2.89587,-0.187025,-0.315466,15.6874,0.27847,
2,0,0,1,0,6116.28,0.271272,0.270943,-1.39986,5,0.0204635,11,-0.000379283,-2.85391,-0.202935,-0.290733,15.7647,0.270943,
2,0,0,1,0,6116.41,0.263778,0.263454,-1.49788,5,0.0202826,11,-0.000394623,-2.82452,-0.216089,-0.273035,15.8753,0.263454,
2,0,0,1,0,6116.53,0.25629,0.256045,-1.57953,5,0.0200902,11,-0.000404431,-2.80147,-0.347081,-0.169989,10.486,0.256045,
2,0,0,1,0,6116.66,0.248797,0.248504,-1.65823,5,0.0198871,11,-0.000412077,-2.78036,-0.5106,-0.11555,7.48923,0.248504,
2,0,0,1,0,6116.78,0.241308,0.241017,-1.74107,5,0.0196743,11,-0.000419629,-2.75918,-0.40763,-0.144739,9.83511,0.241017,
2,0,0,1,0,6116.91,0.233814,0.233508,-1.81847,5,0.0194517,11,-0.000424628,-2.74029,-0.315718,-0.186875,13.2484,0.233508,
2,0,0,1,0,6117.03,0.226326,0.226044,-1.89468,5,0.0192196,11,-0.000428281,-2.72246,-0.368466,-0.160124,11.8618,0.226044,
2,0,0,1,0,6117.16,0.218834,0.218542,-1.98407,5,0.018977,11,-0.000433603,-2.70244,-0.418486,-0.140985,10.909,0.218542,
2,0,0,1,0,6117.28,0.211344,0.21105,-2.08217,5,0.0187234,11,-0.000439442,-2.68148,-0.417245,-0.141404,11.4486,0.21105,
2,0,0,1,0,6117.4,0.203856,0.203498,-2.18938,5,0.0184568,11,-0.000445533,-2.65968,-0.311267,-0.189548,16.2026,0.2034978,
2,0,0,1,0,6117.53,0.196362,0.196092,-2.31715,5,0.0181751,11,-0.000454375,-2.63505,-0.253108,-0.233102,21.1619,0.196092,
2,0,0,1,0,6117.65,0.18887,0.188553,-2.49285,5,0.0178739,11,-0.000470034,-2.6033,-0.215329,-0.273999,26.7658,0.188553,
2,0,0,1,0,6117.78,0.18138,0.181121,-2.74375,5,0.0175474,11,-0.000496952,-2.56165,-0.166233,-0.354924,37.9409,0.181121,
2,0,0,1,0,6117.9,0.173892,0.1736,-3.08445,5,0.0171852,11,-0.000535461,-2.51082,-0.123259,-0.478666,57.5392,0.1736,
2,0,0,1,0,6118.03,0.166398,0.166047,-3.57573,5,0.016771,11,-0.000593741,-2.44663,-0.101699,-0.580145,81.2801,0.166047,
2,0,0,1,0,6118.15,0.158905,0.158629,-4.32983,5,0.0162792,11,-0.000686836,-2.36353,-0.0848543,-0.69531,117.9,0.158629,
2,0,0,1,0,6118.28,0.151417,0.15113,-5.40379,5,0.0156744,11,-0.000816675,-2.2673,-0.0784631,-0.751946,158.365,0.15113,
2,0,0,1,0,6118.4,0.143927,0.143647,-6.67131,5,0.0149218,11,-0.000958311,-2.17579,-0.0857603,-0.687964,178.931,0.143647,
2,0,0,1,0,6118.53,0.136435,0.136129,-7.88014,5,0.0140094,11,-0.00107271,-2.10347,-0.125311,-0.470828,144.645,0.1361289,
2,0,0,1,0,6118.65,0.128941,0.128634,-8.77318,5,0.0129643,11,-0.00112853,-2.05684,-0.236317,-0.249665,85.2466,0.1286335,
2,0,0,1,0,6118.78,0.121453,0.121136,-9.15169,5,0.01184,11,-0.00110859,-2.0385,-2.09194,-0.0282035,10.0424,0.121136,
2,0,0,1,0,6118.9,0.113963,0.113628,-8.97939,5,0.010703,11,-0.00102031,-2.04675,0.372067,0.158573,-55.4532,0.113628,
2,0,0,1,0,6119.03,0.106471,0.106206,-8.322,5,0.00961751,11,-0.000883842,-2.07977,0.178801,0.329976,-107.244,0.106206,
2,0,0,1,0,6119.15,0.0989825,0.0986698,-7.47652,5,0.00863024,11,-0.000737707,-2.1263,0.15818,0.372993,-108.943,0.09866979,
2,0,0,1,0,6119.28,0.0914889,0.0911953,-6.77658,5,0.00774299,11,-0.000617992,-2.16899,0.203528,0.289887,-76.5877,0.0911953,
2,0,0,1,0,6119.4,0.0839993,0.0836571,-6.29884,5,0.00692971,11,-0.000526942,-2.20074,0.291431,0.202449,-49.7333,0.0836571,
2,0,0,1,0,6119.53,0.076507,0.0761912,-5.96862,5,0.00616423,11,-0.000454757,-2.22413,0.354481,0.166441,-38.801,0.0761912,
2,0,0,1,0,6119.65,0.0690187,0.0686876,-5.68042,5,0.00543638,11,-0.000390175,-2.24562,0.315625,0.186931,-41.4999,0.0686876,
2,0,0,1,0,6119.78,0.0615251,0.0611807,-5.37748,5,0.0047444,11,-0.000328998,-2.26942,0.277823,0.212365,-44.5771,0.0611807,
2,0,0,1,0,6119.9,0.0540355,0.0537408,-5.01758,5,0.00409492,11,-0.000269648,-2.29951,0.245478,0.240348,-47.0298,0.0537408,
2,0,0,1,0,6120.03,0.0465432,0.0462085,-4.63778,5,0.00349143,11,-0.000214305,-2.33369,0.225681,0.261431,-47.4317,0.0462085,
2,0,0,1,0,6120.15,0.0390549,0.0387303,-4.33477,5,0.00293193,11,-0.000167887,-2.36303,0.254085,0.232206,-39.2468,0.0387303,
2,0,0,1,0,6120.28,0.0315613,0.0312229,-4.12125,5,0.00240494,11,-0.000128678,-2.38497,0.413956,0.142527,-22.9105,0.0312229,
2,0,0,1,0,6120.4,0.0240717,0.0237624,-3.98859,5,0.00189918,11,-9.47784e-05,-2.39918,0.937613,0.0629257,-9.82377,0.0237624,
2,0,0,1,0,6120.53,0.0165781,0.0162887,-3.94183,5,0.00140372,11,-6.42073e-05,-2.4043,17.1617,0.00343789,-0.530336,0.0162887,
2,0,0,1,0,6120.65,0.00909108,0.00875873,-3.94332,5,0.000911337,11,-3.45385e-05,-2.40414,-2.85042,-0.0206987,3.18904,0.00875873,
2,0,0,1,0,6120.78,0.00159616,0.0012842,-4.03798,5,0.000415234,11,-5.18558e-06,-2.39384, , , ,0.0012842,
2,0,0,0,0,6120.8,0.000199195,-0.000178351,-4.02571,5,0.000321338,11,7.17991e-07,-2.39516, , , ,-0.0001783512,

File: 20221101_1-115_002_TrumpetPlot_ParaChange_09_CV_C01_5.csv
mode,ox/red,error,control changes,counter inc.,time/s,control/V,Ewe/V,<I>/mA,cycle number,(Q-Qo)/C,I Range,P/W,log(|I|),Tafel slope mV/dec,alpha_eff,dI/d(E-IR),E-IR/V,
2,0,0,1,0,7342.43,2.44065e-05,-0.000153538,-4.20803,6,0.0000000E+000,11,6.46091e-07,-2.37592, , , ,-0.000153538,
2,1,0,1,0,7342.55,0.007288,0.0069914,2.2208,6,8.084e-05,11,1.55265e-05,-2.65349,0.0418673,1.40921,116.972,0.0069914,
2,1,0,1,0,7342.68,0.0147816,0.0144743,2.53522,6,0.000383995,11,3.66955e-05,-2.59599,0.222538,0.265123,26.3303,0.01447431,
2,1,0,1,0,7342.8,0.0222712,0.0219947,2.68695,6,0.000711301,11,5.90987e-05,-2.57074,0.374732,0.157446,16.5158,0.0219947,
2,1,0,1,0,7342.93,0.0297648,0.0294408,2.83145,6,0.00105592,11,8.33604e-05,-2.54799,0.339599,0.173734,19.1403,0.0294408,
2,1,0,1,0,7343.05,0.0372518,0.036954,2.99109,6,0.00141912,11,0.000110533,-2.52417,0.273588,0.215653,25.1765,0.036954,
2,1,0,1,0,7343.18,0.0447467,0.044436,3.19216,6,0.00180561,11,0.000141847,-2.49592,0.229814,0.25673,32.1024,0.044436,
2,1,0,1,0,7343.3,0.052235,0.0519257,3.45988,6,0.00222115,11,0.000179656,-2.46094,0.208807,0.282557,38.2195,0.0519257,
2,1,0,1,0,7343.43,0.0597299,0.0593878,3.78388,6,0.00267331,11,0.000224716,-2.42206,0.195561,0.301696,44.4045,0.0593878,
2,1,0,1,0,7343.55,0.0672156,0.0669419,4.12472,6,0.00316606,11,0.000276116,-2.38461,0.189372,0.311557,49.9921,0.0669419,
2,1,0,1,0,7343.68,0.0747105,0.0743904,4.45718,6,0.00370222,11,0.000331571,-2.35094,0.225409,0.261746,45.5093,0.0743904,
2,1,0,1,0,7343.8,0.0821988,0.0818904,4.76357,6,0.00427881,11,0.000390091,-2.32207,0.303236,0.194568,36.2245,0.0818904,
2,1,0,1,0,7343.93,0.0896937,0.0894328,5.05907,6,0.00489292,11,0.000452447,-2.29593,0.307594,0.191812,37.8388,0.0894328,
2,1,0,1,0,7344.05,0.0971794,0.09692,5.33442,6,0.00554224,11,0.000517012,-2.27291,0.288619,0.204422,42.5781,0.09692,
2,1,0,1,0,7344.18,0.104674,0.104352,5.68978,6,0.00623054,11,0.000593738,-2.2449,0.22894,0.25771,57.3154,0.104352,
2,1,0,1,0,7344.3,0.112163,0.111854,6.18135,6,0.00697055,11,0.00069141,-2.20892,0.188512,0.312977,75.6201,0.111854,
2,1,0,1,0,7344.43,0.119657,0.119354,6.84957,6,0.0077832,11,0.000817526,-2.16434,0.174826,0.337479,90.0791,0.119354,
2,1,0,1,0,7344.55,0.127143,0.126875,7.55536,6,0.0086823,11,0.000958588,-2.12175,0.183017,0.322374,95.0034,0.126875,
2,1,0,1,0,7344.67,0.134638,0.134329,8.2141,6,0.00966949,11,0.0011034,-2.08544,0.236021,0.249978,80.2031,0.134329,
2,1,0,1,0,7344.8,0.142126,0.141851,8.71797,6,0.0107295,11,0.00123666,-2.05958,0.371362,0.158875,54.0185,0.141851,
2,1,0,1,0,7344.92,0.149621,0.149349,8.8997,6,0.0118353,11,0.00132916,-2.05062,-1.29166,-0.0456777,-15.804,0.149349,
2,1,0,1,0,7345.05,0.157107,0.156835,8.35522,6,0.0129214,11,0.00131039,-2.07804,-0.142927,-0.412798,-133.79,0.156835,
2,1,0,1,0,7345.17,0.164602,0.164281,6.86308,6,0.0138797,11,0.00112748,-2.16348,-0.0671388,-0.878776,-234.759,0.164281,
2,1,0,1,0,7345.3,0.17209,0.171821,5.19496,6,0.0146285,11,0.000892601,-2.28442,-0.0643705,-0.916568,-187.183,0.171821,
2,1,0,1,0,7345.42,0.179585,0.17929,4.19836,6,0.0152094,11,0.000752723,-2.37692,-0.0974014,-0.605741,-99.5273,0.17929,
2,1,0,1,0,7345.55,0.187072,0.186803,3.63949,6,0.0156959,11,0.00067987,-2.43896,-0.150315,-0.392508,-55.7422,0.186803,
2,1,0,1,0,7345.67,0.194566,0.194301,3.28247,6,0.0161269,11,0.000637786,-2.4838,-0.210443,-0.280361,-35.9831,0.194301,
2,1,0,1,0,7345.8,0.202055,0.201763,3.04647,6,0.0165213,11,0.000614663,-2.5162,-0.254835,-0.231523,-27.5579,0.201763,
2,1,0,1,0,7345.92,0.209549,0.209299,2.89774,6,0.0168921,11,0.000606495,-2.53794,-0.306123,-0.192733,-21.7593,0.209299,
2,1,0,1,0,7346.05,0.217036,0.216766,2.77844,6,0.017246,11,0.000602271,-2.5562,-0.581736,-0.101421,-11.0126,0.216766,
2,1,0,1,0,7346.17,0.224529,0.224232,2.70007,6,0.0175889,11,0.000605444,-2.56862,-0.737573,-0.0799921,-8.45103,0.224232,
2,1,0,1,0,7346.3,0.232019,0.231679,2.63668,6,0.0179228,11,0.000610864,-2.57894,-1.00628,-0.0586315,-6.05158,0.231679,
2,1,0,1,0,7346.42,0.239513,0.239263,2.5975,6,0.0182502,11,0.000621487,-2.58544,-0.814716,-0.0724179,-7.32297,0.239263,
2,1,0,1,0,7346.55,0.247001,0.246692,2.56213,6,0.0185719,11,0.000632058,-2.5914,-1.04092,-0.0566807,-5.63212,0.246692,
2,1,0,1,0,7346.67,0.254493,0.25417,2.5129,6,0.018889,11,0.000638705,-2.59982,-1.47575,-0.0399798,-3.93265,0.25417,
2,1,0,1,0,7346.8,0.261983,0.261707,2.47648,6,0.0192015,11,0.000648112,-2.60616,-1.06334,-0.0554857,-5.38613,0.261707,
2,1,0,1,0,7346.92,0.269477,0.26915,2.45507,6,0.0195102,11,0.000660781,-2.60994,-1.52342,-0.0387286,-3.70746,0.26915,
2,1,0,1,0,7347.05,0.276965,0.276701,2.42834,6,0.0198151,11,0.000671927,-2.61469,-3.30837,-0.0178335,-1.68703,0.276701,
2,1,0,1,0,7347.17,0.284457,0.28418,2.39695,6,0.0201165,11,0.000681165,-2.62034,-3.25652,-0.0181175,-1.69366,0.28418,
2,1,0,1,0,7347.3,0.291947,0.291657,2.36275,6,0.0204143,11,0.000689111,-2.62658,-0.94704,-0.0622994,-5.76425,0.2916567,
2,1,0,1,0,7347.42,0.29944,0.299155,2.34199,6,0.020709,11,0.000700618,-2.63042,-0.00329897,-17.8844,-937.25,0.299155,
2,0,0,1,0,7347.54,0.293742,0.293462,-0.916115,6,0.0206956,11,-0.000268845,-3.03805,-0.0468326,-1.25981,43.3123,0.2934624,
2,0,0,1,0,7347.66,0.286254,0.285978,-1.12824,6,0.0205668,11,-0.000322653,-2.9476,-0.0984003,-0.599591,26.3767,0.285978,
2,0,0,1,0,7347.78,0.278761,0.278461,-1.27051,6,0.0204154,11,-0.000353788,-2.89602,-0.166988,-0.353318,17.6936,0.278461,
2,0,0,1,0,7347.91,0.271272,0.270918,-1.39507,6,0.0202479,11,-0.00037795,-2.8554,-0.231736,-0.2546,13.856,0.2709178,
2,0,0,1,0,7348.03,0.263778,0.263519,-1.49705,6,0.0200669,11,-0.000394501,-2.82476,-0.301369,-0.195774,11.377,0.2635189,
2,0,0,1,0,7348.16,0.25629,0.255979,-1.58259,6,0.0198748,11,-0.000405109,-2.80063,-0.349787,-0.168674,10.346,0.255979,
2,0,0,1,0,7348.28,0.248797,0.248471,-1.65061,6,0.0196723,11,-0.00041013,-2.78235,-0.37433,-0.157615,10.2077,0.248471,
2,0,0,1,0,7348.41,0.241308,0.241013,-1.72754,6,0.0194605,11,-0.00041636,-2.76257,-0.520536,-0.113345,7.6751,0.241013,
2,0,0,1,0,7348.53,0.233814,0.233521,-1.80948,6,0.0192392,11,-0.000422552,-2.74245,-0.430518,-0.137044,9.65624,0.233521,
2,0,0,1,0,7348.66,0.226326,0.226005,-1.88656,6,0.0190086,11,-0.000426371,-2.72433,-0.310212,-0.190193,13.9672,0.226005,
2,0,0,1,0,7348.78,0.218834,0.218557,-1.96002,6,0.018768,11,-0.000428377,-2.70774,-0.342253,-0.172387,13.2394,0.218557,
2,0,0,1,0,7348.91,0.211344,0.21104,-2.05091,6,0.0185171,11,-0.000432825,-2.68805,-0.521345,-0.113169,9.07635,0.21104,
2,0,0,1,0,7349.03,0.203856,0.203533,-2.16275,6,0.0182539,11,-0.000440191,-2.66499,-0.429112,-0.137493,11.5797,0.203533,
2,0,0,1,0,7349.16,0.196362,0.196049,-2.28531,6,0.0179767,11,-0.000448032,-2.64105,-0.248882,-0.23706,21.0822,0.196049,
2,0,0,1,0,7349.28,0.18887,0.188561,-2.4343,6,0.0176815,11,-0.000459013,-2.61363,-0.199843,-0.295232,28.2137,0.188561,
2,0,0,1,0,7349.41,0.18138,0.181058,-2.66138,6,0.0173632,11,-0.000481864,-2.57489,-0.178554,-0.330433,34.4156,0.181058,
2,0,0,1,0,7349.53,0.173892,0.173611,-2.97642,6,0.0170122,11,-0.00051674,-2.52631,-0.139246,-0.42371,49.1906,0.173611,
2,0,0,1,0,7349.66,0.166398,0.166128,-3.4404,6,0.0166137,11,-0.000571548,-2.46339,-0.106651,-0.553206,74.175,0.166128,
2,0,0,1,0,7349.78,0.158905,0.158589,-4.12125,6,0.0161442,11,-0.000653585,-2.38497,-0.0828906,-0.711781,114.899,0.158589,
2,0,0,1,0,7349.91,0.151417,0.151104,-5.12679,6,0.0155688,11,-0.000774679,-2.29015,-0.0786765,-0.749906,150.534,0.151104,
2,0,0,1,0,7350.03,0.143927,0.143645,-6.37953,6,0.0148512,11,-0.000916389,-2.19521,-0.0840383,-0.702061,174.725,0.143645,
2,0,0,1,0,7350.16,0.136435,0.136097,-7.62395,6,0.0139742,11,-0.0010376,-2.11782,-0.118028,-0.49988,148.263,0.136097,
2,0,0,1,0,7350.28,0.128941,0.128659,-8.53961,6,0.0129603,11,-0.0010987,-2.06856,-0.207346,-0.284549,94.5904,0.128659,
2,0,0,1,0,7350.41,0.121453,0.121215,-8.96927,6,0.0118614,11,-0.00108721,-2.04724,-1.10166,-0.0535553,18.721,0.121215,
2,0,0,1,0,7350.53,0.113963,0.113644,-8.87455,6,0.0107417,11,-0.00100854,-2.05185,0.413404,0.142718,-49.3494,0.113644,
2,0,0,1,0,7350.66,0.106471,0.106163,-8.32279,6,0.00966303,11,-0.000883571,-2.07973,0.202766,0.290976,-94.4024,0.106163,
2,0,0,1,0,7350.78,0.0989825,0.0987072,-7.51522,6,0.00867318,11,-0.000741806,-2.12406,0.164081,0.359578,-105.473,0.0987072,
2,0,0,1,0,7350.91,0.0914889,0.0911824,-6.78553,6,0.007782,11,-0.000618721,-2.16842,0.198452,0.2973,-78.9117,0.0911824,
2,0,0,1,0,7351.03,0.0839993,0.0836914,-6.3055,6,0.00696702,11,-0.000527716,-2.20028,0.262076,0.225126,-55.3746,0.0836914,
2,0,0,1,0,7351.16,0.076507,0.076207,-5.99481,6,0.00620047,11,-0.000456847,-2.22222,0.384217,0.153559,-35.844,0.076207,
2,0,0,1,0,7351.28,0.0690187,0.0687359,-5.71425,6,0.00546998,11,-0.000392774,-2.24304,0.37432,0.157619,-35.1939,0.0687359,
2,0,0,1,0,7351.41,0.0615251,0.0612393,-5.43183,6,0.00477206,11,-0.000332641,-2.26505,0.305572,0.19308,-41.0266,0.0612393,
2,0,0,1,0,7351.53,0.0540355,0.0537488,-5.10887,6,0.00411299,11,-0.000274596,-2.29167,0.248954,0.236991,-47.1862,0.0537488,
2,0,0,1,0,7351.66,0.0465432,0.0461993,-4.73762,6,0.00349773,11,-0.000218875,-2.32444,0.231286,0.255095,-47.1197,0.0461993,
2,0,0,1,0,7351.78,0.0390549,0.0387025,-4.40185,6,0.00292803,11,-0.000170362,-2.35636,0.268034,0.220122,-37.8028,0.0387025,
2,0,0,1,0,7351.9,0.0315613,0.0312528,-4.1526,6,0.0023942,11,-0.00012978,-2.38168,0.352174,0.167531,-27.2238,0.0312528,
2,0,0,1,0,7352.03,0.0240717,0.023751,-4.0025,6,0.00188515,11,-9.50633e-05,-2.39767,0.540888,0.10908,-17.0916,0.023751,
2,0,0,1,0,7352.15,0.0165781,0.016302,-3.94563,6,0.00138894,11,-6.43215e-05,-2.40388,3.06888,0.0192252,-2.96036,0.01630199,
2,0,0,1,0,7352.28,0.00909108,0.00879088,-3.93262,6,0.00089749,11,-3.45712e-05,-2.40532,-2.00589,-0.0294134,4.51295,0.00879088,
2,0,0,1,0,7352.4,0.00159616,0.00126589,-4.01007,6,0.000403585,11,-5.0763e-06,-2.39685, , , ,0.001265888,
2,0,0,0,0,7352.43,0.000199195,-0.000176442,-3.99486,6,0.000310163,11,7.04863e-07,-2.3985, , , ,-0.000176442,