Folder: Figs_alphaMnO2_OER_Tafel_sleope/Figure_codes/Fig_3-5/rawdata_trumpetplot_data/before 10th (part 2)

File: 20221101_1-115_002_TrumpetPlot_ParaChange_04_CV_C01.mpt
EC-Lab ASCII FILE
Nb header lines : 68

Cyclic Voltammetry

Run on channel : 1 (SN 65296)
User :
CE vs. WE compliance from -10 V to 10 V
Electrode connection : standard
Potential control : Ewe
Ewe ctrl range : min = -1.00 V, max = 1.00 V
Safety Limits :
	Do not start on E overload
Acquisition started on : 11/08/2022 17:30:03.488
Loaded Setting File :  NONE
Saved on :
	File : 20221101_1-115_002_TrumpetPlot_ParaChange_04_CV_C01.mpr
	Directory : C:\Users\NakamuraT\Documents\EC-Lab\Data\Yatsuzuka\20221108_1-115_001_TrumpetPlot\
	Host : 192.109.209.100
Device : SP-50e (SN .003219)
Address : 192.109.209.128
EC-Lab for windows v11.43 (software)
Internet server v11.40 (firmware)
Command interpretor v11.40 (firmware)
Electrode material : Au/Pd
Initial state :
Electrolyte : NaCl (0.2M)
Comments : Fe(CN)63-/Fe(CN)64- 5.10-3 M
Reference electrode : SCE Saturated Calomel Electrode (0.241 V)
Electrode surface area : 0.001 cm2
Characteristic mass : 0.001 g
Equivalent Weight : 0.000 g/eq.
Density : 0.000 g/cm3
Volume (V) : 0.001 cm3
Cycle Definition : Charge/Discharge alternance
Ei (V)              0.000
vs.                 Ref
dE/dt               1.000
dE/dt unit          mV/s
E1 (V)              0.300
vs.                 Ref
Step percent        50
N                   10
E range min (V)     -1.000
E range max (V)     1.000
I Range             10 mA
I Range min         Unset
I Range max         Unset
I Range init        Unset
Bandwidth           5
E2 (V)              0.000
vs.                 Ref
nc cycles           0
Reverse Scan        0
Ef (V)              0.000
vs.                 Eoc

Number of loops : 8
Loop 0 from point number 0 to 1204
Loop 1 from point number 1205 to 2409
Loop 2 from point number 2410 to 3614
Loop 3 from point number 3615 to 4819
Loop 4 from point number 4820 to 6024
Loop 5 from point number 6025 to 7229
Loop 6 from point number 7230 to 8434
Loop 7 from point number 8435 to 9639

mode	ox/red	error	control changes	counter inc.	time/s	control/V	Ewe/V	<I>/mA	cycle number	(Q-Qo)/C	I Range	P/W
2	0	0	0	0	358.801	2.44065e-05	-0.000382585	-0.375388	1	0.0000000E+000	11	1.43618e-07
2	0	0	1	0	395.033	0.0362557	0.0359342	-0.0263294	1	-0.00171292	11	-9.46126e-07
2	1	0	1	0	431.489	0.0727116	0.0724546	0.0127273	1	-0.00119605	11	9.22152e-07
2	1	0	1	0	467.944	0.109167	0.108865	0.0661936	1	0.000979122	11	7.20614e-06
2	1	0	1	0	504.4	0.145623	0.145303	0.172895	1	0.00653495	11	2.51222e-05
2	1	0	1	0	540.856	0.182079	0.181822	0.0573998	1	0.0112594	11	1.04365e-05
2	1	0	1	0	577.312	0.218535	0.218196	0.0438287	1	0.0137997	11	9.56324e-06
2	1	0	1	0	613.768	0.254991	0.254677	0.0457782	1	0.016171	11	1.16587e-05
2	1	0	1	0	650.224	0.291447	0.291136	0.0484251	1	0.018617	11	1.40983e-05
2	1	0	1	0	686.032	0.27277	0.272477	-0.00393047	1	0.0188797	11	-1.07096e-06
2	0	0	1	0	722.488	0.236314	0.23603	-0.0218597	1	0.017656	11	-5.15955e-06
2	0	0	1	0	758.944	0.199858	0.199594	-0.0415906	1	0.015762	11	-8.30124e-06
2	0	0	1	0	795.4	0.163402	0.163111	-0.103042	1	0.0126259	11	-1.68073e-05
2	0	0	1	0	831.856	0.126946	0.126635	-0.193476	1	0.00537178	11	-2.45008e-05
2	0	0	1	0	868.312	0.0904901	0.0901793	-0.122926	1	-0.000938864	11	-1.10854e-05
2	0	0	1	0	904.767	0.0540342	0.0537364	-0.0974917	1	-0.00568873	11	-5.23886e-06
2	0	0	1	0	941.223	0.0175782	0.0172594	-0.100979	1	-0.010054	11	-1.74284e-06
2	0	0	1	0	1608.18	0.0177779	0.0174555	-0.055463	2	-0.00134957	11	-9.68134e-07
2	0	0	1	0	1644.64	0.0542339	0.0539484	-0.00653462	2	-0.00156103	11	-3.52532e-07
2	1	0	1	0	1681.1	0.0906899	0.0903999	0.0409377	2	-0.000126941	11	3.70076e-06
2	1	0	1	0	1717.55	0.127146	0.126834	0.130662	2	0.00348809	11	1.65724e-05
2	1	0	1	0	1754.01	0.163602	0.163292	0.0940857	2	0.00967436	11	1.53635e-05
2	1	0	1	0	1790.46	0.200058	0.19979	0.0456301	2	0.012684	11	9.11646e-06
2	1	0	1	0	1826.92	0.236514	0.236202	0.043736	2	0.0150626	11	1.03305e-05
2	1	0	1	0	1863.38	0.27297	0.272685	0.0473436	2	0.0174628	11	1.29099e-05
2	1	0	1	0	1899.18	0.291248	0.290932	0.0110247	2	0.0193005	11	3.20745e-06
2	1	0	1	0	1935.64	0.254792	0.25454	-0.012612	2	0.0184729	11	-3.21027e-06
2	0	0	1	0	1972.09	0.218336	0.218073	-0.029271	2	0.0169424	11	-6.38321e-06
2	0	0	1	0	2008.55	0.18188	0.181587	-0.0568393	2	0.0146504	11	-1.03213e-05
2	0	0	1	0	2045.01	0.145424	0.145114	-0.183651	2	0.00990357	11	-2.66502e-05
2	0	0	1	0	2081.46	0.108968	0.108687	-0.14769	2	0.00230361	11	-1.60519e-05
2	0	0	1	0	2117.92	0.0725118	0.0722181	-0.110944	2	-0.00319339	11	-8.01215e-06
2	0	0	1	0	2154.37	0.0360558	0.035756	-0.0963395	2	-0.00769202	11	-3.44472e-06
2	0	0	0	0	2190.4	2.44065e-05	-0.000191712	-0.109813	2	-0.0121649	11	2.10525e-08
2	0	0	1	0	2857.79	0.0357563	0.0354899	-0.0240051	3	-0.00169572	11	-8.51939e-07
2	1	0	1	0	2894.25	0.0722122	0.0718916	0.0220514	3	-0.00104885	11	1.58531e-06
2	1	0	1	0	2930.7	0.108668	0.108386	0.0754624	3	0.00140618	11	8.1791e-06
2	1	0	1	0	2967.16	0.145124	0.144836	0.162438	3	0.00683069	11	2.35269e-05
2	1	0	1	0	3003.61	0.18158	0.181307	0.0565593	3	0.01124	11	1.02546e-05
2	1	0	1	0	3040.07	0.218036	0.217758	0.0456857	3	0.0137139	11	9.94841e-06
2	1	0	1	0	3076.53	0.254492	0.254195	0.0476072	3	0.0160692	11	1.21015e-05
2	1	0	1	0	3112.98	0.290948	0.290643	0.0512343	3	0.0185115	11	1.48909e-05
2	0	0	1	0	3148.79	0.273269	0.272989	-0.00508339	3	0.0188291	11	-1.38771e-06
2	0	0	1	0	3185.25	0.236813	0.236525	-0.0229703	3	0.0176326	11	-5.43305e-06
2	0	0	1	0	3221.7	0.200357	0.200064	-0.0416311	3	0.0157931	11	-8.32889e-06
2	0	0	1	0	3258.16	0.163901	0.16361	-0.0938864	3	0.0128608	11	-1.53608e-05
2	0	0	1	0	3294.61	0.127445	0.127117	-0.195857	3	0.00606126	11	-2.48969e-05
2	0	0	1	0	3331.07	0.0909895	0.0907148	-0.133175	3	-0.000476048	11	-1.2081e-05
2	0	0	1	0	3367.52	0.0545335	0.0542347	-0.103171	3	-0.00550251	11	-5.59545e-06
2	0	0	1	0	3403.98	0.0180776	0.0177631	-0.102037	3	-0.0098906	11	-1.8125e-06
2	0	0	1	0	4070.94	0.0172785	0.0169635	-0.0549056	4	-0.00134683	11	-9.3139e-07
2	0	0	1	0	4107.4	0.0537345	0.0534341	-0.000578476	4	-0.00155179	11	-3.09104e-08
2	1	0	1	0	4143.85	0.0901905	0.0898856	0.0489392	4	7.54193e-05	11	4.39893e-06
2	1	0	1	0	4180.31	0.126646	0.12635	0.130166	4	0.00378902	11	1.64465e-05
2	1	0	1	0	4216.76	0.163102	0.162831	0.0876526	4	0.00954089	11	1.42725e-05
2	1	0	1	0	4253.22	0.199558	0.199275	0.0470257	4	0.0124031	11	9.37104e-06
2	1	0	1	0	4289.68	0.236014	0.235776	0.0456484	4	0.0147464	11	1.07628e-05
2	1	0	1	0	4326.13	0.27247	0.272175	0.0500191	4	0.0171355	11	1.36139e-05
2	1	0	1	0	4361.94	0.291747	0.291438	0.00880785	4	0.0190091	11	2.56694e-06
2	0	0	1	0	4398.4	0.255291	0.25502	-0.0152872	4	0.0182002	11	-3.89854e-06
2	0	0	1	0	4434.85	0.218835	0.218541	-0.0318589	4	0.0166974	11	-6.9625e-06
2	0	0	1	0	4471.31	0.182379	0.182123	-0.0554156	4	0.014491	11	-1.00925e-05
2	0	0	1	0	4507.76	0.145923	0.14566	-0.168603	4	0.010163	11	-2.45586e-05
2	0	0	1	0	4544.22	0.109467	0.109158	-0.157378	4	0.00270755	11	-1.71791e-05
2	0	0	1	0	4580.68	0.0730112	0.072741	-0.120711	4	-0.00299365	11	-8.7806e-06
2	0	0	1	0	4617.13	0.0365552	0.0362512	-0.100314	4	-0.00763007	11	-3.6365e-06
2	0	0	1	0	4653.49	0.000199235	-0.000159223	-0.11183	4	-0.0121018	11	1.78058e-08
2	0	0	1	0	5320.55	0.0352569	0.0350138	-0.0222503	5	-0.00169359	11	-7.79066e-07
2	1	0	1	0	5357	0.0717128	0.0714419	0.0290118	5	-0.000938683	11	2.07266e-06
2	1	0	1	0	5393.46	0.108169	0.107844	0.0789116	5	0.00164624	11	8.51011e-06
[...]
2	1	0	1	0	6643.07	0.126147	0.125863	0.126911	6	0.00397223	11	1.59734e-05
2	1	0	1	0	6679.52	0.162603	0.162323	0.0786661	6	0.00930882	11	1.27693e-05
2	1	0	1	0	6715.98	0.199059	0.198706	0.0462756	6	0.0119968	11	9.19522e-06
2	1	0	1	0	6752.43	0.235515	0.235196	0.0462739	6	0.0143018	11	1.08834e-05
2	1	0	1	0	6788.89	0.271971	0.271687	0.0498144	6	0.0166743	11	1.35339e-05
2	1	0	1	0	6824.7	0.292246	0.29196	0.0089439	6	0.0185777	11	2.61126e-06
2	0	0	1	0	6861.15	0.25579	0.255444	-0.0150649	6	0.0177863	11	-3.84823e-06
2	0	0	1	0	6897.61	0.219334	0.21901	-0.0313763	6	0.0163063	11	-6.87173e-06
2	0	0	1	0	6934.07	0.182878	0.182606	-0.0530224	6	0.0141657	11	-9.68224e-06
2	0	0	1	0	6970.52	0.146423	0.146139	-0.154061	6	0.0102153	11	-2.25143e-05
2	0	0	1	0	7006.98	0.109967	0.109664	-0.162605	6	0.00297964	11	-1.78319e-05
2	0	0	1	0	7043.43	0.0735106	0.0731821	-0.126036	6	-0.00283439	11	-9.2236e-06
2	0	0	1	0	7079.89	0.0370546	0.0367432	-0.10243	6	-0.00761204	11	-3.76359e-06
2	0	0	1	0	7116.34	0.000598646	0.000246162	-0.1112	6	-0.0120932	11	-2.73733e-08
2	0	0	1	0	7783.3	0.0347575	0.0344614	-0.0210039	7	-0.00169325	11	-7.23824e-07
2	1	0	1	0	7819.76	0.0712134	0.0709011	0.0331023	7	-0.000843426	11	2.34699e-06
2	1	0	1	0	7856.22	0.107669	0.107397	0.0814386	7	0.00180711	11	8.74627e-06
2	1	0	1	0	7892.67	0.144125	0.143846	0.136464	7	0.00686246	11	1.96298e-05
2	1	0	1	0	7929.13	0.180581	0.18027	0.0525486	7	0.0105705	11	9.47296e-06
2	1	0	1	0	7965.58	0.217037	0.216735	0.0467579	7	0.0129168	11	1.01341e-05
2	1	0	1	0	8002.04	0.253493	0.253199	0.0492947	7	0.0152337	11	1.24814e-05
2	1	0	1	0	8038.5	0.289949	0.289654	0.0527369	7	0.0176552	11	1.52755e-05
2	0	0	1	0	8074.3	0.274268	0.273969	-0.00660797	7	0.0180658	11	-1.81038e-06
2	0	0	1	0	8110.76	0.237812	0.237509	-0.0247593	7	0.0169041	11	-5.88057e-06
2	0	0	1	0	8147.22	0.201356	0.201052	-0.0411159	7	0.0151339	11	-8.26644e-06
2	0	0	1	0	8183.67	0.1649	0.164607	-0.0778302	7	0.0125073	11	-1.28114e-05
2	0	0	1	0	8220.13	0.128444	0.128116	-0.186722	7	0.00669086	11	-2.39221e-05
2	0	0	1	0	8256.58	0.0919883	0.0916734	-0.140618	7	3.71744e-05	11	-1.28909e-05
2	0	0	1	0	8293.04	0.0555323	0.0552538	-0.114336	7	-0.00527069	11	-6.3175e-06
2	0	0	1	0	8329.5	0.0190764	0.0187652	-0.10455	7	-0.00977938	11	-1.96191e-06
2	0	0	1	0	8996.46	0.0162797	0.0159709	-0.0552067	8	-0.00131048	11	-8.81703e-07
2	0	0	1	0	9032.91	0.0527357	0.0524564	0.00742462	8	-0.00144221	11	3.89469e-07
2	1	0	1	0	9069.37	0.0891917	0.0888888	0.0540739	8	0.000389427	11	4.80656e-06
2	1	0	1	0	9105.82	0.125648	0.125325	0.122428	8	0.00416235	11	1.53433e-05
2	1	0	1	0	9142.28	0.162104	0.161804	0.0724123	8	0.00913936	11	1.17166e-05
2	1	0	1	0	9178.74	0.19856	0.198297	0.0461603	8	0.0117186	11	9.15347e-06
2	1	0	1	0	9215.19	0.235016	0.234677	0.0475095	8	0.0140072	11	1.11494e-05
2	1	0	1	0	9251.65	0.271471	0.27118	0.0507066	8	0.0163758	11	1.37506e-05
2	1	0	1	0	9287.45	0.292746	0.292491	0.00874042	8	0.0183158	11	2.55649e-06
2	0	0	1	0	9323.91	0.25629	0.255957	-0.0161565	8	0.0175406	11	-4.13537e-06
2	0	0	1	0	9360.37	0.219834	0.219546	-0.032007	8	0.0160766	11	-7.02701e-06
2	0	0	1	0	9396.82	0.183378	0.183092	-0.0517449	8	0.0139825	11	-9.47408e-06
2	0	0	1	0	9433.28	0.146922	0.146614	-0.139025	8	0.0103369	11	-2.0383e-05
2	0	0	1	0	9469.73	0.110466	0.110178	-0.164177	8	0.00334626	11	-1.80887e-05
2	0	0	1	0	9506.19	0.07401	0.0737028	-0.128664	8	-0.00254564	11	-9.48287e-06
2	0	0	1	0	9542.65	0.037554	0.0372502	-0.105687	8	-0.00744756	11	-3.93685e-06
2	0	0	1	0	9579.1	0.00109804	0.000733942	-0.111601	8	-0.0119473	11	-8.19083e-08
2	0	0	0	0	9580.17	2.44065e-05	-0.000363498	-0.111204	8	-0.0120862	11	4.04224e-08

File: 20221101_1-115_002_TrumpetPlot_ParaChange_04_CV_C01_0.csv
mode,ox/red,error,control changes,counter inc.,time/s,control/V,Ewe/V,<I>/mA,cycle number,(Q-Qo)/C,I Range,P/W,log(|I|),Tafel slope mV/dec,alpha_eff,dI/d(E-IR),E-IR/V,
2,0,0,0,0,358.801,2.44065e-05,-0.000382585,-0.375388,1,0.0000000E+000,11,1.43618e-07,-3.42552, , , ,-0.000382585,
2,0,0,1,0,366.068,0.00729061,0.00703704,-0.0966712,1,-0.000841827,11,-6.80279e-07,-4.0147,-0.0339731,-1.73667,6.64314,0.00703704,
2,0,0,1,0,373.558,0.0147815,0.014515,-0.0648368,1,-0.0012665,11,-9.41107e-07,-4.18818,-0.0495941,-1.18966,3.005,0.01451502,
2,0,0,1,0,381.049,0.0222725,0.0220078,-0.0462169,1,-0.00151426,11,-1.01713e-06,-4.3352,-0.0557733,-1.05785,1.93818,0.02200784,
2,0,0,1,0,388.54,0.0297635,0.0294668,-0.0347546,1,-0.00165461,11,-1.02411e-06,-4.45899,-0.0566811,-1.04091,1.40113,0.0294668,
2,0,0,1,0,396.031,0.0372544,0.0369564,-0.0255672,1,-0.0017175,11,-9.44872e-07,-4.59232,-0.0477215,-1.23634,1.21079,0.0369564,
2,0,0,1,0,403.522,0.0447454,0.044427,-0.0169417,1,-0.00171671,11,-7.52667e-07,-4.77104,-0.0408778,-1.44333,1.00721,0.044427,
2,0,0,1,0,411.013,0.0522363,0.0519368,-0.010378,1,-0.00165815,11,-5.38999e-07,-4.98389,-0.0204475,-2.88544,1.14067,0.05193682,
2,0,0,1,0,418.504,0.0597273,0.0594159,-0.00210806,1,-0.00154269,11,-1.25252e-07,-5.67612,-0.00317546,-18.58,1.16667,0.0594159,
2,0,0,1,0,425.995,0.0672183,0.0669194,0.00635003,1,-0.00136709,11,4.2494e-07,-5.19722,0.0120059,4.91427,1.0708,0.0669194,
2,1,0,1,0,433.486,0.0747092,0.0744588,0.0148208,1,-0.0011244,11,1.10354e-06,-4.82913,0.0268902,2.19411,1.29568,0.0744588,
2,1,0,1,0,440.977,0.0822001,0.0819113,0.0250434,1,-0.000809872,11,2.05134e-06,-4.60131,0.0397767,1.48328,1.40413,0.0819113,
2,1,0,1,0,448.468,0.0896911,0.0894095,0.0347226,1,-0.000420369,11,3.10453e-06,-4.45939,0.0539823,1.09295,1.50483,0.0894095,
2,1,0,1,0,455.959,0.0971821,0.0969013,0.0450414,1,4.70898e-05,11,4.36457e-06,-4.34639,0.0670218,0.88031,1.55334,0.0969013,
2,1,0,1,0,463.45,0.104673,0.104404,0.058951,1,0.000599185,11,6.15469e-06,-4.22951,0.0677305,0.871099,1.9526,0.104404,
2,1,0,1,0,470.941,0.112164,0.111858,0.0741045,1,0.00125813,11,8.28919e-06,-4.13016,0.0711261,0.829513,2.39482,0.1118582,
2,1,0,1,0,478.432,0.119655,0.119337,0.099264,1,0.00207227,11,1.18459e-05,-4.00321,0.0611082,0.9655,3.73628,0.119337,
2,1,0,1,0,485.923,0.127146,0.126842,0.130436,1,0.00310582,11,1.65447e-05,-3.8846,0.0672526,0.877289,4.49511,0.126842,
2,1,0,1,0,493.414,0.134637,0.134348,0.162272,1,0.00438845,11,2.1801e-05,-3.78976,0.111185,0.530647,3.35825,0.134348,
2,1,0,1,0,500.905,0.142128,0.141857,0.17664,1,0.00584157,11,2.50576e-05,-3.75291,1.56587,0.0376787,0.256254,0.141857,
2,1,0,1,0,508.396,0.149619,0.149349,0.163751,1,0.0073022,11,2.4456e-05,-3.78582,-0.115765,-0.509652,-3.24565,0.149349,
2,1,0,1,0,515.887,0.15711,0.156814,0.130381,1,0.00858571,11,2.04456e-05,-3.88478,-0.0554559,-1.06391,-5.37193,0.156814,
2,1,0,1,0,523.378,0.164601,0.164296,0.0960206,1,0.00959687,11,1.57758e-05,-4.01764,-0.0557585,-1.05813,-3.95275,0.1642964,
2,1,0,1,0,530.868,0.172091,0.171786,0.0730695,1,0.0103905,11,1.25523e-05,-4.13626,-0.0807886,-0.730301,-2.07265,0.171786,
2,1,0,1,0,538.359,0.179582,0.179347,0.0599803,1,0.0110558,11,1.07573e-05,-4.22199,-0.105716,-0.558097,-1.31941,0.179347,
2,1,0,1,0,545.85,0.187073,0.186834,0.0539081,1,0.0116462,11,1.00719e-05,-4.26835,-0.17922,-0.329205,-0.687654,0.186834,
2,1,0,1,0,553.341,0.194564,0.194282,0.0488277,1,0.012192,11,9.48632e-06,-4.31133,-0.169661,-0.347751,-0.665074,0.194282,
2,1,0,1,0,560.832,0.202055,0.201774,0.04656,1,0.0127095,11,9.39461e-06,-4.33199,-0.826522,-0.0713834,-0.129428,0.201774,
2,1,0,1,0,568.323,0.209546,0.209312,0.0446279,1,0.0132112,11,9.34115e-06,-4.35039,-0.60476,-0.0975594,-0.171961,0.209312,
2,1,0,1,0,575.814,0.217037,0.216765,0.0442979,1,0.0137021,11,9.60226e-06,-4.35362,-3.05713,-0.0192991,-0.0334933,0.216765,
2,1,0,1,0,583.305,0.224528,0.2242,0.0440671,1,0.0141889,11,9.87985e-06,-4.35589,-0.861004,-0.0685247,-0.118596,0.2242,
2,1,0,1,0,590.796,0.232019,0.231691,0.0439417,1,0.0146737,11,1.01809e-05,-4.35712,0.831401,0.0709646,0.122402,0.231691,
2,1,0,1,0,598.287,0.23951,0.239218,0.0448105,1,0.0151597,11,1.07195e-05,-4.34862,-1.50787,-0.0391281,-0.0679914,0.239218,
2,1,0,1,0,605.778,0.247001,0.246734,0.0451037,1,0.0156472,11,1.11286e-05,-4.34579,-4.60561,-0.0128105,-0.0224945,0.246734,
2,1,0,1,0,613.269,0.254492,0.254216,0.0461295,1,0.0161383,11,1.17268e-05,-4.33602,1.30081,0.0453564,0.0805271,0.254216,
2,1,0,1,0,620.76,0.261983,0.261748,0.0463036,1,0.0166322,11,1.21199e-05,-4.33439,13918.9,4.23883e-06,7.60816e-06,0.261748,
2,1,0,1,0,628.251,0.269474,0.269233,0.0467935,1,0.0171307,11,1.25984e-05,-4.32981,0.451193,0.130764,0.239137,0.269233,
2,1,0,1,0,635.742,0.276965,0.276692,0.0472877,1,0.0176332,11,1.30841e-05,-4.32525,0.715934,0.0824098,0.154291,0.276692,
2,1,0,1,0,643.233,0.284456,0.284204,0.0481618,1,0.0181402,11,1.36878e-05,-4.3173,0.669707,0.0880982,0.165255,0.284204,
2,1,0,1,0,650.724,0.291947,0.291645,0.0489926,1,0.0186512,11,1.42884e-05,-4.30987,0.563043,0.104788,0.199809,0.291645,
2,1,0,1,0,658.215,0.299438,0.299176,0.049459,1,0.0191671,11,1.47969e-05,-4.30575,-0.00737621,-7.99868,-11.8358,0.299176,
2,1,0,1,0,665.057,0.293745,0.293452,0.0130042,1,0.0192156,11,3.8161e-06,-4.88592,0.0225475,2.6167,1.41343,0.293452,
2,1,0,1,0,672.548,0.286254,0.285983,0.00527323,1,0.0191397,11,1.50806e-06,-5.27792,0.0124374,4.74375,0.913071,0.285983,
2,1,0,1,0,680.039,0.278763,0.278482,-0.000458476,1,0.0190113,11,-1.27677e-07,-6.33868,-0.0134537,-4.38542,0.59999,0.278482,
2,0,0,1,0,687.53,0.271272,0.271017,-0.00494234,1,0.0188431,11,-1.33946e-06,-5.30607,-0.0284634,-2.07284,0.414674,0.271017,
2,1,0,1,0,695.021,0.263781,0.263506,-0.00922229,1,0.0186414,11,-2.43013e-06,-5.03516,-0.0331252,-1.78112,0.614003,0.263506,
2,0,0,1,0,702.512,0.25629,0.255966,-0.0127198,1,0.0184091,11,-3.25585e-06,-4.89552,-0.0699964,-0.842901,0.40213,0.255966,
2,0,0,1,0,710.003,0.248799,0.248476,-0.0166652,1,0.018149,11,-4.1409e-06,-4.77819,-0.105696,-0.558207,0.358412,0.248476,
2,0,0,1,0,717.494,0.241308,0.241023,-0.0199759,1,0.0178622,11,-4.81466e-06,-4.69949,-0.102952,-0.573083,0.447857,0.2410233,
2,0,0,1,0,724.985,0.233817,0.233537,-0.0228231,1,0.0175486,11,-5.33003e-06,-4.64163,-0.125657,-0.469533,0.41718,0.233537,
2,0,0,1,0,732.476,0.226326,0.226067,-0.0265223,1,0.0172082,11,-5.99583e-06,-4.57639,-0.136672,-0.43169,0.454607,0.226067,
2,0,0,1,0,739.967,0.218835,0.218538,-0.030301,1,0.0168397,11,-6.62192e-06,-4.51854,-0.129759,-0.45469,0.542456,0.218538,
2,0,0,1,0,747.457,0.211344,0.211078,-0.0343168,1,0.0164411,11,-7.24354e-06,-4.46449,-0.158213,-0.372916,0.511332,0.211078,
2,0,0,1,0,754.948,0.203853,0.20353,-0.0388281,1,0.0160081,11,-7.9027e-06,-4.41085,-0.199969,-0.295046,0.452368,0.20353,
2,0,0,1,0,762.439,0.196362,0.196068,-0.0447303,1,0.0155368,11,-8.77019e-06,-4.3494,-0.154697,-0.38139,0.659748,0.196068,
2,0,0,1,0,769.93,0.188871,0.188575,-0.0511897,1,0.0150174,11,-9.65313e-06,-4.29082,-0.12723,-0.463727,0.923962,0.188575,
2,0,0,1,0,777.421,0.18138,0.181082,-0.0602267,1,0.0144366,11,-1.09059e-05,-4.22021,-0.0993729,-0.593723,1.37963,0.181082,
2,0,0,1,0,784.912,0.173889,0.173604,-0.0731452,1,0.0137729,11,-1.26983e-05,-4.13581,-0.0844798,-0.698392,1.99937,0.173604,
2,0,0,1,0,792.403,0.166398,0.166094,-0.0926756,1,0.0129874,11,-1.53928e-05,-4.03303,-0.0720891,-0.818431,2.98692,0.166094,
2,0,0,1,0,799.894,0.158907,0.158594,-0.121777,1,0.0120148,11,-1.93131e-05,-3.91444,-0.0572648,-1.0303,4.94348,0.1585945,
2,0,0,1,0,807.385,0.151417,0.151127,-0.162688,1,0.0107726,11,-2.45865e-05,-3.78865,-0.0721661,-0.817558,5.18794,0.151127,
2,0,0,1,0,814.876,0.143926,0.143582,-0.195444,1,0.0092449,11,-2.80624e-05,-3.70898,-0.120501,-0.489622,3.71724,0.143582,
2,0,0,1,0,822.367,0.136435,0.136111,-0.210082,1,0.00753621,11,-2.85944e-05,-3.67761,-2.07258,-0.0284669,0.231493,0.136111,
2,0,0,1,0,829.858,0.128944,0.128666,-0.200572,1,0.00581325,11,-2.58067e-05,-3.69773,0.155286,0.379943,-2.95557,0.128666,
2,0,0,1,0,837.349,0.121453,0.121128,-0.178307,1,0.00421922,11,-2.1598e-05,-3.74883,0.128409,0.459468,-3.19189,0.121128,
2,0,0,1,0,844.84,0.113962,0.113663,-0.154595,1,0.00280055,11,-1.75718e-05,-3.8108,0.139511,0.422905,-2.57301,0.113663,
2,0,0,1,0,852.331,0.106471,0.106146,-0.14119,1,0.00152127,11,-1.49867e-05,-3.8502,0.205057,0.287725,-1.5974,0.106146,
2,0,0,1,0,859.822,0.0989798,0.0987155,-0.131685,1,0.000332293,11,-1.29994e-05,-3.88046,0.309547,0.190601,-0.975912,0.0987155,
2,0,0,1,0,867.313,0.0914889,0.0912121,-0.124232,1,-0.000793008,11,-1.13315e-05,-3.90576,0.292013,0.202046,-0.980174,0.0912121,
2,0,0,1,0,874.804,0.083998,0.0836611,-0.117073,1,-0.00186322,11,-9.79443e-06,-3.93154,0.239695,0.246146,-1.12511,0.0836611,
2,0,0,1,0,882.295,0.076507,0.0761989,-0.110068,1,-0.00288111,11,-8.38706e-06,-3.95834,0.288136,0.204764,-0.878154,0.0761989,
2,0,0,1,0,889.786,0.069016,0.0687134,-0.104802,1,-0.00385095,11,-7.20133e-06,-3.97963,0.288556,0.204466,-0.839575,0.0687134,
2,0,0,1,0,897.277,0.0615251,0.061245,-0.100802,1,-0.00478348,11,-6.17364e-06,-3.99653,0.444072,0.132861,-0.520279,0.061245,
2,0,0,1,0,904.767,0.0540342,0.0537364,-0.0974917,1,-0.00568873,11,-5.23886e-06,-4.01103,3.40249,0.0173403,-0.0660864,0.0537364,
2,0,0,1,0,912.258,0.0465432,0.0462891,-0.0964481,1,-0.00657895,11,-4.4645e-06,-4.01571,2.39378,0.0246472,-0.0920178,0.04628912,
2,0,0,1,0,919.749,0.0390522,0.0387369,-0.096303,1,-0.00746507,11,-3.73048e-06,-4.01636,-22.4395,-0.00262929,0.00985586,0.0387369,
2,0,0,1,0,927.24,0.0315613,0.0312748,-0.097392,1,-0.00835541,11,-3.04592e-06,-4.01148,-3.17702,-0.0185709,0.0708616,0.0312748,
2,0,0,1,0,934.731,0.0240703,0.0237745,-0.0995574,1,-0.00925728,11,-2.36693e-06,-4.00193,-0.849322,-0.0694672,0.269591,0.0237745,
2,0,0,1,0,942.222,0.0165794,0.0162605,-0.102021,1,-0.0101781,11,-1.65891e-06,-3.99131,-0.522017,-0.113023,0.450953,0.0162605,
2,0,0,1,0,949.713,0.00908843,0.00876551,-0.105919,1,-0.0111249,11,-9.2843e-07,-3.97503,-0.45941,-0.128426,0.531931,0.00876551,
2,0,0,1,0,957.204,0.00159744,0.00124085,-0.111713,1,-0.0121073,11,-1.38619e-07,-3.9519, , , ,0.00124085,
2,0,0,1,0,958.602,0.000199235,-0.00015541,-0.112116,1,-0.012295,11,1.74239e-08,-3.95033, , , ,-0.00015541,