Folder: Figs_alphaMnO2_OER_Tafel_sleope/Figure_codes/Fig_3-5/rawdata_trumpetplot_data/before 10th (part 41)

File: 20221101_1-115_002_TrumpetPlot_ParaChange_12_CV_C01_5.csv
mode,ox/red,error,control changes,counter inc.,time/s,control/V,Ewe/V,<I>/mA,cycle number,(Q-Qo)/C,I Range,P/W,log(|I|),Tafel slope mV/dec,alpha_eff,dI/d(E-IR),E-IR/V,
2,1,0,0,0,7368.23,2.44065e-05,-0.000344411,7.74988,6,0.0000000E+000,10,-2.66914e-06,-2.11071, , , ,-0.000344411,
2,1,0,1,0,7368.28,0.00977853,0.00951332,9.45255,6,0.000413317,10,8.99251e-05,-2.02445,0.160606,0.367359,134.849,0.00951332,
2,1,0,1,0,7368.33,0.0197755,0.0194483,10.1956,6,0.00090822,10,0.000198288,-1.99159,0.602226,0.0979699,38.9838,0.0194483,
2,1,0,1,0,7368.38,0.0297726,0.029457,10.5128,6,0.00142662,10,0.000309676,-1.97828,0.952044,0.061972,25.4256,0.029457,
2,1,0,1,0,7368.43,0.0397514,0.0394129,10.8526,6,0.00195925,10,0.000427732,-1.96447,0.538982,0.109466,46.386,0.0394129,
2,1,0,1,0,7368.48,0.0497393,0.0494882,11.3868,6,0.00251305,10,0.000563513,-1.9436,0.407462,0.144799,64.2907,0.0494882,
2,1,0,1,0,7368.53,0.0597364,0.0593937,12.1582,6,0.00310016,10,0.00072212,-1.91513,0.302616,0.194967,92.4102,0.0593937,
2,1,0,1,0,7368.58,0.0697152,0.069403,13.1276,6,0.00373064,10,0.000911097,-1.88181,0.296387,0.199064,102.06,0.06940303,
2,1,0,1,0,7368.63,0.0796941,0.0793772,14.2991,6,0.00441445,10,0.00113502,-1.84469,0.280741,0.210158,117.177,0.0793772,
2,1,0,1,0,7368.68,0.0896911,0.0893807,15.4343,6,0.00515834,10,0.00137953,-1.81151,0.312541,0.188775,113.914,0.0893807,
2,1,0,1,0,7368.73,0.099679,0.0993829,16.605,6,0.00595803,10,0.00165025,-1.77976,0.341751,0.172641,111.672,0.0993829,
2,1,0,1,0,7368.78,0.109658,0.109346,17.7303,6,0.00681379,10,0.00193874,-1.75128,0.324937,0.181574,125.745,0.109346,
2,1,0,1,0,7368.83,0.119655,0.119336,19.1728,6,0.00773475,10,0.002288,-1.71731,0.277852,0.212344,158.844,0.119336,
2,1,0,1,0,7368.88,0.129652,0.129339,21.0464,6,0.00873838,10,0.00272213,-1.67682,0.222625,0.265019,217.896,0.129339,
2,1,0,1,0,7368.93,0.139631,0.139329,23.2464,6,0.00984394,10,0.0032389,-1.63365,0.244693,0.241119,218.609,0.139329,
2,1,0,1,0,7368.98,0.149619,0.149329,25.3484,6,0.0110575,10,0.00378524,-1.59605,0.302104,0.195297,193.115,0.1493288,
2,1,0,1,0,7369.03,0.159616,0.159318,26.9129,6,0.0123678,10,0.00428771,-1.57004,0.61375,0.0961304,100.832,0.1593184,
2,1,0,1,0,7369.08,0.169595,0.16928,26.9268,6,0.0137209,10,0.00455816,-1.56982,-0.446584,-0.132114,-138.493,0.1692798,
2,1,0,1,0,7369.13,0.179573,0.179292,23.5662,6,0.014997,10,0.00422521,-1.62771,-0.102127,-0.577714,-529.418,0.179292,
2,1,0,1,0,7369.18,0.18957,0.189266,17.4118,6,0.0160245,10,0.00329545,-1.75916,-0.0660156,-0.893728,-607.598,0.189266,
2,1,0,1,0,7369.23,0.199558,0.199311,12.629,6,0.0167609,10,0.00251711,-1.89863,-0.0907774,-0.649942,-320.827,0.199311,
2,1,0,1,0,7369.28,0.209537,0.209252,10.4804,6,0.0173285,10,0.00219305,-1.97962,-0.17856,-0.330421,-135.468,0.209252,
2,1,0,1,0,7369.33,0.219534,0.219221,9.56875,6,0.0178267,10,0.00209767,-2.01914,-0.355675,-0.165882,-61.9183,0.219221,
2,1,0,1,0,7369.38,0.229531,0.229248,9.02538,6,0.0182911,10,0.00206905,-2.04453,-0.462576,-0.127547,-45.0493,0.229248,
2,1,0,1,0,7369.43,0.23951,0.239244,8.68083,6,0.0187326,10,0.00207684,-2.06144,-0.638285,-0.0924352,-31.291,0.239244,
2,1,0,1,0,7369.48,0.249498,0.249168,8.38997,6,0.0191582,10,0.00209052,-2.07624,-0.804445,-0.0733425,-24.0514,0.249168,
2,1,0,1,0,7369.53,0.259495,0.259198,8.18505,6,0.0195722,10,0.00212155,-2.08698,-0.818175,-0.0721117,-22.9847,0.259198,
2,1,0,1,0,7369.58,0.269474,0.269192,7.98221,6,0.0199754,10,0.00214875,-2.09788,-1.08803,-0.0542263,-16.9324,0.2691924,
2,1,0,1,0,7369.63,0.279453,0.279169,7.83746,6,0.0203703,10,0.00218797,-2.10582,-1.15388,-0.0511318,-15.6182,0.279169,
2,1,0,1,0,7369.68,0.28945,0.289152,7.68126,6,0.0207583,10,0.00222105,-2.11457,-1.67111,-0.035306,-10.6043,0.289152,
2,1,0,1,0,7369.73,0.299438,0.299124,7.5777,6,0.0211391,10,0.00226667,-2.12046,-0.0458345,-1.28724,-359.423,0.299124,
2,0,0,1,0,7369.77,0.291747,0.291489,-2.24818,6,0.0211954,10,-0.00065532,-2.64817,-0.0142207,-4.14887,328.507,0.291489,
2,0,0,1,0,7369.82,0.28175,0.281443,-3.64506,6,0.0210386,10,-0.00102587,-2.4383,-0.124861,-0.472525,66.9301,0.281443,
2,0,0,1,0,7369.87,0.27178,0.271497,-4.15761,6,0.0208436,10,-0.00112878,-2.38116,-0.193247,-0.30531,49.4328,0.271497,
2,0,0,1,0,7369.92,0.261783,0.261462,-4.55422,6,0.0206255,10,-0.00119076,-2.34159,-0.306272,-0.192639,34.1444,0.261462,
2,0,0,1,0,7369.97,0.251786,0.251464,-4.88328,6,0.0203895,10,-0.00122797,-2.31129,-0.346382,-0.170332,32.4403,0.251464,
2,0,0,1,0,7370.02,0.241807,0.241507,-5.19335,6,0.0201376,10,-0.00125423,-2.28455,-0.384575,-0.153416,31.1676,0.241507,
2,0,0,1,0,7370.07,0.231824,0.231531,-5.51373,6,0.0198706,10,-0.0012766,-2.25855,-0.376284,-0.156797,33.6536,0.231531,
2,0,0,1,0,7370.12,0.221822,0.221592,-5.80641,6,0.0195877,10,-0.00128665,-2.23609,-0.408458,-0.144446,32.7712,0.221592,
2,0,0,1,0,7370.17,0.211844,0.211529,-6.15867,6,0.0192892,10,-0.00130274,-2.21051,-0.425093,-0.138793,33.3456,0.211529,
2,0,0,1,0,7370.22,0.201865,0.201593,-6.54869,6,0.0189722,10,-0.00132017,-2.18385,-0.374482,-0.157551,40.3419,0.201593,
2,0,0,1,0,7370.27,0.191868,0.191562,-7.0598,6,0.0186323,10,-0.00135239,-2.15121,-0.284697,-0.207238,57.1933,0.191562,
2,0,0,1,0,7370.32,0.18188,0.181575,-7.76702,6,0.0182635,10,-0.0014103,-2.10975,-0.195887,-0.301193,91.2046,0.181575,
2,0,0,1,0,7370.37,0.171901,0.171563,-8.77999,6,0.0178524,10,-0.00150632,-2.05651,-0.164527,-0.358603,122.863,0.1715629,
2,0,0,1,0,7370.42,0.161904,0.161564,-10.3228,6,0.0173776,10,-0.00166779,-1.9862,-0.125701,-0.469368,189.204,0.161564,
2,0,0,1,0,7370.47,0.151907,0.151645,-12.6508,6,0.0168066,10,-0.00191844,-1.89788,-0.105252,-0.56056,277.336,0.151645,
2,0,0,1,0,7370.52,0.141928,0.141632,-15.8748,6,0.0160971,10,-0.00224838,-1.79929,-0.102012,-0.578363,358.365,0.141632,
2,0,0,1,0,7370.57,0.13194,0.131701,-19.5032,6,0.0152146,10,-0.00256858,-1.7099,-0.125611,-0.469705,357.173,0.131701,
2,0,0,1,0,7370.62,0.121943,0.121659,-22.825,6,0.0141531,10,-0.00277687,-1.64159,-0.183793,-0.321013,285.53,0.121659,
2,0,0,1,0,7370.67,0.111964,0.111671,-25.213,6,0.0129495,10,-0.00281557,-1.59837,-0.336327,-0.175425,172.472,0.111671,
2,0,0,1,0,7370.72,0.101985,0.101692,-26.2248,6,0.0116597,10,-0.00266685,-1.58129,-3.58772,-0.016445,16.801,0.101692,
2,0,0,1,0,7370.77,0.0919883,0.0916625,-25.5759,6,0.0103578,10,-0.00234435,-1.59217,0.422625,0.139604,-139.274,0.0916625,
2,0,0,1,0,7370.82,0.0820004,0.0817302,-23.5351,6,0.00912849,10,-0.00192353,-1.62828,0.222945,0.264639,-242.732,0.0817302,
2,0,0,1,0,7370.87,0.0720215,0.0717328,-21.1709,6,0.00801524,10,-0.00151864,-1.67426,0.230963,0.255452,-211.34,0.0717328,
2,0,0,1,0,7370.92,0.0620245,0.0617432,-19.4028,6,0.00700321,10,-0.00119799,-1.71214,0.291684,0.202274,-153.166,0.0617432,
2,0,0,1,0,7370.97,0.0520275,0.0517258,-18.0038,6,0.00606884,10,-0.00093126,-1.74464,0.297718,0.198174,-139.204,0.0517258,
2,0,0,1,0,7371.02,0.0420486,0.0417304,-16.5565,6,0.00520575,10,-0.00069091,-1.78103,0.250702,0.235339,-152.11,0.0417304,
2,0,0,1,0,7371.07,0.0320607,0.0317466,-14.9439,6,0.00441936,10,-0.000474419,-1.82554,0.212176,0.278071,-162.246,0.0317466,
2,0,0,1,0,7371.12,0.0220637,0.0217795,-13.5267,6,0.00370982,10,-0.000294605,-1.86881,0.268147,0.220028,-116.116,0.0217795,
2,0,0,1,0,7371.17,0.0120848,0.0117641,-12.6572,6,0.00305916,10,-0.000148901,-1.89766,0.461987,0.127709,-63.17,0.0117641,
2,0,0,1,0,7371.22,0.00210598,0.00174131,-12.3475,6,0.0024387,10,-2.15008e-05,-1.90842,4.07408,0.0144818,-6.95348,0.00174131,
2,0,0,1,0,7371.27,-0.00789103,-0.00825698,-12.2187,6,0.00182542,10,0.000100889,-1.91298,-5.72702,-0.010302,4.92841,-0.00825698,
2,0,0,1,0,7371.32,-0.017879,-0.018238,-12.4005,6,0.0012117,10,0.000226161,-1.90656,-1.30059,-0.0453642,21.9045,-0.018238,
2,0,0,1,0,7371.37,-0.0278578,-0.0281841,-12.6307,6,0.000587801,10,0.000355985,-1.89857,-1.17049,-0.0504064,24.8938,-0.0281841,
2,0,0,1,0,7371.42,-0.0378549,-0.038179,-12.9925,6,-5.25287e-05,10,0.000496042,-1.88631,-0.898337,-0.0656769,33.2607,-0.038179,
2,0,0,1,0,7371.47,-0.0478519,-0.0482128,-13.3601,6,-0.000711409,10,0.000644127,-1.87419,-0.658309,-0.0896236,46.8336,-0.0482128,
2,0,0,1,0,7371.52,-0.0578126,-0.0581964,-13.8278,6,-0.00138871,10,0.000804729,-1.85925,-0.672228,-0.0877679,47.3404,-0.0581964,
2,0,0,1,0,7371.57,-0.0678187,-0.068127,-14.3409,6,-0.00209284,10,0.000977,-1.84342,-0.552745,-0.10674,59.7934,-0.068127,
2,0,0,1,0,7371.62,-0.0778157,-0.0781565,-14.9775,6,-0.00282551,10,0.00117059,-1.82456,-0.532647,-0.110768,64.6967,-0.0781565,
2,0,0,1,0,7371.67,-0.0877945,-0.0881374,-15.7182,6,-0.00359079,10,0.00138536,-1.8036,-0.436231,-0.13525,83.0419,-0.0881374,
2,0,0,1,0,7371.72,-0.0977734,-0.0981045,-16.5898,6,-0.00439701,10,0.00162753,-1.78016,-0.403345,-0.146277,94.742,-0.0981045,
2,0,0,1,1,7371.76,-0.0936874,-0.0940695,-3.77375,6,-0.00487695,10,0.000354995,-2.42323,-0.00556685,-10.5985,1382.49,-0.0940695,
2,1,0,1,1,7371.81,-0.0837086,-0.0840979,4.8765,6,-0.00481438,10,-0.000410103,-2.31189,0.0204861,2.88,530.32,-0.0840979,
2,1,0,1,1,7371.86,-0.0737025,-0.0740857,8.53572,6,-0.00446643,10,-0.000632375,-2.06876,0.0803852,0.733966,243.067,-0.07408569,
2,1,0,1,1,7371.91,-0.0637236,-0.0640404,10.1484,6,-0.00399472,10,-0.00064991,-1.9936,0.222495,0.265175,104.838,-0.0640404,
2,1,0,1,1,7371.96,-0.0537447,-0.0541039,10.8726,6,-0.00346768,10,-0.000588248,-1.96367,0.560455,0.105272,44.6134,-0.0541039,
2,1,0,1,1,7372.01,-0.0437477,-0.0441082,11.1744,6,-0.00291515,10,-0.000492884,-1.95177,1.73435,0.0340186,14.8299,-0.0441082,
2,1,0,1,1,7372.06,-0.0337507,-0.0341168,11.2487,6,-0.00235372,10,-0.000383772,-1.9489,13.5988,0.00433862,1.90645,-0.0341168,
2,1,0,1,1,7372.11,-0.0237809,-0.0241168,11.219,6,-0.0017939,10,-0.000270567,-1.95005,-4.38519,-0.0134544,-5.88369,-0.0241168,
2,1,0,1,1,7372.16,-0.0137839,-0.0141489,11.0956,6,-0.00123586,10,-0.00015699,-1.95485,-1.47782,-0.0399236,-17.3051,-0.0141489,
2,1,0,1,1,7372.21,-0.0037869,-0.00411156,10.9606,6,-0.000684389,10,-4.50651e-05,-1.96017,-1.45717,-0.0404895,-17.3049,-0.00411156,
2,1,0,1,1,7372.23,-2.55332e-05,-0.000248974,10.8874,6,-0.000480124,10,-2.71069e-06,-1.96307, , , ,-0.000248974,

File: 20221101_1-115_002_TrumpetPlot_ParaChange_12_CV_C01_6.csv
mode,ox/red,error,control changes,counter inc.,time/s,control/V,Ewe/V,<I>/mA,cycle number,(Q-Qo)/C,I Range,P/W,log(|I|),Tafel slope mV/dec,alpha_eff,dI/d(E-IR),E-IR/V,
2,1,0,0,0,8599.86,2.44065e-05,-0.000401673,7.97757,7,0.0000000E+000,10,-3.20437e-06,-2.09813, , , ,-0.000401673,
2,1,0,1,0,8599.91,0.00977853,0.00945779,9.13958,7,0.00040428,10,8.64402e-05,-2.03907,0.163987,0.359784,127.848,0.009457794,
2,1,0,1,0,8599.96,0.0197755,0.0194439,9.91228,7,0.000883808,10,0.000192734,-2.00383,0.49884,0.118274,45.7427,0.0194439,
2,1,0,1,0,8600.01,0.0297726,0.0294544,10.3114,7,0.00139001,10,0.000303716,-1.98668,0.700363,0.084242,33.8906,0.0294544,
2,1,0,1,0,8600.06,0.0397514,0.0394344,10.7222,7,0.00191445,10,0.000422823,-1.96972,0.472629,0.124834,52.2562,0.0394344,
2,1,0,1,0,8600.11,0.0497393,0.0494449,11.3177,7,0.00246345,10,0.0005596,-1.94624,0.386289,0.152735,67.4361,0.0494449,
2,1,0,1,0,8600.16,0.0597364,0.0593946,12.1241,7,0.00304827,10,0.000720108,-1.91635,0.300199,0.196536,92.9065,0.0593946,
2,1,0,1,0,8600.21,0.0697152,0.0693983,13.1029,7,0.0036773,10,0.000909318,-1.88263,0.300073,0.196619,100.608,0.0693983,
2,1,0,1,0,8600.26,0.0796941,0.0793772,14.2173,7,0.0043585,10,0.00112853,-1.84718,0.290176,0.203325,112.75,0.0793772,
2,1,0,1,0,8600.31,0.0896911,0.0893608,15.3025,7,0.00509694,10,0.00136744,-1.81524,0.323165,0.182569,109.126,0.0893608,
2,1,0,1,0,8600.36,0.099679,0.0994035,16.3843,7,0.00588769,10,0.00162865,-1.78557,0.356536,0.165481,105.642,0.0994035,
2,1,0,1,0,8600.41,0.109658,0.10932,17.4539,7,0.00673123,10,0.00190806,-1.75811,0.348726,0.169187,115.35,0.10932,
2,1,0,1,0,8600.46,0.119655,0.11934,18.8316,7,0.00763676,10,0.00224736,-1.72511,0.289748,0.203625,149.58,0.11934,
2,1,0,1,0,8600.51,0.129652,0.12933,20.5891,7,0.00862092,10,0.0026628,-1.68636,0.241419,0.244388,196.508,0.12933,
2,1,0,1,0,8600.56,0.139631,0.139333,22.588,7,0.00969869,10,0.00314726,-1.64612,0.263972,0.223509,196.949,0.139333,
2,1,0,1,0,8600.61,0.149619,0.149299,24.4407,7,0.0108732,10,0.00364898,-1.61189,0.330258,0.178648,170.316,0.149299,
2,1,0,1,0,8600.66,0.159616,0.159287,25.7926,7,0.0121324,10,0.00410844,-1.5885,0.724513,0.081434,81.8708,0.159287,
2,1,0,1,0,8600.71,0.169595,0.169307,25.6881,7,0.0134261,10,0.00434917,-1.59027,-0.409898,-0.143938,-143.954,0.169307,
2,1,0,1,0,8600.76,0.179573,0.179231,22.4153,7,0.0146414,10,0.00401752,-1.64945,-0.10029,-0.588294,-512.918,0.179231,
2,1,0,1,0,8600.81,0.18957,0.189264,16.7248,7,0.0156213,10,0.00316539,-1.77664,-0.0711245,-0.829531,-542.432,0.189264,
2,1,0,1,0,8600.86,0.199558,0.199241,12.5681,7,0.0163406,10,0.00250407,-1.90073,-0.103958,-0.567538,-278.72,0.199241,
2,1,0,1,0,8600.91,0.209537,0.209242,10.648,7,0.0169125,10,0.002228,-1.97273,-0.188078,-0.313699,-130.541,0.209242,
2,1,0,1,0,8600.96,0.219534,0.219215,9.71578,7,0.0174191,10,0.00212985,-2.01252,-0.326932,-0.180466,-68.4309,0.219215,
2,1,0,1,0,8601.01,0.229531,0.229271,9.12859,7,0.0178898,10,0.00209292,-2.0396,-0.429772,-0.137282,-48.9987,0.2292708,
2,1,0,1,0,8601.06,0.23951,0.239244,8.7485,7,0.0183356,10,0.00209303,-2.05807,-0.679569,-0.0868198,-29.6245,0.239244,
2,1,0,1,0,8601.11,0.249498,0.249181,8.4411,7,0.0187641,10,0.00210336,-2.0736,-0.724657,-0.0814179,-26.8459,0.249181,
2,1,0,1,0,8601.16,0.259495,0.25923,8.22398,7,0.0191803,10,0.0021319,-2.08492,-0.774698,-0.0761587,-24.3975,0.25923,
2,1,0,1,0,8601.21,0.269474,0.269212,8.01978,7,0.0195853,10,0.00215902,-2.09584,-1.2894,-0.0457578,-14.3446,0.269212,
2,1,0,1,0,8601.26,0.279453,0.279142,7.87329,7,0.0199817,10,0.00219776,-2.10384,-1.23883,-0.0476257,-14.6151,0.279142,
2,1,0,1,0,8601.31,0.28945,0.289151,7.71333,7,0.0203713,10,0.00223032,-2.11276,-1.64785,-0.0358041,-10.7954,0.289151,
2,1,0,1,0,8601.36,0.299438,0.299186,7.59921,7,0.0207535,10,0.00227358,-2.11923,-0.048986,-1.20443,-338.661,0.299186,
2,0,0,1,0,8601.4,0.291747,0.291456,-1.78786,7,0.0208257,10,-0.000521081,-2.74767,-0.0105679,-5.58292,336.285,0.291456,
2,0,0,1,0,8601.45,0.28175,0.281459,-3.31011,7,0.0206886,10,-0.000931661,-2.48016,-0.0997693,-0.591364,76.1489,0.281459,
2,0,0,1,0,8601.5,0.27178,0.271441,-3.90151,7,0.0205079,10,-0.00105903,-2.40877,-0.183833,-0.320944,48.6553,0.271441,
2,0,0,1,0,8601.55,0.261783,0.261463,-4.31303,7,0.0203022,10,-0.0011277,-2.36522,-0.28043,-0.210391,35.437,0.261463,
2,0,0,1,0,8601.6,0.251786,0.251521,-4.66901,7,0.0200773,10,-0.00117435,-2.33078,-0.314735,-0.187459,34.1195,0.251521,
2,0,0,1,0,8601.65,0.241807,0.241508,-4.97882,7,0.019836,10,-0.00120242,-2.30287,-0.359094,-0.164302,32.0605,0.241508,
2,0,0,1,0,8601.7,0.231824,0.231527,-5.30432,7,0.0195793,10,-0.0012281,-2.27537,-0.368121,-0.160273,33.1117,0.231527,
2,0,0,1,0,8601.75,0.221822,0.221515,-5.6009,7,0.0193068,10,-0.00124068,-2.25174,-0.411678,-0.143316,31.3348,0.2215153,
2,0,0,1,0,8601.8,0.211843,0.211549,-5.9364,7,0.019019,10,-0.00125584,-2.22648,-0.434294,-0.135853,31.425,0.211549,
2,0,0,1,0,8601.85,0.201865,0.201555,-6.29982,7,0.0187137,10,-0.00126976,-2.20067,-0.39883,-0.147933,36.4717,0.201555,
2,0,0,1,0,8601.9,0.191868,0.191546,-6.77649,7,0.0183871,10,-0.00129801,-2.169,-0.294712,-0.200196,52.9226,0.191546,
2,0,0,1,0,8601.95,0.18188,0.181526,-7.39794,7,0.0180345,10,-0.00134292,-2.13089,-0.21977,-0.268463,77.5155,0.181526,
2,0,0,1,0,8602,0.171901,0.171595,-8.2939,7,0.0176446,10,-0.00142319,-2.08124,-0.174414,-0.338275,109.39,0.171595,
2,0,0,1,0,8602.05,0.161904,0.161605,-9.64229,7,0.0171986,10,-0.00155824,-2.01582,-0.133611,-0.44158,166.416,0.161605,
2,0,0,1,0,8602.1,0.151907,0.151592,-11.7074,7,0.0166679,10,-0.00177475,-1.93154,-0.108146,-0.54556,249.612,0.151592,
2,0,0,1,0,8602.15,0.141928,0.141647,-14.6361,7,0.0160132,10,-0.00207315,-1.83458,-0.102415,-0.576085,329.208,0.141647,
2,0,0,1,0,8602.2,0.13194,0.131708,-18.0177,7,0.0151985,10,-0.00237308,-1.7443,-0.118113,-0.499521,350.874,0.131708,
2,0,0,1,0,8602.25,0.121943,0.121673,-21.2337,7,0.014214,10,-0.00258357,-1.67297,-0.176767,-0.333772,276.324,0.121673,
2,0,0,1,0,8602.3,0.111964,0.111699,-23.6315,7,0.0130907,10,-0.00263961,-1.62651,-0.291702,-0.202261,186.218,0.111699,
2,0,0,1,0,8602.35,0.101985,0.101629,-24.8519,7,0.0118754,10,-0.00252567,-1.60464,-1.14568,-0.0514977,49.8789,0.101629,
2,0,0,1,0,8602.4,0.0919883,0.0916721,-24.6609,7,0.0106317,10,-0.00226072,-1.60799,0.643421,0.0916973,-88.1316,0.0916721,
2,0,0,1,0,8602.45,0.0820004,0.0816945,-23.1231,7,0.00943509,10,-0.00188903,-1.63595,0.272836,0.216247,-195.113,0.0816945,
2,0,0,1,0,8602.5,0.0720215,0.0716668,-21.1446,7,0.00833167,10,-0.00151537,-1.6748,0.260947,0.226099,-186.537,0.0716668,
2,0,0,1,0,8602.55,0.0620245,0.0617449,-19.5168,7,0.00731726,10,-0.00120507,-1.70959,0.314287,0.187727,-143.142,0.0617449,
2,0,0,1,0,8602.6,0.0520275,0.0517154,-18.2723,7,0.00637332,10,-0.000944958,-1.73821,0.342639,0.172193,-122.649,0.0517154,
2,0,0,1,0,8602.65,0.0420486,0.041724,-16.9916,7,0.005493,10,-0.000708957,-1.76977,0.293207,0.201223,-133.504,0.041724,
2,0,0,1,0,8602.7,0.0320607,0.0317448,-15.5383,7,0.0046808,10,-0.00049326,-1.8086,0.233436,0.252746,-153.082,0.0317448,
2,0,0,1,0,8602.75,0.0220637,0.0217674,-14.0584,7,0.00394229,10,-0.000306015,-1.85206,0.248153,0.237756,-130.572,0.0217674,
2,0,0,1,0,8602.8,0.0120848,0.0117927,-13.0278,7,0.00326881,10,-0.000153633,-1.88513,0.372619,0.158339,-80.5177,0.0117927,
2,0,0,1,0,8602.85,0.00210598,0.00179424,-12.5256,7,0.00263454,10,-2.24738e-05,-1.9022,1.19846,0.04923,-24.0209,0.00179424,
2,0,0,1,0,8602.9,-0.00789103,-0.00821446,-12.2834,7,0.00201547,10,0.000100902,-1.91068,3.89086,0.0151637,-7.27696,-0.00821446,
2,0,0,1,0,8602.95,-0.017879,-0.0182324,-12.3406,7,0.00140168,10,0.000225,-1.90866,-1.78118,-0.0331241,15.9451,-0.0182324,
2,0,0,1,0,8603,-0.0278578,-0.0281928,-12.5332,7,0.000781767,10,0.000353346,-1.90194,-1.2561,-0.0469709,22.9799,-0.02819282,
2,0,0,1,0,8603.05,-0.0378548,-0.0382033,-12.8294,7,0.00014792,10,0.000490124,-1.89179,-0.958725,-0.0615401,30.797,-0.0382033,
2,0,0,1,0,8603.1,-0.0478519,-0.0481868,-13.1828,7,-0.000502433,10,0.000635235,-1.87999,-0.698598,-0.0844549,43.4878,-0.0481868,
2,0,0,1,0,8603.15,-0.0578126,-0.058179,-13.6204,7,-0.00117,10,0.000792419,-1.86581,-0.704743,-0.0837185,44.5144,-0.05817901,
2,0,0,1,0,8603.2,-0.0678187,-0.0681938,-14.1249,7,-0.00186321,10,0.00096323,-1.85001,-0.58968,-0.100054,55.116,-0.0681938,
2,0,0,1,0,8603.25,-0.0778157,-0.0781634,-14.7084,7,-0.00258373,10,0.00114966,-1.83244,-0.565376,-0.104355,59.9528,-0.0781634,
2,0,0,1,0,8603.3,-0.0877945,-0.0881389,-15.4405,7,-0.00333533,10,0.00136091,-1.81134,-0.440988,-0.133791,80.5897,-0.0881389,
2,0,0,1,0,8603.35,-0.0977734,-0.0981036,-16.2581,7,-0.00412601,10,0.00159498,-1.78893,-0.410702,-0.143657,91.2203,-0.0981036,
2,0,0,1,1,8603.39,-0.0936874,-0.0940632,-4.26385,7,-0.0046064,10,0.000401072,-2.3702,-0.00708872,-8.32309,1297.32,-0.0940632,
2,1,0,1,1,8603.44,-0.0837086,-0.0841013,4.01463,7,-0.00458065,10,-0.000337636,-2.39635,0.0170333,3.46381,521.411,-0.0841013,
2,1,0,1,1,8603.49,-0.0737025,-0.0740692,7.71076,7,-0.00427595,10,-0.00057113,-2.1129,0.070257,0.839773,250.343,-0.0740692,
2,1,0,1,1,8603.54,-0.0637236,-0.0640675,9.42604,7,-0.00384287,10,-0.000603903,-2.02567,0.183768,0.321057,118.142,-0.0640675,
2,1,0,1,1,8603.59,-0.0537447,-0.0540692,10.3022,7,-0.00334794,10,-0.000557034,-1.98707,0.426319,0.138394,55.4765,-0.0540692,
2,1,0,1,1,8603.64,-0.0437477,-0.0441064,10.6848,7,-0.00282195,10,-0.000471271,-1.97123,1.02008,0.0578388,24.1398,-0.04410645,
2,1,0,1,1,8603.69,-0.0337507,-0.0340986,10.8526,7,-0.00228256,10,-0.000370057,-1.96447,3.92511,0.0150314,6.35914,-0.03409861,
2,1,0,1,1,8603.74,-0.0237809,-0.0241255,10.8602,7,-0.0017416,10,-0.000262008,-1.96416,-13.9839,-0.00421915,-1.78839,-0.0241255,
2,1,0,1,1,8603.79,-0.0137839,-0.0140986,10.7963,7,-0.00119996,10,-0.000152212,-1.96673,-2.03143,-0.0290436,-12.2292,-0.0140986,
2,1,0,1,1,8603.84,-0.0037869,-0.00416968,10.6837,7,-0.00066286,10,-4.45475e-05,-1.97128,-2.14723,-0.0274772,-11.4641,-0.00416968,
2,1,0,1,1,8603.86,-2.55332e-05,-0.000497109,10.6247,7,-0.000463452,10,-5.28166e-06,-1.97368, , , ,-0.000497109,