Folder: Figs_alphaMnO2_OER_Tafel_sleope/Figure_codes/Fig_3-5/rawdata_trumpetplot_data/before 10th (part 42)

File: 20221101_1-115_002_TrumpetPlot_ParaChange_12_CV_C01_7.csv
mode,ox/red,error,control changes,counter inc.,time/s,control/V,Ewe/V,<I>/mA,cycle number,(Q-Qo)/C,I Range,P/W,log(|I|),Tafel slope mV/dec,alpha_eff,dI/d(E-IR),E-IR/V,
2,1,0,0,0,9831.49,2.44065e-05,-0.000268062,8.01574,8,0.0000000E+000,10,-2.14871e-06,-2.09606, , , ,-0.000268062,
2,1,0,1,0,9831.54,0.00977853,0.00945346,9.2984,8,0.000408121,10,8.7902e-05,-2.03159,0.153721,0.383812,138.431,0.00945346,
2,1,0,1,0,9831.59,0.0197755,0.0194379,10.1367,8,0.000897404,10,0.000197035,-1.9941,0.453195,0.130187,51.566,0.0194379,
2,1,0,1,0,9831.64,0.0297726,0.0294743,10.6041,8,0.00141654,10,0.000312548,-1.97453,0.641728,0.0919392,37.9544,0.0294743,
2,1,0,1,0,9831.69,0.0397514,0.0394415,11.0471,8,0.00195617,10,0.000435715,-1.95675,0.414538,0.142327,61.4911,0.0394415,
2,1,0,1,0,9831.74,0.0497393,0.049431,11.7159,8,0.00252323,10,0.00057913,-1.93122,0.350711,0.16823,76.7612,0.049431,
2,1,0,1,0,9831.79,0.0597364,0.0593876,12.5477,8,0.00312863,10,0.000745176,-1.90144,0.287185,0.205442,100.697,0.0593876,
2,1,0,1,0,9831.84,0.0697152,0.0693943,13.56,8,0.00377992,10,0.000940985,-1.86774,0.31072,0.189882,100.398,0.0693943,
2,1,0,1,0,9831.89,0.0796941,0.0793477,14.6561,8,0.00448384,10,0.00116293,-1.83398,0.307969,0.191578,109.656,0.0793477,
2,1,0,1,0,9831.94,0.0896911,0.0893816,15.7352,8,0.00524421,10,0.00140644,-1.80313,0.336102,0.175542,107.765,0.0893816,
2,1,0,1,0,9831.99,0.099679,0.0994011,16.7767,8,0.00605554,10,0.00166763,-1.77529,0.367555,0.16052,105.094,0.0994011,
2,1,0,1,0,9832.04,0.109658,0.10931,17.8757,8,0.00691938,10,0.001954,-1.74774,0.341815,0.172608,120.411,0.10931,
2,1,0,1,0,9832.09,0.119655,0.119354,19.2835,8,0.00784689,10,0.00230156,-1.71481,0.279486,0.211102,159.06,0.1193539,
2,1,0,1,0,9832.14,0.129652,0.129355,21.0973,8,0.00885555,10,0.00272904,-1.67577,0.249953,0.236045,194.255,0.129355,
2,1,0,1,0,9832.19,0.139631,0.139299,23.0181,8,0.00995703,10,0.0032064,-1.63793,0.283606,0.208035,186.97,0.1392992,
2,1,0,1,0,9832.24,0.149619,0.149304,24.7706,8,0.0111507,10,0.00369834,-1.60606,0.363232,0.162431,156.773,0.149304,
2,1,0,1,0,9832.29,0.159616,0.159328,25.8995,8,0.0124215,10,0.00412651,-1.58671,1.13692,0.0518948,52.4372,0.159328,
2,1,0,1,0,9832.34,0.169595,0.169258,25.3559,8,0.0137109,10,0.0042917,-1.59592,-0.283957,-0.207778,-204.849,0.169258,
2,1,0,1,0,9832.39,0.179573,0.179312,21.491,8,0.0148935,10,0.0038536,-1.66774,-0.0922763,-0.639384,-535.191,0.179312,
2,1,0,1,0,9832.44,0.18957,0.189243,15.8735,8,0.0158259,10,0.00300395,-1.79933,-0.0718791,-0.820823,-509.056,0.189243,
2,1,0,1,0,9832.49,0.199558,0.199241,12.027,8,0.0165108,10,0.00239626,-1.91984,-0.10813,-0.545639,-256.87,0.199241,
2,1,0,1,0,9832.54,0.209537,0.209244,10.2954,8,0.0170613,10,0.00215426,-1.98735,-0.198592,-0.297092,-119.356,0.209244,
2,1,0,1,0,9832.59,0.219534,0.219234,9.42525,8,0.0175519,10,0.00206634,-2.02571,-0.349065,-0.169023,-62.3467,0.219234,
2,1,0,1,0,9832.64,0.229531,0.229267,8.92442,8,0.0180102,10,0.00204608,-2.04942,-0.478035,-0.123422,-42.9479,0.229267,
2,1,0,1,0,9832.69,0.23951,0.239202,8.56066,8,0.0184462,10,0.00204773,-2.06749,-0.663525,-0.0889191,-29.7776,0.239202,
2,1,0,1,0,9832.74,0.249498,0.249201,8.31492,8,0.018867,10,0.00207209,-2.08014,-0.808713,-0.0729554,-23.6446,0.249201,
2,1,0,1,0,9832.79,0.259495,0.259182,8.1053,8,0.019277,10,0.00210074,-2.09123,-0.935975,-0.0630359,-19.947,0.2591815,
2,1,0,1,0,9832.84,0.269474,0.26914,7.94181,8,0.0196772,10,0.00213746,-2.10008,-1.1289,-0.0522632,-16.1847,0.26914,
2,1,0,1,0,9832.89,0.279453,0.27916,7.78554,8,0.0200697,10,0.00217341,-2.10871,-1.39806,-0.0422014,-12.8541,0.27916,
2,1,0,1,0,9832.94,0.28945,0.289147,7.65557,8,0.020456,10,0.00221358,-2.11602,-2.13406,-0.0276469,-8.25777,0.289147,
2,1,0,1,0,9832.99,0.299438,0.299151,7.53333,8,0.0208351,10,0.00225361,-2.12301,-0.046721,-1.26282,-352.534,0.299151,
2,0,0,1,0,9833.03,0.291747,0.291427,-2.0509,8,0.0208995,10,-0.000597687,-2.68806,-0.0119633,-4.93175,350.471,0.291427,
2,0,0,1,0,9833.08,0.28175,0.281458,-3.60055,8,0.0207479,10,-0.0010134,-2.44363,-0.110784,-0.53257,74.48,0.281458,
2,0,0,1,0,9833.13,0.27178,0.271442,-4.13649,8,0.0205541,10,-0.00112282,-2.38337,-0.201928,-0.292183,47.1538,0.2714425,
2,0,0,1,0,9833.18,0.261783,0.261488,-4.52999,8,0.0203371,10,-0.00118454,-2.3439,-0.330942,-0.178279,31.4347,0.261488,
2,0,0,1,0,9833.23,0.251786,0.251421,-4.84598,8,0.0201023,10,-0.00121838,-2.31462,-0.373388,-0.158013,29.9369,0.251421,
2,0,0,1,0,9833.28,0.241807,0.241524,-5.153,8,0.0198523,10,-0.00124457,-2.28794,-0.382008,-0.154447,31.1077,0.241524,
2,0,0,1,0,9833.33,0.231824,0.231496,-5.45084,8,0.0195878,10,-0.00126185,-2.26354,-0.374503,-0.157542,33.4708,0.231496,
2,0,0,1,0,9833.38,0.221822,0.221526,-5.73617,8,0.0193082,10,-0.00127071,-2.24138,-0.409601,-0.144043,32.2144,0.2215257,
2,0,0,1,0,9833.43,0.211844,0.211554,-6.04788,8,0.0190141,10,-0.00127946,-2.2184,-0.461168,-0.127936,30.211,0.211554,
2,0,0,1,0,9833.48,0.201865,0.20156,-6.40525,8,0.0187035,10,-0.00129104,-2.19346,-0.403058,-0.146381,36.6162,0.20156,
2,0,0,1,0,9833.53,0.191868,0.191531,-6.84885,8,0.0183725,10,-0.00131177,-2.16438,-0.315044,-0.187275,50.1202,0.191531,
2,0,0,1,0,9833.58,0.18188,0.18156,-7.44776,8,0.0180169,10,-0.00135222,-2.12797,-0.22586,-0.261224,75.8292,0.18156,
2,0,0,1,0,9833.63,0.171901,0.17157,-8.28079,8,0.017626,10,-0.00142073,-2.08193,-0.182933,-0.322523,104.267,0.17157,
2,0,0,1,0,9833.68,0.161904,0.161604,-9.56722,8,0.0171821,10,-0.0015461,-2.01921,-0.139764,-0.422141,157.732,0.161604,
2,0,0,1,0,9833.73,0.151907,0.151604,-11.533,8,0.0166575,10,-0.00174844,-1.93806,-0.109855,-0.537073,242.219,0.151604,
2,0,0,1,0,9833.78,0.141928,0.141594,-14.4021,8,0.0160133,10,-0.00203924,-1.84157,-0.100421,-0.587526,330.089,0.141594,
2,0,0,1,0,9833.83,0.13194,0.131693,-17.7872,8,0.0152107,10,-0.00234245,-1.74989,-0.114506,-0.515257,357.509,0.131693,
2,0,0,1,0,9833.88,0.121943,0.121675,-21.0982,8,0.0142356,10,-0.00256712,-1.67576,-0.165663,-0.356144,292.84,0.121675,
2,0,0,1,0,9833.93,0.111964,0.111669,-23.5952,8,0.0131164,10,-0.00263484,-1.62718,-0.269528,-0.218901,201.349,0.111669,
2,0,0,1,0,9833.98,0.101985,0.101687,-24.9458,8,0.0118999,10,-0.00253666,-1.603,-0.866296,-0.068106,66.2056,0.101687,
2,0,0,1,0,9834.03,0.0919883,0.0916617,-24.9135,8,0.0106476,10,-0.00228361,-1.60357,0.847428,0.0696225,-67.6273,0.0916617,
2,0,0,1,0,9834.08,0.0820004,0.0816746,-23.5594,8,0.00943344,10,-0.0019242,-1.62784,0.295713,0.199518,-183.287,0.0816746,
2,0,0,1,0,9834.13,0.0720215,0.071731,-21.582,8,0.00830727,10,-0.0015481,-1.66591,0.25527,0.231128,-194.717,0.071731,
2,0,0,1,0,9834.18,0.0620245,0.0617006,-19.8798,8,0.0072729,10,-0.0012266,-1.70159,0.311018,0.189699,-147.271,0.0617006,
2,0,0,1,0,9834.23,0.0520275,0.0516937,-18.5639,8,0.0063127,10,-0.000959636,-1.73133,0.341113,0.172963,-125.283,0.0516937,
2,0,0,1,0,9834.28,0.0420486,0.0417248,-17.3089,8,0.00541728,10,-0.000722209,-1.76173,0.308843,0.191035,-129.163,0.0417248,
2,0,0,1,0,9834.33,0.0320607,0.0317162,-15.905,8,0.00458767,10,-0.000504447,-1.79847,0.240693,0.245126,-152.018,0.0317162,
2,0,0,1,0,9834.38,0.0220637,0.0217821,-14.3784,8,0.00383149,10,-0.000313191,-1.84229,0.233253,0.252944,-141.978,0.0217821,
2,0,0,1,0,9834.43,0.0120848,0.011753,-13.1953,8,0.0031459,10,-0.000155085,-1.87958,0.321175,0.183701,-94.6638,0.011753,
2,0,0,1,0,9834.48,0.00210598,0.00173784,-12.5982,8,0.00250604,10,-2.18937e-05,-1.89969,1.06679,0.0553059,-27.1323,0.001737842,
2,0,0,1,0,9834.53,-0.00789103,-0.00827259,-12.313,8,0.00188461,10,0.000101861,-1.90963,3.55963,0.0165747,-7.97244,-0.008272592,
2,0,0,1,0,9834.58,-0.017879,-0.0182229,-12.3544,8,0.00126983,10,0.000225132,-1.90818,-1.7329,-0.034047,16.4206,-0.0182229,
2,0,0,1,0,9834.63,-0.0278578,-0.0282683,-12.5651,8,0.000648612,10,0.000355195,-1.90083,-1.25727,-0.0469269,23.0196,-0.0282683,
2,0,0,1,0,9834.68,-0.0378549,-0.0382206,-12.8722,8,1.30214e-05,10,0.000491984,-1.89035,-0.866232,-0.0681111,34.2045,-0.03822061,
2,0,0,1,0,9834.73,-0.0478519,-0.0481929,-13.2579,8,-0.000640287,10,0.000638938,-1.87752,-0.667159,-0.0884347,45.7904,-0.0481929,
2,0,0,1,0,9834.78,-0.0578126,-0.0581443,-13.706,8,-0.00131167,10,0.000796926,-1.86309,-0.652226,-0.0904595,48.3972,-0.0581443,
2,0,0,1,0,9834.83,-0.0678187,-0.0682146,-14.2292,8,-0.00200985,10,0.000970639,-1.84682,-0.573005,-0.102966,57.1601,-0.06821461,
2,0,0,1,0,9834.88,-0.0778157,-0.0781739,-14.8274,8,-0.00273604,10,0.00115912,-1.82893,-0.537923,-0.109681,63.5299,-0.0781739,
2,0,0,1,0,9834.93,-0.0877945,-0.0881819,-15.5678,8,-0.00349418,10,0.0013728,-1.80777,-0.457292,-0.12902,78.3777,-0.0881819,
2,0,0,1,0,9834.98,-0.0977734,-0.098121,-16.3923,8,-0.00429137,10,0.00160843,-1.78536,-0.424873,-0.138865,88.9023,-0.098121,
2,0,0,1,1,9835.02,-0.0936874,-0.094029,-4.20326,8,-0.00477369,10,0.000395228,-2.37641,-0.00680353,-8.67197,1313.24,-0.09402898,
2,1,0,1,1,9835.07,-0.0837086,-0.0841117,4.29184,8,-0.0047389,10,-0.000360994,-2.36736,0.0176537,3.34208,537.77,-0.08411175,
2,1,0,1,1,9835.12,-0.0737025,-0.0740701,8.09599,8,-0.00441692,10,-0.000599671,-2.09173,0.0713025,0.827461,259.796,-0.0740701,
2,1,0,1,1,9835.17,-0.0637236,-0.0640675,9.88253,8,-0.0039629,10,-0.000633148,-2.00513,0.194674,0.303071,116.585,-0.0640675,
2,1,0,1,1,9835.22,-0.0537447,-0.0541021,10.7267,8,-0.00344607,10,-0.000580338,-1.96953,0.456646,0.129203,54.0426,-0.05410213,
2,1,0,1,1,9835.27,-0.0437477,-0.0440769,11.0939,8,-0.00289897,10,-0.000488985,-1.95492,1.17118,0.0503765,21.8019,-0.0440769,
2,1,0,1,1,9835.32,-0.0337507,-0.0340917,11.2121,8,-0.00234012,10,-0.00038224,-1.95031,9.51006,0.00620396,2.71645,-0.0340917,
2,1,0,1,1,9835.37,-0.0237809,-0.0241524,11.2007,8,-0.0017817,10,-0.000270523,-1.95076,-6.8286,-0.00864013,-3.77056,-0.0241524,
2,1,0,1,1,9835.42,-0.0137839,-0.0141229,11.0847,8,-0.00122446,10,-0.000156548,-1.95527,-1.56605,-0.0376744,-16.3098,-0.0141229,
2,1,0,1,1,9835.47,-0.0037869,-0.00412717,10.9523,8,-0.000673596,10,-4.5202e-05,-1.96049,-1.76457,-0.0334359,-14.279,-0.00412717,
2,1,0,1,1,9835.49,-2.55332e-05,-0.000401673,10.8734,8,-0.000469427,10,-4.36756e-06,-1.96363, , , ,-0.000401673,

File: 20221101_1-115_002_TrumpetPlot_ParaChange_13_CV_C01.mpt
EC-Lab ASCII FILE
Nb header lines : 68

Cyclic Voltammetry

Run on channel : 1 (SN 65296)
User :
CE vs. WE compliance from -10 V to 10 V
Electrode connection : standard
Potential control : Ewe
Ewe ctrl range : min = -1.00 V, max = 1.00 V
Safety Limits :
	Do not start on E overload
Acquisition started on : 11/08/2022 17:30:03.488
Loaded Setting File :  NONE
Saved on :
	File : 20221101_1-115_002_TrumpetPlot_ParaChange_13_CV_C01.mpr
	Directory : C:\Users\NakamuraT\Documents\EC-Lab\Data\Yatsuzuka\20221108_1-115_001_TrumpetPlot\
	Host : 192.109.209.100
Device : SP-50e (SN .003219)
Address : 192.109.209.128
EC-Lab for windows v11.43 (software)
Internet server v11.40 (firmware)
Command interpretor v11.40 (firmware)
Electrode material : Au/Pd
Initial state :
Electrolyte : NaCl (0.2M)
Comments : Fe(CN)63-/Fe(CN)64- 5.10-3 M
Reference electrode : SCE Saturated Calomel Electrode (0.241 V)
Electrode surface area : 0.001 cm2
Characteristic mass : 0.001 g
Equivalent Weight : 0.000 g/eq.
Density : 0.000 g/cm3
Volume (V) : 0.001 cm3
Cycle Definition : Charge/Discharge alternance
Ei (V)              0.000
vs.                 Ref
dE/dt               400.000
dE/dt unit          mV/s
E1 (V)              0.300
vs.                 Ref
Step percent        50
N                   10
E range min (V)     -1.000
E range max (V)     1.000
I Range             100 mA
I Range min         Unset
I Range max         Unset
I Range init        Unset
Bandwidth           5
E2 (V)              -0.100
vs.                 Ref
nc cycles           0
Reverse Scan        1
Ef (V)              0.000
vs.                 Ref

Number of loops : 8
Loop 0 from point number 0 to 1008
Loop 1 from point number 1009 to 2017
Loop 2 from point number 2018 to 3026
Loop 3 from point number 3027 to 4035
Loop 4 from point number 4036 to 5044
Loop 5 from point number 5045 to 6053
Loop 6 from point number 6054 to 7062
Loop 7 from point number 7063 to 8071

mode	ox/red	error	control changes	counter inc.	time/s	control/V	Ewe/V	<I>/mA	cycle number	(Q-Qo)/C	I Range	P/W
2	1	0	1	0	1214.19	2.44065e-05	-0.000687983	11.7849	1	0.0000000E+000	10	-8.10778e-06
2	1	0	1	0	1214.31	0.0468678	0.0465733	20.7187	1	0.00221837	10	0.000964936
2	1	0	1	0	1214.43	0.0940608	0.0937317	24.5796	1	0.0048055	10	0.00230389
2	1	0	1	0	1214.55	0.141265	0.140964	37.6483	1	0.00836886	10	0.00530707
2	1	0	1	0	1214.66	0.188466	0.188153	56.7164	1	0.0141093	10	0.0106714
2	1	0	1	0	1214.78	0.235659	0.235386	18.2743	1	0.0187272	10	0.00430151
2	1	0	1	0	1214.9	0.282863	0.282547	14.7199	1	0.0205516	10	0.00415906
2	0	0	1	0	1215.01	0.272307	0.272014	-8.78929	1	0.0209114	10	-0.0023908
2	0	0	1	0	1215.13	0.225102	0.224802	-11.7305	1	0.0197	10	-0.00263704
2	0	0	1	0	1215.25	0.177904	0.177616	-17.7919	1	0.0180316	10	-0.00316013
2	0	0	1	0	1215.37	0.130705	0.130457	-39.2383	1	0.0148641	10	-0.0051189
2	0	0	1	0	1215.48	0.0835041	0.083222	-52.203	1	0.0090012	10	-0.00434444
2	0	0	1	0	1215.6	0.0363	0.0359883	-27.8497	1	0.00438122	10	-0.00100226
2	0	0	1	0	1215.72	-0.010893	-0.0112624	-22.8279	1	0.00158003	10	0.000257096
2	0	0	1	0	1215.84	-0.0580943	-0.0584335	-26.0782	1	-0.00129118	10	0.00152384
2	0	0	1	1	1215.95	-0.0970583	-0.0974978	-20.2654	1	-0.00441357	10	0.00197583
2	1	0	1	1	1216.07	-0.0498542	-0.0502323	22.3632	1	-0.00317511	10	-0.00112336
2	1	0	1	1	1216.19	-0.00265292	-0.00303784	22.6081	1	-0.000450348	10	-6.86798e-05
2	1	0	1	0	2445.93	0.0420625	0.0417474	20.97	2	0.00198398	10	0.000875441
2	1	0	1	0	2446.04	0.0892666	0.088927	25.2224	2	0.0046216	10	0.00224296
2	1	0	1	0	2446.16	0.13646	0.136108	37.5886	2	0.00824946	10	0.00511609
2	1	0	1	0	2446.28	0.183664	0.183352	56.3133	2	0.0139103	10	0.0103252
2	1	0	1	0	2446.4	0.230865	0.230624	18.2852	2	0.0186029	10	0.00421701
2	1	0	1	0	2446.52	0.278069	0.277793	14.7598	2	0.0204113	10	0.00410015
2	0	0	1	0	2446.63	0.277104	0.276808	-8.55088	2	0.0210299	10	-0.00236695
2	0	0	1	0	2446.75	0.229908	0.229612	-11.3608	2	0.0198479	10	-0.00260859
2	0	0	1	0	2446.86	0.182704	0.18242	-16.4293	2	0.0182659	10	-0.00299704
2	0	0	1	0	2446.98	0.1355	0.135288	-36.0606	2	0.0153883	10	-0.00487856
2	0	0	1	0	2447.1	0.0883066	0.0880352	-53.4083	2	0.00973169	10	-0.00470181
2	0	0	1	0	2447.22	0.0411053	0.040793	-31.2689	2	0.0047182	10	-0.00127555
2	0	0	1	0	2447.34	-0.00609875	-0.00644387	-22.723	2	0.00175604	10	0.000146424
2	0	0	1	0	2447.45	-0.0532918	-0.0536214	-25.6875	2	-0.00107763	10	0.0013774
2	0	0	0	0	2447.57	-0.0999548	-0.100305	-30.2021	2	-0.00431993	10	0.00302942
2	1	0	1	1	2447.68	-0.0546596	-0.0550052	22.1857	2	-0.00345505	10	-0.00122033
2	1	0	1	1	2447.8	-0.00745545	-0.0078171	22.9195	2	-0.000703949	10	-0.000179164
2	1	0	1	0	3677.54	0.0372655	0.0369448	20.0839	3	0.00165991	10	0.000741997
2	1	0	1	0	3677.66	0.0844613	0.084135	24.0806	3	0.00420178	10	0.00202602
2	1	0	1	0	3677.78	0.131665	0.131336	34.4666	3	0.00761466	10	0.0045267
2	1	0	1	0	3677.9	0.178869	0.17853	51.5934	3	0.0126883	10	0.00921098
2	1	0	1	0	3678.01	0.226062	0.225843	24.3453	3	0.0178168	10	0.00549823
2	1	0	1	0	3678.13	0.273264	0.272963	15.3851	3	0.0198876	10	0.00419955
2	0	0	1	0	3678.24	0.281903	0.281657	-6.39901	3	0.0208805	10	-0.00180232
2	0	0	1	0	3678.36	0.234702	0.23444	-10.4729	3	0.0198298	10	-0.00245526
2	0	0	1	0	3678.48	0.187509	0.187215	-14.4484	3	0.0183939	10	-0.00270497
2	0	0	1	0	3678.6	0.140305	0.140024	-29.1812	3	0.0160101	10	-0.00408607
2	0	0	1	0	3678.72	0.0931008	0.0928494	-49.726	3	0.011171	10	-0.00461703
2	0	0	1	0	3678.83	0.0459051	0.0456104	-36.6015	3	0.00587408	10	-0.00166941
2	0	0	1	0	3678.95	-0.00129345	-0.00161054	-23.7884	3	0.00245106	10	3.83122e-05
2	0	0	1	0	3679.07	-0.0484976	-0.0488103	-24.7964	3	-0.000356347	10	0.00121032
2	0	0	1	0	3679.19	-0.0956989	-0.0960196	-28.6567	3	-0.00349083	10	0.00275161
2	1	0	1	1	3679.3	-0.0594538	-0.0598682	18.2291	3	-0.003468	10	-0.00109134
2	1	0	1	1	3679.42	-0.0122552	-0.012625	22.0281	3	-0.000962186	10	-0.000278104
2	1	0	1	0	4909.16	0.0324658	0.0321751	19.6766	4	0.00140504	10	0.000633095
2	1	0	1	0	4909.28	0.0796671	0.079308	23.8087	4	0.00391617	10	0.00188822
2	1	0	1	0	4909.39	0.12686	0.126584	33.4537	4	0.00726159	10	0.00423471
2	1	0	1	0	4909.51	0.174064	0.17373	48.9595	4	0.0121033	10	0.00850572
2	1	0	1	0	4909.63	0.221268	0.221012	26.9822	4	0.0172453	10	0.0059634
2	1	0	1	0	4909.75	0.268461	0.268173	16.1532	4	0.0194806	10	0.00433185
2	0	0	1	0	4909.86	0.286709	0.286464	-3.99827	4	0.0207924	10	-0.00114536
2	0	0	1	0	4909.98	0.239505	0.239237	-9.86577	4	0.0198529	10	-0.00236026
2	0	0	1	0	4910.1	0.192303	0.192021	-13.3694	4	0.0185031	10	-0.0025672
2	0	0	1	0	4910.21	0.145105	0.144861	-25.1601	4	0.016395	10	-0.00364473
2	0	0	1	0	4910.33	0.0979061	0.0976181	-46.6979	4	0.0120561	10	-0.00455856
2	0	0	1	0	4910.45	0.0507021	0.0504289	-38.9766	4	0.00670892	10	-0.00196555
2	0	0	1	0	4910.57	0.00350076	0.00318144	-25.3199	4	0.0029642	10	-8.05537e-05
2	0	0	1	0	4910.69	-0.0436922	-0.0440194	-24.608	4	0.000109055	10	0.00108323
2	0	0	1	0	4910.8	-0.0908963	-0.091217	-28.0643	4	-0.00298051	10	0.00255995
2	1	0	1	1	4910.92	-0.0642591	-0.0646454	15.7719	4	-0.00356577	10	-0.00101958
2	1	0	1	1	4911.03	-0.017055	-0.0174053	21.6732	4	-0.00118769	10	-0.000377228
2	1	0	1	0	6140.77	0.0276605	0.0272993	19.1421	5	0.00116711	10	0.000522566
2	1	0	1	0	6140.89	0.0748645	0.0745659	23.4128	5	0.00364001	10	0.00174579
2	1	0	1	0	6141.01	0.122066	0.121744	32.4529	5	0.00690932	10	0.00395096
[...]
2	1	0	1	0	7372.63	0.117263	0.116934	32.2156	6	0.00665449	10	0.00376711
2	1	0	1	0	7372.74	0.164465	0.164164	45.7759	6	0.011207	10	0.00751475
2	1	0	1	0	7372.86	0.211669	0.211374	32.3802	6	0.0165	10	0.00684433
2	1	0	1	0	7372.98	0.258862	0.258575	16.1645	6	0.0189501	10	0.00417973
2	1	0	1	0	7373.09	0.296305	0.296069	5.52221	6	0.0206192	10	0.00163495
2	0	0	1	0	7373.21	0.249104	0.248785	-9.48599	6	0.0198804	10	-0.00235998
2	0	0	1	0	7373.33	0.2019	0.201602	-12.2754	6	0.0186029	10	-0.00247475
2	0	0	1	0	7373.45	0.154707	0.154434	-19.7322	6	0.0168212	10	-0.00304731
2	0	0	1	0	7373.57	0.107506	0.107279	-40.9101	6	0.0132839	10	-0.00438881
2	0	0	1	0	7373.68	0.0603016	0.0599715	-42.9022	6	0.00798513	10	-0.00257291
2	0	0	1	0	7373.8	0.0131086	0.0127643	-29.7466	6	0.00368096	10	-0.000379695
2	0	0	1	0	7373.92	-0.0340955	-0.0344079	-24.114	6	0.000668521	10	0.000829711
2	0	0	1	0	7374.04	-0.0812968	-0.0816405	-26.9639	6	-0.00231813	10	0.00220135
2	1	0	1	1	7374.15	-0.0738558	-0.0742929	9.88069	6	-0.00392372	10	-0.000734065
2	1	0	1	1	7374.27	-0.0266545	-0.0269956	21.6785	6	-0.00178624	10	-0.000585224
2	1	0	1	0	8604.01	0.0180637	0.0177217	17.4497	7	0.000696773	10	0.000309239
2	1	0	1	0	8604.13	0.065265	0.0649119	22.3306	7	0.00304622	10	0.00144952
2	1	0	1	0	8604.24	0.112469	0.112112	30.5703	7	0.00614614	10	0.00342729
2	1	0	1	0	8604.36	0.159662	0.159382	42.6705	7	0.0104134	10	0.00680093
2	1	0	1	0	8604.48	0.206863	0.206582	35.1714	7	0.0155989	10	0.00726579
2	1	0	1	0	8604.6	0.254067	0.253753	16.9409	7	0.0182675	10	0.00429882
2	1	0	0	0	8604.71	0.300012	0.299708	14.8524	7	0.0200746	10	0.0044514
2	0	0	1	0	8604.83	0.253907	0.2536	-8.59678	7	0.0196267	10	-0.00218014
2	0	0	1	0	8604.95	0.206705	0.206408	-11.4102	7	0.0184437	10	-0.00235515
2	0	0	1	0	8605.06	0.159501	0.159188	-17.1653	7	0.0168338	10	-0.00273252
2	0	0	1	0	8605.18	0.112308	0.112089	-36.1795	7	0.0137874	10	-0.00405534
2	0	0	1	0	8605.3	0.0651069	0.0647762	-42.7287	7	0.00882665	10	-0.0027678
2	0	0	1	0	8605.42	0.0179028	0.0176051	-31.9596	7	0.00440216	10	-0.000562651
2	0	0	1	0	8605.54	-0.0293013	-0.0296625	-24.2092	7	0.00123515	10	0.000718106
2	0	0	1	0	8605.65	-0.0764943	-0.0767966	-26.0884	7	-0.00169414	10	0.0020035
2	1	0	1	1	8605.77	-0.0786556	-0.0790722	4.82194	7	-0.0037239	10	-0.000381281
2	1	0	1	1	8605.88	-0.031457	-0.03183	20.1561	7	-0.00193135	10	-0.00064157
2	1	0	1	0	9835.62	0.0132695	0.0129117	16.8669	8	0.000500682	10	0.000217781
2	1	0	1	0	9835.74	0.0604625	0.0601062	22.5022	8	0.00285591	10	0.00135252
2	1	0	1	0	9835.86	0.107664	0.107343	30.5687	8	0.00596339	10	0.00328134
2	1	0	1	0	9835.98	0.154868	0.154537	42.2102	8	0.0102003	10	0.00652306
2	1	0	1	0	9836.1	0.202061	0.201754	37.6587	8	0.0154466	10	0.0075978
2	1	0	1	0	9836.21	0.249262	0.248907	16.95	8	0.0182613	10	0.00421898
2	1	0	1	0	9836.33	0.296466	0.296168	14.7535	8	0.0201065	10	0.00436951
2	0	0	1	0	9836.44	0.258701	0.258408	-8.82925	8	0.0198356	10	-0.00228154
2	0	0	1	0	9836.56	0.211505	0.2112	-11.4639	8	0.0186329	10	-0.00242118
2	0	0	1	0	9836.68	0.164306	0.164032	-16.185	8	0.0170587	10	-0.00265486
2	0	0	1	0	9836.8	0.117102	0.116844	-33.9504	8	0.0142488	10	-0.00396691
2	0	0	1	0	9836.92	0.0699011	0.0695809	-44.1257	8	0.00936481	10	-0.0030703
2	0	0	1	0	9837.03	0.0227081	0.0223854	-34.1844	8	0.00471727	10	-0.000765232
2	0	0	1	0	9837.15	-0.024496	-0.0248748	-24.6184	8	0.00136047	10	0.000612379
2	0	0	1	0	9837.27	-0.0717001	-0.0720512	-25.9321	8	-0.00156992	10	0.00186844
2	1	0	1	1	9837.38	-0.0834553	-0.0838525	0.670063	8	-0.00395885	10	-5.61865e-05
2	1	0	1	1	9837.5	-0.0362512	-0.0366188	20.551	8	-0.00230287	10	-0.000752555
2	1	0	1	1	9837.59	2.44065e-05	-0.000344411	21.5562	8	-0.000360918	10	-7.4242e-06