Folder: Figs_alphaMnO2_OER_Tafel_sleope/Figure_codes/Fig_3-5/rawdata_trumpetplot_data/before 10th (part 39)

File: 20221101_1-115_002_TrumpetPlot_ParaChange_12_CV_C01_1.csv
mode,ox/red,error,control changes,counter inc.,time/s,control/V,Ewe/V,<I>/mA,cycle number,(Q-Qo)/C,I Range,P/W,log(|I|),Tafel slope mV/dec,alpha_eff,dI/d(E-IR),E-IR/V,
2,1,0,0,0,2441.72,2.44065e-05,-0.000401673,6.93894,2,0.0000000E+000,10,-2.78718e-06,-2.15871, , , ,-0.000401673,
2,1,0,1,0,2441.77,0.00977853,0.00951592,10.2121,2,0.000436012,10,9.71777e-05,-1.99088,0.181508,0.325055,128.481,0.00951592,
2,1,0,1,0,2441.82,0.0197755,0.0195081,10.6948,2,0.000963016,10,0.000208635,-1.97083,4.56608,0.0129214,5.39349,0.0195081,
2,1,0,1,0,2441.87,0.0297726,0.0294813,10.6917,2,0.00149786,10,0.000315203,-1.97096,-6.22028,-0.0094851,-3.95346,0.0294813,
2,1,0,1,0,2441.92,0.0397514,0.0394336,10.7096,2,0.00203164,10,0.000422316,-1.97023,1.49058,0.0395819,16.5886,0.0394336,
2,1,0,1,0,2441.97,0.0497393,0.0494405,10.9365,2,0.00257077,10,0.000540705,-1.96112,0.78039,0.0756032,32.1909,0.0494405,
2,1,0,1,0,2442.02,0.0597364,0.059418,11.3629,2,0.00312681,10,0.000675158,-1.94451,0.426519,0.138329,61.4064,0.059418,
2,1,0,1,0,2442.07,0.0697152,0.0694054,12.0944,2,0.00371112,10,0.000839415,-1.91742,0.35036,0.168398,79.4934,0.0694054,
2,1,0,1,0,2442.12,0.0796941,0.0794154,13.0957,2,0.00433823,10,0.00104,-1.88287,0.254979,0.231391,118.334,0.0794154,
2,1,0,1,0,2442.17,0.0896911,0.089359,14.3146,2,0.00502365,10,0.00127914,-1.84422,0.245659,0.24017,134.281,0.089359,
2,1,0,1,0,2442.22,0.099679,0.0993447,15.6474,2,0.00577129,10,0.00155449,-1.80556,0.262384,0.224861,137.231,0.0993447,
2,1,0,1,0,2442.27,0.109658,0.109367,17.0607,2,0.00658652,10,0.00186588,-1.768,0.259933,0.226981,151.061,0.109367,
2,1,0,1,0,2442.32,0.119655,0.119345,18.7636,2,0.00748031,10,0.00223934,-1.72668,0.223922,0.263484,193.098,0.119345,
2,1,0,1,0,2442.37,0.129652,0.129352,21.1107,2,0.00847414,10,0.00273072,-1.6755,0.177564,0.332274,273.744,0.129352,
2,1,0,1,0,2442.42,0.139631,0.139334,24.1907,2,0.00960257,10,0.00337059,-1.61635,0.165768,0.35592,336.177,0.139334,
2,1,0,1,0,2442.47,0.149619,0.149318,27.5855,2,0.010895,10,0.00411902,-1.55932,0.194672,0.303073,325.924,0.1493184,
2,1,0,1,0,2442.52,0.159616,0.15929,30.4266,2,0.0123498,10,0.00484664,-1.51675,0.317818,0.185641,220.327,0.15929,
2,1,0,1,0,2442.57,0.169595,0.169291,31.5039,2,0.0139066,10,0.00533332,-1.50164,-1.27716,-0.0461964,-56.6339,0.169291,
2,1,0,1,0,2442.62,0.179573,0.179273,28.3668,2,0.0154231,10,0.00508541,-1.54719,-0.110543,-0.53373,-588.558,0.179273,
2,1,0,1,0,2442.67,0.18957,0.189316,20.3458,2,0.0166531,10,0.00385179,-1.69152,-0.0528122,-1.11717,-885.35,0.189316,
2,1,0,1,0,2442.72,0.199558,0.199257,12.9499,2,0.0174666,10,0.00258036,-1.88773,-0.0584582,-1.00927,-512.701,0.199257,
2,1,0,1,0,2442.77,0.209537,0.209253,9.96098,2,0.0180217,10,0.00208436,-2.0017,-0.153669,-0.383942,-149.662,0.209253,
2,1,0,1,0,2442.82,0.219534,0.219267,9.18501,2,0.0184963,10,0.00201397,-2.03692,-0.519664,-0.113535,-40.8092,0.219267,
2,1,0,1,0,2442.87,0.229531,0.229218,8.85982,2,0.0189475,10,0.00203083,-2.05257,-0.587887,-0.100359,-34.6711,0.229218,
2,1,0,1,0,2442.92,0.23951,0.239208,8.58104,2,0.0193826,10,0.00205265,-2.06646,-0.99117,-0.0595256,-19.9738,0.2392078,
2,1,0,1,0,2442.97,0.249498,0.249166,8.36555,2,0.0198051,10,0.00208441,-2.07751,-0.932091,-0.0632985,-20.6345,0.249166,
2,1,0,1,0,2443.02,0.259495,0.259202,8.16395,2,0.020218,10,0.00211611,-2.0881,-0.801186,-0.0736408,-23.4732,0.2592023,
2,1,0,1,0,2443.07,0.269474,0.269141,7.99007,2,0.020621,10,0.00215046,-2.09745,-1.36133,-0.04334,-13.5289,0.269141,
2,1,0,1,0,2443.12,0.279453,0.279134,7.84123,2,0.0210164,10,0.00218875,-2.10562,-1.38839,-0.0424953,-13.0219,0.2791338,
2,1,0,1,0,2443.17,0.28945,0.289117,7.70735,2,0.0214052,10,0.00222833,-2.1131,-1.98188,-0.0297698,-8.95179,0.289117,
2,1,0,1,0,2443.22,0.299438,0.29915,7.58963,2,0.0217869,10,0.00227044,-2.11978,-0.0386774,-1.52544,-422.797,0.2991499,
2,0,0,1,0,2443.26,0.291747,0.291471,-3.14998,2,0.0218032,10,-0.000918127,-2.50169,-0.0286417,-2.05993,239.824,0.291471,
2,0,0,1,0,2443.31,0.28175,0.281459,-4.0021,2,0.0216178,10,-0.00112643,-2.39771,-0.216392,-0.272653,42.5853,0.281459,
2,0,0,1,0,2443.36,0.27178,0.27147,-4.4087,2,0.0214083,10,-0.00119683,-2.35569,-0.240794,-0.245023,41.9599,0.27147,
2,0,0,1,0,2443.41,0.261783,0.261489,-4.76817,2,0.0211788,10,-0.00124683,-2.32165,-0.350964,-0.168108,31.3378,0.2614893,
2,0,0,1,0,2443.46,0.251786,0.251504,-5.11242,2,0.0209315,10,-0.0012858,-2.29137,-0.327923,-0.17992,35.8485,0.251504,
2,0,0,1,0,2443.51,0.241807,0.241523,-5.44345,2,0.0206677,10,-0.00131472,-2.26413,-0.364823,-0.161722,34.4959,0.241523,
2,0,0,1,0,2443.56,0.231824,0.231565,-5.79943,2,0.0203871,10,-0.00134294,-2.23662,-0.331197,-0.178142,40.2748,0.231565,
2,0,0,1,0,2443.61,0.221822,0.22153,-6.17029,2,0.0200876,10,-0.0013669,-2.20969,-0.327172,-0.180333,43.4892,0.22153,
2,0,0,1,0,2443.66,0.211844,0.211565,-6.64539,2,0.0197681,10,-0.00140593,-2.17748,-0.347135,-0.169963,43.977,0.211565,
2,0,0,1,0,2443.71,0.201865,0.20154,-7.20297,2,0.0194231,10,-0.00145169,-2.14249,-0.261378,-0.225727,63.6183,0.2015404,
2,0,0,1,0,2443.76,0.191868,0.191572,-7.99598,2,0.019044,10,-0.0015318,-2.09713,-0.194842,-0.302809,94.5435,0.191572,
2,0,0,1,0,2443.81,0.18188,0.181562,-9.1048,2,0.0186192,10,-0.00165308,-2.04073,-0.147464,-0.400096,142.229,0.181562,
2,0,0,1,0,2443.86,0.171901,0.171611,-10.7501,2,0.0181265,10,-0.00184484,-1.96859,-0.127042,-0.464415,194.621,0.171611,
2,0,0,1,0,2443.91,0.161904,0.161606,-13.1817,2,0.0175323,10,-0.00213024,-1.88003,-0.103192,-0.571751,294.412,0.161606,
2,0,0,1,0,2443.96,0.151907,0.151633,-16.639,2,0.0167901,10,-0.00252303,-1.77887,-0.0979496,-0.602351,391.628,0.151633,
2,0,0,1,0,2444.01,0.141928,0.141637,-20.903,2,0.0158551,10,-0.00296065,-1.67979,-0.107219,-0.550276,448.998,0.1416374,
2,0,0,1,0,2444.06,0.13194,0.131685,-25.1931,2,0.0147023,10,-0.00331756,-1.59872,-0.144552,-0.408157,400.806,0.131685,
2,0,0,1,0,2444.11,0.121943,0.121608,-28.649,2,0.0133501,10,-0.00348394,-1.54289,-0.252271,-0.233876,261.127,0.121608,
2,0,0,1,0,2444.16,0.111964,0.111704,-30.2517,2,0.0118708,10,-0.00337923,-1.51925,-2.01167,-0.0293289,34.5556,0.111704,
2,0,0,1,0,2444.21,0.101985,0.101645,-29.1081,2,0.0103771,10,-0.00295869,-1.53599,0.243217,0.242582,-275.025,0.1016452,
2,0,0,1,0,2444.26,0.0919883,0.0917137,-25.2427,2,0.00901055,10,-0.00231511,-1.59786,0.130138,0.453366,-446.311,0.0917137,
2,0,0,1,0,2444.31,0.0820004,0.0816627,-20.9423,2,0.00786217,10,-0.0017102,-1.67898,0.130326,0.452712,-370.593,0.0816627,
2,0,0,1,0,2444.36,0.0720215,0.0717406,-18.0472,2,0.00689598,10,-0.00129472,-1.74359,0.181917,0.324324,-228.44,0.0717406,
2,0,0,1,0,2444.41,0.0620245,0.0617189,-16.0963,2,0.0060448,10,-0.000993447,-1.79327,0.211821,0.278536,-175.203,0.0617189,
2,0,0,1,0,2444.46,0.0520275,0.0516954,-14.4636,2,0.00528138,10,-0.000747703,-1.83972,0.206488,0.28573,-161.119,0.0516954,
2,0,0,1,0,2444.51,0.0420486,0.0417479,-13.0501,2,0.00459659,10,-0.000544813,-1.88439,0.275898,0.213847,-109.209,0.0417479,
2,0,0,1,0,2444.56,0.0320607,0.0317613,-12.2348,2,0.00396836,10,-0.000388593,-1.9124,0.498329,0.118396,-56.4289,0.0317613,
2,0,0,1,0,2444.61,0.0220637,0.021809,-11.8726,2,0.00336768,10,-0.000258931,-1.92545,1.95459,0.0301853,-14.0048,0.021809,
2,0,0,1,0,2444.66,0.0120848,0.0117673,-11.8754,2,0.00277613,10,-0.000139741,-1.92535,-10.1812,-0.00579499,2.68313,0.0117673,
2,0,0,1,0,2444.71,0.00210598,0.00172483,-12.076,2,0.00218089,10,-2.0829e-05,-1.91808,-0.755484,-0.0780956,36.7045,0.00172483,
2,0,0,1,0,2444.76,-0.00789103,-0.00820579,-12.2768,2,0.001572,10,0.000100741,-1.91091,-0.921573,-0.064021,30.7216,-0.00820579,
2,0,0,1,0,2444.81,-0.017879,-0.0182459,-12.625,2,0.000950355,10,0.000230354,-1.89877,-0.75352,-0.0782991,38.571,-0.0182459,
2,0,0,1,0,2444.86,-0.0278578,-0.028198,-12.9981,2,0.0003112,10,0.000366521,-1.88612,-0.861621,-0.0684756,34.738,-0.028198,
2,0,0,1,0,2444.91,-0.0378548,-0.0382119,-13.4071,2,-0.000348815,10,0.000512313,-1.87266,-0.766164,-0.077007,40.2716,-0.0382119,
2,0,0,1,0,2444.96,-0.0478519,-0.0481538,-13.8233,2,-0.00102974,10,0.000665646,-1.85939,-0.636262,-0.0927291,50.0803,-0.0481538,
2,0,0,1,0,2445.01,-0.0578126,-0.0581608,-14.2948,2,-0.00173026,10,0.000831395,-1.84482,-0.635908,-0.0927807,51.805,-0.0581608,
2,0,0,1,0,2445.06,-0.0678187,-0.0681747,-14.8543,2,-0.00245882,10,0.00101269,-1.82815,-0.539467,-0.109367,63.3664,-0.0681747,
2,0,0,1,0,2445.11,-0.0778157,-0.0781955,-15.5044,2,-0.00321747,10,0.00121237,-1.80955,-0.512227,-0.115183,69.7582,-0.0781955,
2,0,0,1,0,2445.16,-0.0877945,-0.0880992,-16.3536,2,-0.00401163,10,0.00144074,-1.78639,-0.390507,-0.151086,96.335,-0.0880992,
2,0,0,1,0,2445.21,-0.0977734,-0.0980975,-17.2968,2,-0.00485119,10,0.00169678,-1.76203,-0.386679,-0.152581,103.144,-0.09809754,
2,0,0,1,1,2445.25,-0.0936874,-0.0940656,-1.59794,2,-0.00530705,10,0.000150311,-2.79644,-0.00613911,-9.61052,1593.71,-0.0940656,
2,1,0,1,1,2445.3,-0.0837086,-0.0841196,7.47041,2,-0.00511565,10,-0.000628408,-2.12666,0.0341243,1.72897,494.743,-0.0841196,
2,1,0,1,1,2445.35,-0.0737025,-0.0740527,10.4538,2,-0.00465361,10,-0.000774131,-1.98073,0.147736,0.39936,161.883,-0.0740527,
2,1,0,1,1,2445.4,-0.0637236,-0.0640969,11.3644,2,-0.00410501,10,-0.000728424,-1.94445,0.549506,0.107369,47.6705,-0.0640969,
2,1,0,1,1,2445.45,-0.0537447,-0.0541004,11.6853,2,-0.00352835,10,-0.000632177,-1.93236,2.49505,0.0236468,10.7581,-0.0541004,
2,1,0,1,1,2445.5,-0.0437477,-0.0441238,11.716,2,-0.00294281,10,-0.000516956,-1.93122,-14.7549,-0.00399867,-1.82971,-0.0441238,
2,1,0,1,1,2445.55,-0.0337507,-0.0341238,11.6644,2,-0.00235797,10,-0.000398033,-1.93314,-2.84898,-0.0207092,-9.42256,-0.0341238,
2,1,0,1,1,2445.6,-0.0237809,-0.0241567,11.5471,2,-0.00178013,10,-0.000278939,-1.93753,-2.53498,-0.0232743,-10.477,-0.0241567,
2,1,0,1,1,2445.65,-0.0137839,-0.0141541,11.3913,2,-0.00120678,10,-0.000161233,-1.94343,-1.26144,-0.0467721,-20.7731,-0.0141541,
2,1,0,1,1,2445.7,-0.0037869,-0.00416968,11.1994,2,-0.000641948,10,-4.66978e-05,-1.95081,-1.35235,-0.0436276,-19.0842,-0.00416968,
2,1,0,1,1,2445.72,-2.55332e-05,-0.000306236,11.1024,2,-0.000433137,10,-3.39996e-06,-1.95458, , , ,-0.000306236,

File: 20221101_1-115_002_TrumpetPlot_ParaChange_12_CV_C01_2.csv
mode,ox/red,error,control changes,counter inc.,time/s,control/V,Ewe/V,<I>/mA,cycle number,(Q-Qo)/C,I Range,P/W,log(|I|),Tafel slope mV/dec,alpha_eff,dI/d(E-IR),E-IR/V,
2,1,0,0,0,3673.35,2.44065e-05,-0.000325324,7.30338,3,0.0000000E+000,10,-2.37596e-06,-2.13648, , , ,-0.000325324,
2,1,0,1,0,3673.4,0.00977853,0.00947168,9.67893,3,0.000420287,10,9.16757e-05,-2.01417,0.174356,0.338389,126.976,0.00947168,
2,1,0,1,0,3673.45,0.0197755,0.0194622,10.2804,3,0.000923169,10,0.00020008,-1.98799,1.0715,0.0550632,22.1113,0.0194622,
2,1,0,1,0,3673.5,0.0297726,0.0295142,10.4382,3,0.00144159,10,0.000308076,-1.98137,2.90551,0.0203063,8.25804,0.0295142,
2,1,0,1,0,3673.55,0.0397514,0.0394312,10.5548,3,0.00196514,10,0.000416189,-1.97655,0.942806,0.0625792,25.8345,0.03943117,
2,1,0,1,0,3673.6,0.0497393,0.0494449,10.8645,3,0.00249889,10,0.000537193,-1.96399,0.647148,0.0911692,38.5966,0.0494449,
2,1,0,1,0,3673.65,0.0597364,0.0594371,11.3629,3,0.00305339,10,0.000675378,-1.94451,0.379062,0.155648,69.113,0.0594371,
2,1,0,1,0,3673.7,0.0697152,0.0694341,12.1647,3,0.00363976,10,0.000844641,-1.9149,0.315492,0.187009,88.8324,0.0694341,
2,1,0,1,0,3673.75,0.0796941,0.0793712,13.1936,3,0.0042716,10,0.00104719,-1.87964,0.253821,0.232447,119.766,0.0793712,
2,1,0,1,0,3673.8,0.0896911,0.0893807,14.4025,3,0.00496183,10,0.00128731,-1.84156,0.264333,0.223203,125.504,0.0893807,
2,1,0,1,0,3673.85,0.099679,0.0993471,15.6538,3,0.00571196,10,0.00155515,-1.80538,0.284566,0.207333,126.627,0.0993471,
2,1,0,1,0,3673.9,0.109658,0.109386,16.9151,3,0.00652441,10,0.00185027,-1.77173,0.29118,0.202624,133.797,0.109386,
2,1,0,1,0,3673.95,0.119655,0.119359,18.3952,3,0.00740604,10,0.00219563,-1.7353,0.257996,0.228685,164.314,0.1193591,
2,1,0,1,0,3674,0.129652,0.129342,20.3913,3,0.00837321,10,0.00263745,-1.69055,0.204822,0.288054,229.205,0.129342,
2,1,0,1,0,3674.05,0.139631,0.13931,22.9791,3,0.00945362,10,0.00320121,-1.63867,0.18997,0.310576,278.584,0.13931,
2,1,0,1,0,3674.1,0.149619,0.149337,25.8385,3,0.0106718,10,0.00385866,-1.58773,0.2114,0.279092,281.084,0.149337,
2,1,0,1,0,3674.15,0.159616,0.159348,28.3182,3,0.0120288,10,0.00451244,-1.54793,0.321005,0.183798,203.076,0.159348,
2,1,0,1,0,3674.2,0.169595,0.169258,29.5845,3,0.0134812,10,0.0050074,-1.52894,7.44741,0.00792222,9.11982,0.169258,
2,1,0,1,0,3674.25,0.179573,0.179268,27.6638,3,0.0149274,10,0.00495924,-1.55809,-0.148182,-0.398159,-428.363,0.179268,
2,1,0,1,0,3674.3,0.18957,0.189282,21.2822,3,0.0161655,10,0.00402833,-1.67198,-0.0642943,-0.917656,-759.98,0.189282,
2,1,0,1,0,3674.35,0.199558,0.199264,14.3775,3,0.0170436,10,0.00286491,-1.84232,-0.0640562,-0.921066,-518.887,0.199264,
2,1,0,1,0,3674.4,0.209537,0.209221,10.9785,3,0.0176614,10,0.00229694,-1.95946,-0.124883,-0.472443,-202.765,0.209221,
2,1,0,1,0,3674.45,0.219534,0.219244,9.73288,3,0.0181741,10,0.00213387,-2.01176,-0.292894,-0.201438,-76.6553,0.219244,
2,1,0,1,0,3674.5,0.229531,0.229196,9.14203,3,0.0186451,10,0.00209532,-2.03896,-0.428136,-0.137807,-49.1689,0.229196,
2,1,0,1,0,3674.55,0.23951,0.239224,8.7357,3,0.0190909,10,0.00208979,-2.0587,-0.720798,-0.0818537,-27.9703,0.239224,
2,1,0,1,0,3674.6,0.249498,0.249179,8.45853,3,0.0195195,10,0.00210769,-2.07271,-0.853149,-0.0691556,-22.7842,0.249179,
2,1,0,1,0,3674.65,0.259495,0.259221,8.22454,3,0.019936,10,0.00213197,-2.08489,-0.888407,-0.066411,-21.3137,0.259221,
2,1,0,1,0,3674.7,0.269474,0.269169,8.03111,3,0.0203414,10,0.00216172,-2.09522,-1.01999,-0.0578439,-18.1362,0.269169,
2,1,0,1,0,3674.75,0.279453,0.279186,7.86495,3,0.0207382,10,0.00219578,-2.1043,-1.0863,-0.0543127,-16.7004,0.279186,
2,1,0,1,0,3674.8,0.28945,0.289192,7.72611,3,0.021128,10,0.00223433,-2.11204,-2.02526,-0.029132,-8.77737,0.289192,
2,1,0,1,0,3674.84,0.299438,0.299149,7.59706,3,0.0215104,10,0.00227265,-2.11935,-0.0435209,-1.35567,-379.381,0.2991491,
2,0,0,1,0,3674.89,0.291747,0.291466,-2.45516,3,0.0215566,10,-0.000715594,-2.60992,-0.0174439,-3.38227,298.146,0.291466,
2,0,0,1,0,3674.94,0.28175,0.28144,-3.65938,3,0.0213955,10,-0.0010299,-2.43659,-0.13647,-0.43233,61.6177,0.28144,
2,0,0,1,0,3674.99,0.27178,0.27143,-4.16351,3,0.0212002,10,-0.0011301,-2.38054,-0.19602,-0.300989,48.6383,0.27143,
2,0,0,1,0,3675.04,0.261783,0.261427,-4.54922,3,0.0209821,10,-0.00118929,-2.34206,-0.304256,-0.193916,34.4961,0.261427,
2,0,0,1,0,3675.09,0.251786,0.251467,-4.91637,3,0.0207453,10,-0.0012363,-2.30836,-0.328661,-0.179516,34.3377,0.251467,
2,0,0,1,0,3675.14,0.241807,0.241525,-5.22919,3,0.0204918,10,-0.00126298,-2.28157,-0.338094,-0.174508,35.8029,0.241525,
2,0,0,1,0,3675.19,0.231824,0.23154,-5.59497,3,0.0202217,10,-0.00129546,-2.2522,-0.348263,-0.169412,36.8376,0.23154,
2,0,0,1,0,3675.24,0.221822,0.221479,-5.93237,3,0.0199337,10,-0.00131389,-2.22677,-0.381106,-0.154813,35.9229,0.221479,
2,0,0,1,0,3675.29,0.211844,0.211548,-6.35291,3,0.0196274,10,-0.00134395,-2.19703,-0.359888,-0.16394,40.582,0.211548,
2,0,0,1,0,3675.34,0.201865,0.201553,-6.84035,3,0.0192985,10,-0.0013787,-2.16492,-0.299066,-0.197281,52.8766,0.201553,
2,0,0,1,0,3675.39,0.191868,0.191605,-7.52572,3,0.01894,10,-0.00144196,-2.12345,-0.213768,-0.276,81.0029,0.191605,
2,0,0,1,0,3675.44,0.18188,0.181566,-8.46207,3,0.0185428,10,-0.00153643,-2.07252,-0.167096,-0.353091,116.663,0.181566,
2,0,0,1,0,3675.49,0.171901,0.171604,-9.84255,3,0.0180888,10,-0.00168902,-2.00689,-0.134813,-0.437642,167.782,0.171604,
2,0,0,1,0,3675.54,0.161904,0.161635,-11.8538,3,0.0175496,10,-0.00191599,-1.92614,-0.110141,-0.535676,248.414,0.161635,
2,0,0,1,0,3675.59,0.151907,0.15161,-14.8313,3,0.0168856,10,-0.00224857,-1.82882,-0.10071,-0.585841,339.081,0.15161,
2,0,0,1,0,3675.64,0.141928,0.1417,-18.511,3,0.0160549,10,-0.00262301,-1.73257,-0.106896,-0.551939,399.492,0.1417,
2,0,0,1,0,3675.69,0.13194,0.131679,-22.4679,3,0.0150305,10,-0.00295856,-1.64844,-0.138888,-0.424803,371.892,0.1316791,
2,0,0,1,0,3675.74,0.121943,0.121667,-25.8144,3,0.01382,10,-0.00314076,-1.58814,-0.211307,-0.279215,280.973,0.121667,
2,0,0,1,0,3675.79,0.111964,0.111681,-27.8995,3,0.0124728,10,-0.00311583,-1.5544,-0.527909,-0.111762,121.477,0.111681,
2,0,0,1,0,3675.84,0.101985,0.101691,-28.0209,3,0.0110681,10,-0.00284948,-1.55252,0.57971,0.101775,-111.114,0.101691,
2,0,0,1,0,3675.89,0.0919883,0.0917077,-25.804,3,0.00971397,10,-0.00236643,-1.58831,0.194144,0.303898,-305.663,0.0917077,
2,0,0,1,0,3675.94,0.0820004,0.0817215,-22.4396,3,0.00851018,10,-0.0018338,-1.64899,0.161873,0.364484,-319.439,0.0817215,
2,0,0,1,0,3675.99,0.0720215,0.071764,-19.7478,3,0.00746238,10,-0.00141718,-1.70448,0.201943,0.292161,-225.148,0.071764,
2,0,0,1,0,3676.04,0.0620245,0.0616989,-17.8327,3,0.00652517,10,-0.00110026,-1.74878,0.238355,0.247529,-172.493,0.06169891,
2,0,0,1,0,3676.09,0.0520275,0.0517006,-16.1846,3,0.00567476,10,-0.000836755,-1.7909,0.215229,0.274127,-172.835,0.0517006,
2,0,0,1,0,3676.14,0.0420486,0.0417352,-14.4577,3,0.00491073,10,-0.000603393,-1.8399,0.212274,0.277943,-157.2,0.0417352,
2,0,0,1,0,3676.19,0.0320607,0.0317336,-13.1195,3,0.00422505,10,-0.000416329,-1.88208,0.290431,0.203147,-103.896,0.0317336,
2,0,0,1,0,3676.24,0.0220637,0.0217552,-12.3289,3,0.00359161,10,-0.000268217,-1.90908,0.550902,0.107097,-51.6201,0.0217552,
2,0,0,1,0,3676.29,0.0120848,0.0117705,-12.0481,3,0.00298506,10,-0.000141812,-1.91908,1.43648,0.0410725,-19.2951,0.0117705,
2,0,0,1,0,3676.34,0.00210598,0.00178035,-12.0736,3,0.00238608,10,-2.14952e-05,-1.91816,-1.33874,-0.0440714,20.7114,0.00178035,
2,0,0,1,0,3676.39,-0.00789103,-0.00826045,-12.1713,3,0.00178049,10,0.00010054,-1.91466,-1.35996,-0.0433838,20.6104,-0.00826045,
2,0,0,1,0,3676.44,-0.017879,-0.0181974,-12.4394,3,0.00116677,10,0.000226365,-1.9052,-0.842234,-0.0700518,34.004,-0.0181974,
2,0,0,1,0,3676.49,-0.0278578,-0.0281885,-12.755,3,0.000538433,10,0.000359544,-1.89432,-0.838938,-0.070327,35.0128,-0.02818848,
2,0,0,1,0,3676.54,-0.0378548,-0.0381989,-13.1203,3,-0.000108394,10,0.000501182,-1.88206,-0.789612,-0.0747203,38.2651,-0.0381989,
2,0,0,1,0,3676.59,-0.0478519,-0.0481833,-13.5266,3,-0.000774486,10,0.000651755,-1.86881,-0.659808,-0.08942,47.171,-0.0481833,
2,0,0,1,0,3676.64,-0.0578126,-0.0581807,-13.9598,3,-0.00145889,10,0.000812193,-1.85512,-0.670874,-0.087945,47.9542,-0.0581807,
2,0,0,1,0,3676.69,-0.0678187,-0.0681808,-14.472,3,-0.00216945,10,0.000986715,-1.83947,-0.563955,-0.104618,59.0438,-0.0681808,
2,0,0,1,0,3676.74,-0.0778157,-0.0781817,-15.0691,3,-0.00290774,10,0.00117812,-1.82191,-0.553313,-0.10663,62.7836,-0.0781817,
2,0,0,1,0,3676.79,-0.0877945,-0.0881493,-15.8384,3,-0.00367825,10,0.00139614,-1.80029,-0.42797,-0.13786,85.1575,-0.0881493,
2,0,0,1,0,3676.84,-0.0977734,-0.0981375,-16.6951,3,-0.00448994,10,0.00163841,-1.77741,-0.395242,-0.149275,97.444,-0.0981375,
2,0,0,1,1,3676.88,-0.0936874,-0.0940831,-2.98184,3,-0.00495839,10,0.00028054,-2.52552,-0.00345191,-17.092,1428.91,-0.0940831,
2,1,0,1,1,3676.93,-0.0837086,-0.0841022,5.75177,3,-0.00485013,10,-0.000483736,-2.2402,0.0253497,2.32744,510.977,-0.0841022,
2,1,0,1,1,3676.98,-0.0737025,-0.0740467,9.12071,3,-0.00446512,10,-0.000675358,-2.03997,0.0998632,0.590808,208.889,-0.0740467,
2,1,0,1,1,3677.03,-0.0637236,-0.0640945,10.426,3,-0.00397266,10,-0.000668248,-1.98188,0.300077,0.196616,79.9601,-0.0640945,
2,1,0,1,1,3677.08,-0.0537447,-0.0540605,10.9836,3,-0.0034363,10,-0.000593779,-1.95926,0.812042,0.0726564,31.1107,-0.0540605,
2,1,0,1,1,3677.13,-0.0437477,-0.0440839,11.2,3,-0.00288071,10,-0.000493741,-1.95078,2.74155,0.0215207,9.40451,-0.0440839,
2,1,0,1,1,3677.18,-0.0337507,-0.0340891,11.2562,3,-0.00231866,10,-0.000383713,-1.94861,468.865,0.000125836,0.055282,-0.03408907,
2,1,0,1,1,3677.23,-0.0237809,-0.0240691,11.2207,3,-0.00175889,10,-0.000270072,-1.94998,-5.76401,-0.0102359,-4.47553,-0.0240691,
2,1,0,1,1,3677.28,-0.0137839,-0.0140795,11.1112,3,-0.00120055,10,-0.00015644,-1.95424,-1.606,-0.0367373,-15.9294,-0.0140795,
2,1,0,1,1,3677.33,-0.0037869,-0.00410461,10.9719,3,-0.00064835,10,-4.50356e-05,-1.95972,-1.861,-0.0317034,-13.5745,-0.00410461,
2,1,0,1,1,3677.35,-2.55332e-05,-0.000306236,10.8868,3,-0.000443735,10,-3.33393e-06,-1.9631, , , ,-0.000306236,