Folder: Figs_alphaMnO2_OER_Tafel_sleope/Figure_codes/Fig_3-5/rawdata_trumpetplot_data/before 10th (part 23)

File: 20221101_1-115_002_TrumpetPlot_ParaChange_08_CV_C01_5.csv
mode,ox/red,error,control changes,counter inc.,time/s,control/V,Ewe/V,<I>/mA,cycle number,(Q-Qo)/C,I Range,P/W,log(|I|),Tafel slope mV/dec,alpha_eff,dI/d(E-IR),E-IR/V,
2,0,0,0,0,7327.33,2.44065e-05,-0.000268062,-2.34257,6,0.0000000E+000,11,6.27953e-07,-2.63031, , , ,-0.000268062,
2,1,0,1,0,7327.51,0.00729063,0.00700642,1.61773,6,0.000167391,11,1.13345e-05,-2.79109,0.103749,0.568678,35.6117,0.00700642,
2,1,0,1,0,7327.7,0.014778,0.0144939,1.76998,6,0.000487461,11,2.56539e-05,-2.75203,0.255347,0.231058,15.9059,0.0144939,
2,1,0,1,0,7327.89,0.0222743,0.0219869,1.86733,6,0.000829279,11,4.10568e-05,-2.72878,0.318382,0.185312,13.5208,0.0219869,
2,1,0,1,0,7328.07,0.0297626,0.0294991,1.96412,6,0.00118826,11,5.79397e-05,-2.70683,0.353837,0.166743,12.7443,0.0294991,
2,1,0,1,0,7328.26,0.0372544,0.0369934,2.07425,6,0.00156641,11,7.67336e-05,-2.68314,0.293563,0.200979,16.2536,0.0369934,
2,1,0,1,0,7328.45,0.0447472,0.0444414,2.21061,6,0.00196867,11,9.82427e-05,-2.65549,0.223165,0.264379,22.9494,0.0444414,
2,1,0,1,0,7328.64,0.0522345,0.0519555,2.40364,6,0.00240164,11,0.000124882,-2.61913,0.188763,0.312561,29.2879,0.0519555,
2,1,0,1,0,7328.82,0.0597309,0.0594504,2.6261,6,0.00287322,11,0.000156122,-2.58069,0.183414,0.321677,32.943,0.0594504,
2,1,0,1,0,7329.01,0.0672182,0.0669264,2.86846,6,0.00338762,11,0.000191976,-2.54235,0.206766,0.285347,31.8967,0.06692645,
2,1,0,1,0,7329.2,0.0747074,0.0744344,3.10088,6,0.00394632,11,0.000230812,-2.50852,0.248479,0.237445,28.6186,0.0744344,
2,1,0,1,0,7329.39,0.0822019,0.0819114,3.30059,6,0.00454716,11,0.000270356,-2.48141,0.292743,0.201542,25.9909,0.0819114,
2,1,0,1,0,7329.57,0.0896911,0.0894318,3.49101,6,0.00518461,11,0.000312208,-2.45705,0.291953,0.202087,27.6003,0.0894318,
2,1,0,1,0,7329.76,0.097182,0.0968917,3.69724,6,0.00585898,11,0.000358232,-2.43212,0.283014,0.20847,30.037,0.0968917,
2,1,0,1,0,7329.95,0.104675,0.104399,3.95392,6,0.00657452,11,0.000412783,-2.40297,0.212072,0.278208,42.9835,0.1043986,
2,1,0,1,0,7330.13,0.112162,0.111837,4.33304,6,0.00734828,11,0.000484595,-2.36321,0.172607,0.341817,57.6864,0.111837,
2,1,0,1,0,7330.32,0.119655,0.119379,4.82166,6,0.00820413,11,0.000575606,-2.3168,0.168214,0.350743,65.9305,0.1193791,
2,1,0,1,0,7330.51,0.127146,0.126841,5.316,6,0.00915526,11,0.000674286,-2.27442,0.191443,0.308186,64.0661,0.126841,
2,1,0,1,0,7330.7,0.134635,0.134341,5.77022,6,0.0101961,11,0.000775179,-2.23881,0.259063,0.227744,51.233,0.134341,
2,1,0,1,0,7330.88,0.14213,0.141828,6.06342,6,0.0113093,11,0.000859963,-2.21728,0.533444,0.110602,26.1423,0.141828,
2,1,0,1,0,7331.07,0.149619,0.149347,6.03613,6,0.0124506,11,0.000901478,-2.21924,-0.358456,-0.164595,-38.6436,0.149347,
2,1,0,1,0,7331.26,0.157106,0.156811,5.4045,6,0.0135329,11,0.000847483,-2.26724,-0.0940336,-0.627435,-131.471,0.156811,
2,1,0,1,0,7331.45,0.164602,0.164339,4.25724,6,0.0144412,11,0.00069963,-2.37087,-0.0639576,-0.922486,-153.522,0.164339,
2,1,0,1,0,7331.63,0.172091,0.171844,3.31373,6,0.0151443,11,0.000569444,-2.47968,-0.0780661,-0.75577,-98.1954,0.171844,
2,1,0,1,0,7331.82,0.179582,0.179282,2.76239,6,0.01571,11,0.000495247,-2.55872,-0.112169,-0.525994,-56.8504,0.179282,
2,1,0,1,0,7332.01,0.187074,0.186795,2.42236,6,0.0161939,11,0.000452485,-2.61576,-0.160786,-0.366948,-34.7622,0.186795,
2,1,0,1,0,7332.19,0.194563,0.19427,2.21498,6,0.0166266,11,0.000430305,-2.65463,-0.225552,-0.261581,-22.5592,0.19427,
2,1,0,1,0,7332.38,0.202059,0.201798,2.07186,6,0.0170276,11,0.000418097,-2.68364,-0.310653,-0.189922,-15.3489,0.201798,
2,1,0,1,0,7332.57,0.209546,0.209292,1.97979,6,0.0174076,11,0.000414355,-2.70338,-0.338553,-0.174271,-13.5075,0.209292,
2,1,0,1,0,7332.76,0.217035,0.216799,1.91673,6,0.0177727,11,0.000415545,-2.71744,-0.555309,-0.106247,-7.93737,0.216799,
2,1,0,1,0,7332.94,0.22453,0.22422,1.86519,6,0.018128,11,0.000418213,-2.72928,-0.719802,-0.081967,-5.98931,0.22422,
2,1,0,1,0,7333.13,0.232019,0.231714,1.83378,6,0.0184747,11,0.000424911,-2.73665,-1.43496,-0.0411163,-2.93444,0.231714,
2,1,0,1,0,7333.32,0.23951,0.239262,1.7972,6,0.0188153,11,0.000430003,-2.7454,-1.1003,-0.0536215,-3.76084,0.239262,
2,1,0,1,0,7333.51,0.247003,0.246708,1.76888,6,0.0191503,11,0.000436396,-2.7523,-0.912016,-0.0646918,-4.47352,0.246708,
2,1,0,1,0,7333.69,0.25449,0.254255,1.74971,6,0.0194801,11,0.000444871,-2.75703,-1.01053,-0.0583851,-3.97258,0.254255,
2,1,0,1,0,7333.88,0.261983,0.261716,1.72179,6,0.0198058,11,0.000450619,-2.76402,-1.18442,-0.0498135,-3.35511,0.261716,
2,1,0,1,0,7334.07,0.269474,0.269188,1.70088,6,0.0201274,11,0.000457855,-2.76933,-2.01242,-0.0293179,-1.94953,0.269188,
2,1,0,1,0,7334.25,0.276963,0.276683,1.68636,6,0.0204452,11,0.000466587,-2.77305,-1.56005,-0.0378192,-2.48136,0.276683,
2,1,0,1,0,7334.44,0.284458,0.284163,1.6607,6,0.0207596,11,0.000471911,-2.77971,-1.82801,-0.0322756,-2.09846,0.2841633,
2,1,0,1,0,7334.63,0.291947,0.291665,1.64674,6,0.0210702,11,0.000480296,-2.78338,-1.12701,-0.0523508,-3.36188,0.291665,
2,1,0,1,0,7334.82,0.299434,0.299152,1.62542,6,0.0213774,11,0.000486248,-2.78903,-0.00783059,-7.53455,-354.428,0.299152,
2,0,0,1,0,7334.98,0.294196,0.293857,-0.574919,6,0.0213618,11,-0.000168944,-3.24039,-0.0458961,-1.28551,28.6264,0.293857,
2,0,0,1,0,7335.16,0.286701,0.286385,-0.738146,6,0.0212362,11,-0.000211394,-3.13186,-0.0972708,-0.606554,17.3586,0.286385,
2,0,0,1,0,7335.35,0.279212,0.278895,-0.846164,6,0.0210862,11,-0.000235991,-3.07255,-0.155416,-0.379627,12.565,0.278895,
2,0,0,1,0,7335.54,0.271725,0.271403,-0.927136,6,0.0209188,11,-0.000251627,-3.03286,-0.181456,-0.325148,11.8047,0.271403,
2,0,0,1,0,7335.72,0.264228,0.263963,-1.0031,6,0.0207371,11,-0.000264781,-2.99866,-0.287776,-0.205021,7.94778,0.263963,
2,0,0,1,0,7335.91,0.256741,0.256424,-1.05761,6,0.0205435,11,-0.000271197,-2.97567,-0.365032,-0.16163,6.69246,0.256424,
2,0,0,1,0,7336.1,0.249248,0.248912,-1.11631,6,0.0203388,11,-0.000277861,-2.95222,-0.373778,-0.157848,6.87195,0.2489115,
2,0,0,1,0,7336.29,0.241756,0.24141,-1.16306,6,0.020124,11,-0.000280775,-2.9344,-0.361181,-0.163353,7.44763,0.24141,
2,0,0,1,0,7336.47,0.234268,0.233939,-1.21724,6,0.0198994,11,-0.00028476,-2.91462,-0.32812,-0.179812,8.62594,0.233939,
2,0,0,1,0,7336.66,0.226772,0.226487,-1.2818,6,0.0196644,11,-0.000290311,-2.89218,-0.338287,-0.174408,8.65322,0.226487,
2,0,0,1,0,7336.85,0.219284,0.218942,-1.33911,6,0.0194193,11,-0.000293187,-2.87318,-0.332986,-0.177184,9.23091,0.218942,
2,0,0,1,0,7337.04,0.211796,0.211487,-1.39461,6,0.0191629,11,-0.000294941,-2.85555,-0.452508,-0.130384,7.10089,0.211487,
2,0,0,1,0,7337.22,0.204301,0.203942,-1.47567,6,0.0188934,11,-0.000300951,-2.83101,-0.425409,-0.13869,7.95343,0.203942,
2,0,0,1,0,7337.41,0.196812,0.196489,-1.55209,6,0.0186095,11,-0.000304969,-2.80908,-0.261725,-0.225427,13.7573,0.196489,
2,0,0,1,0,7337.6,0.189321,0.189022,-1.671,6,0.0183066,11,-0.000315855,-2.77702,-0.22806,-0.258704,16.9022,0.189022,
2,0,0,1,0,7337.78,0.181828,0.181531,-1.83048,6,0.0179792,11,-0.00033229,-2.73743,-0.169365,-0.34836,24.804,0.1815313,
2,0,0,1,0,7337.97,0.174341,0.174026,-2.04149,6,0.0176173,11,-0.000355272,-2.69005,-0.130479,-0.452179,36.2158,0.174026,
2,0,0,1,0,7338.16,0.166848,0.166537,-2.3779,6,0.0172046,11,-0.000396007,-2.62381,-0.10325,-0.571426,52.8992,0.166537,
2,0,0,1,0,7338.35,0.159357,0.159095,-2.88644,6,0.0167145,11,-0.000459217,-2.53964,-0.079856,-0.738829,83.3463,0.159095,
2,0,0,1,0,7338.53,0.151868,0.151565,-3.63619,6,0.0161061,11,-0.00055112,-2.43935,-0.0726715,-0.811872,115.666,0.151565,
2,0,0,1,0,7338.72,0.144373,0.144108,-4.57449,6,0.0153369,11,-0.000659218,-2.33966,-0.0840644,-0.701843,124.936,0.144108,
2,0,0,1,0,7338.91,0.136884,0.136598,-5.43965,6,0.0143956,11,-0.000743046,-2.26443,-0.12419,-0.47508,100.701,0.136598,
2,0,0,1,0,7339.1,0.129393,0.129093,-6.01549,6,0.013316,11,-0.000776554,-2.22073,-0.263113,-0.224238,52.5133,0.129093,
2,0,0,1,0,7339.28,0.1219,0.121622,-6.18712,6,0.0121661,11,-0.000752493,-2.20851,1.90248,0.0310122,-7.46078,0.121622,
2,0,0,1,0,7339.47,0.114413,0.114113,-5.96953,6,0.0110222,11,-0.0006812,-2.22406,0.256866,0.229692,-53.4829,0.114113,
2,0,0,1,0,7339.66,0.10692,0.106614,-5.48103,6,0.00994592,11,-0.000584356,-2.26114,0.161516,0.365289,-78.1071,0.106614,
2,0,0,1,0,7339.84,0.0994284,0.0991143,-4.92391,6,0.00897122,11,-0.00048803,-2.30769,0.16808,0.351023,-67.5162,0.0991143,
2,0,0,1,0,7340.03,0.0919401,0.0916202,-4.49415,6,0.00809147,11,-0.000411754,-2.34735,0.22828,0.258455,-45.4288,0.0916202,
2,0,0,1,0,7340.22,0.0844447,0.0841323,-4.22717,6,0.00727556,11,-0.000355641,-2.37395,0.336071,0.175558,-28.9142,0.0841323,
2,0,0,1,0,7340.41,0.0769565,0.0766129,-4.02971,6,0.00650341,11,-0.000308728,-2.39473,0.360457,0.163681,-25.7374,0.0766129,
2,0,0,1,0,7340.59,0.0694682,0.0692036,-3.85094,6,0.00576462,11,-0.000266499,-2.41443,0.348293,0.169398,-25.4795,0.0692036,
2,0,0,1,0,7340.78,0.0619728,0.0616604,-3.65448,6,0.00505977,11,-0.000225337,-2.43717,0.277792,0.212389,-30.2594,0.0616604,
2,0,0,1,0,7340.97,0.0544836,0.0541995,-3.41828,6,0.00439635,11,-0.000185269,-2.46619,0.267236,0.220778,-29.4853,0.0541995,
2,0,0,1,0,7341.16,0.0469927,0.0466474,-3.17467,6,0.00377808,11,-0.00014809,-2.4983,0.241456,0.244351,-30.2433,0.0466474,
2,0,0,1,0,7341.34,0.0394999,0.0391839,-2.97342,6,0.00320332,11,-0.00011651,-2.52674,0.302243,0.195207,-22.586,0.0391839,
2,0,0,1,0,7341.53,0.0320125,0.0317155,-2.81743,6,0.00266188,11,-8.9356e-05,-2.55015,0.405618,0.145457,-16.0416,0.0317155,
2,0,0,1,0,7341.72,0.0245198,0.0242236,-2.73513,6,0.00214145,11,-6.62547e-05,-2.56302,0.699628,0.0843305,-9.00411,0.0242236,
2,0,0,1,0,7341.9,0.0170289,0.0166902,-2.69838,6,0.00163219,11,-4.50364e-05,-2.5689,2.9254,0.0201682,-2.13007,0.01669017,
2,0,0,1,0,7342.09,0.0095397,0.00924288,-2.70292,6,0.00112581,11,-2.49828e-05,-2.56817,-1.17188,-0.0503464,5.31569,0.00924288,
2,0,0,1,0,7342.28,0.00204518,0.00165976,-2.80137,6,0.00061557,11,-4.6496e-06,-2.55263,-0.680504,-0.0867004,9.25183,0.00165976,
2,0,0,1,0,7342.33,0.000177222,-0.00014743,-2.75233,6,0.00048597,11,4.05775e-07,-2.5603, , , ,-0.00014743,

File: 20221101_1-115_002_TrumpetPlot_ParaChange_08_CV_C01_6.csv
mode,ox/red,error,control changes,counter inc.,time/s,control/V,Ewe/V,<I>/mA,cycle number,(Q-Qo)/C,I Range,P/W,log(|I|),Tafel slope mV/dec,alpha_eff,dI/d(E-IR),E-IR/V,
2,0,0,0,0,8558.96,2.44065e-05,-0.000248974,-2.46084,7,0.0000000E+000,11,6.12686e-07,-2.60892, , , ,-0.000248974,
2,1,0,1,0,8559.14,0.00729063,0.006972,1.54572,7,0.000147252,11,1.07767e-05,-2.81087,0.0788252,0.748491,44.3974,0.006972,
2,1,0,1,0,8559.33,0.014778,0.0145277,1.72515,7,0.000456366,11,2.50624e-05,-2.76317,0.212213,0.278022,18.655,0.0145277,
2,1,0,1,0,8559.52,0.0222743,0.0219961,1.83448,7,0.000791372,11,4.03514e-05,-2.73649,0.294637,0.200247,14.3912,0.0219961,
2,1,0,1,0,8559.7,0.0297626,0.0294655,1.95104,7,0.00114635,11,5.74885e-05,-2.70973,0.293966,0.200703,15.2578,0.0294655,
2,1,0,1,0,8559.89,0.0372544,0.036984,2.07632,7,0.00152361,11,7.67905e-05,-2.68271,0.260742,0.226277,18.35,0.036984,
2,1,0,1,0,8560.08,0.0447472,0.0444796,2.23405,7,0.00192809,11,9.93694e-05,-2.65091,0.217785,0.27091,23.7023,0.0444796,
2,1,0,1,0,8560.27,0.0522345,0.051949,2.43482,7,0.0023655,11,0.000126487,-2.61353,0.195578,0.30167,28.6145,0.051949,
2,1,0,1,0,8560.45,0.0597309,0.0594066,2.65636,7,0.00284309,11,0.000157805,-2.57571,0.199262,0.296093,30.6854,0.0594066,
2,1,0,1,0,8560.64,0.0672182,0.0669367,2.89543,7,0.00336304,11,0.000193811,-2.53829,0.211771,0.278603,31.4208,0.0669367,
2,1,0,1,0,8560.83,0.0747074,0.0744257,3.11252,7,0.00392558,11,0.000231651,-2.50689,0.268064,0.220097,26.6348,0.0744257,
2,1,0,1,0,8561.01,0.0822019,0.0818764,3.30108,7,0.0045279,11,0.000270281,-2.48134,0.316208,0.186586,24.0979,0.0818764,
2,1,0,1,0,8561.2,0.0896911,0.0893738,3.48609,7,0.00516458,11,0.000311565,-2.45766,0.30786,0.191646,26.1019,0.08937382,
2,1,0,1,0,8561.39,0.097182,0.0968557,3.68057,7,0.00583679,11,0.000356485,-2.43408,0.278187,0.212088,30.4628,0.0968557,
2,1,0,1,0,8561.58,0.104675,0.104409,3.93995,7,0.00654968,11,0.000411366,-2.40451,0.213587,0.276233,42.5382,0.104409,
2,1,0,1,0,8561.76,0.112162,0.111893,4.31127,7,0.00732081,11,0.0004824,-2.3654,0.178515,0.330505,55.5378,0.111893,
2,1,0,1,0,8561.95,0.119655,0.119365,4.77136,7,0.00817083,11,0.000569532,-2.32136,0.183277,0.321918,59.8555,0.119365,
2,1,0,1,0,8562.14,0.127146,0.126856,5.20161,7,0.00910695,11,0.000659857,-2.28386,0.213026,0.276961,56.314,0.126856,
2,1,0,1,0,8562.33,0.134635,0.134377,5.58859,7,0.0101202,11,0.000750976,-2.2527,0.308355,0.191338,41.7028,0.1343766,
2,1,0,1,0,8562.51,0.14213,0.141883,5.83481,7,0.0111948,11,0.000827858,-2.23397,0.629514,0.093723,21.3225,0.141883,
2,1,0,1,0,8562.7,0.149619,0.149299,5.77354,7,0.0122899,11,0.000861986,-2.23856,-0.309513,-0.190622,-42.8116,0.149299,
2,1,0,1,0,8562.89,0.157106,0.156855,5.12629,7,0.0133209,11,0.000804084,-2.2902,-0.0910184,-0.648221,-128.838,0.156855,
2,1,0,1,0,8563.07,0.164602,0.16432,4.03637,7,0.014181,11,0.000663257,-2.39401,-0.0665242,-0.886895,-140.012,0.16432,
2,1,0,1,0,8563.26,0.172091,0.171839,3.18693,7,0.014852,11,0.000547639,-2.49663,-0.0855613,-0.689564,-86.1284,0.171839,
2,1,0,1,0,8563.45,0.179582,0.179288,2.68693,7,0.0153994,11,0.000481733,-2.57074,-0.121097,-0.487212,-51.2621,0.179288,
2,1,0,1,0,8563.64,0.187074,0.186795,2.37575,7,0.0158724,11,0.000443779,-2.6242,-0.178818,-0.329945,-30.6767,0.186795,
2,1,0,1,0,8563.82,0.194563,0.194278,2.19095,7,0.0162992,11,0.000425652,-2.65937,-0.240949,-0.244865,-20.8738,0.194278,
2,1,0,1,0,8564.01,0.202059,0.20178,2.06448,7,0.0166972,11,0.000416571,-2.68519,-0.338028,-0.174542,-14.0374,0.20178,
2,1,0,1,0,8564.2,0.209546,0.209306,1.97707,7,0.017076,11,0.000413813,-2.70398,-0.401109,-0.147092,-11.3718,0.2093059,
2,1,0,1,0,8564.39,0.217035,0.216734,1.91705,7,0.0174413,11,0.000415491,-2.71737,-0.579147,-0.101874,-7.61988,0.216734,
2,1,0,1,0,8564.57,0.22453,0.224249,1.86858,7,0.0177972,11,0.000419028,-2.72849,-0.779426,-0.0756967,-5.54012,0.224249,
2,1,0,1,0,8564.76,0.232019,0.231789,1.83697,7,0.0181449,11,0.000425789,-2.7359,-1.26525,-0.0466313,-3.3394,0.231789,
2,1,0,1,0,8564.95,0.23951,0.239235,1.80439,7,0.0184866,11,0.000431673,-2.74367,-1.23918,-0.0476122,-3.34806,0.2392347,
2,1,0,1,0,8565.13,0.247003,0.246721,1.77775,7,0.0188228,11,0.000438609,-2.75013,-0.730718,-0.0807425,-5.60534,0.246721,
2,1,0,1,0,8565.32,0.25449,0.254204,1.75389,7,0.0191539,11,0.000445844,-2.756,-1.17308,-0.0502948,-3.43634,0.254204,
2,1,0,1,0,8565.51,0.261983,0.261767,1.72993,7,0.0194807,11,0.000452837,-2.76197,-1.42699,-0.0413457,-2.79545,0.261767,
2,1,0,1,0,8565.7,0.269474,0.269219,1.70649,7,0.0198035,11,0.00045942,-2.7679,-3.79994,-0.0155266,-1.03663,0.2692191,
2,1,0,1,0,8565.88,0.276963,0.276672,1.69259,7,0.0201224,11,0.000468294,-2.77145,-1.2647,-0.0466514,-3.07073,0.276672,
2,1,0,1,0,8566.07,0.284458,0.284209,1.66684,7,0.0204379,11,0.000473729,-2.77811,-2.32697,-0.0253549,-1.65415,0.284209,
2,1,0,1,0,8566.26,0.291947,0.291663,1.6494,7,0.0207496,11,0.000481069,-2.78267,-0.858511,-0.0687237,-4.42525,0.291663,
2,1,0,1,0,8566.45,0.299434,0.299141,1.63398,7,0.0210577,11,0.000488788,-2.78675,-0.00878364,-6.71703,-324.687,0.299141,
2,0,0,1,0,8566.6,0.294196,0.293892,-0.523975,7,0.0210519,11,-0.000153992,-3.28069,-0.0357247,-1.65152,33.3209,0.293892,
2,0,0,1,0,8566.79,0.286701,0.286421,-0.705193,7,0.020934,11,-0.000201982,-3.15169,-0.0890654,-0.662434,18.0644,0.286421,
2,0,0,1,0,8566.98,0.279212,0.278919,-0.816307,7,0.0207901,11,-0.000227683,-3.08815,-0.156492,-0.377017,12.0371,0.278919,
2,0,0,1,0,8567.17,0.271725,0.271417,-0.899895,7,0.0206281,11,-0.000244246,-3.04581,-0.166973,-0.353351,12.4481,0.271417,
2,0,0,1,0,8567.35,0.264228,0.263907,-0.978005,7,0.0204512,11,-0.000258102,-3.00966,-0.241332,-0.244476,9.2537,0.263907,
2,0,0,1,0,8567.54,0.256741,0.256433,-1.03396,7,0.0202622,11,-0.000265141,-2.9855,-0.336396,-0.175389,7.10356,0.256433,
2,0,0,1,0,8567.73,0.249248,0.248942,-1.0948,7,0.0200619,11,-0.000272541,-2.96067,-0.468335,-0.125978,5.37398,0.248942,
2,0,0,1,0,8567.92,0.241756,0.24145,-1.14099,7,0.0198513,11,-0.000275491,-2.94272,-0.381859,-0.154507,6.90853,0.24145,
2,0,0,1,0,8568.1,0.234268,0.233957,-1.19441,7,0.019631,11,-0.000279441,-2.92285,-0.422106,-0.139775,6.57669,0.233957,
2,0,0,1,0,8568.29,0.226772,0.226439,-1.25738,7,0.0194004,11,-0.000284719,-2.90053,-0.28895,-0.204187,9.95311,0.226439,
2,0,0,1,0,8568.48,0.219284,0.218956,-1.31055,7,0.0191599,11,-0.000286952,-2.88255,-0.38782,-0.152132,7.76142,0.218956,
2,0,0,1,0,8568.66,0.211796,0.211496,-1.36786,7,0.0189087,11,-0.000289298,-2.86396,-0.470385,-0.125429,6.7045,0.211496,
2,0,0,1,0,8568.85,0.204301,0.20399,-1.44383,7,0.0186448,11,-0.000294527,-2.84048,-0.481408,-0.122557,6.86708,0.20399,
2,0,0,1,0,8569.04,0.196812,0.196499,-1.5103,7,0.0183677,11,-0.000296773,-2.82094,-0.286607,-0.205857,12.2339,0.196499,
2,0,0,1,0,8569.23,0.189321,0.189021,-1.62166,7,0.0180731,11,-0.000306527,-2.79004,-0.245064,-0.240754,15.2618,0.189021,
2,0,0,1,0,8569.41,0.181828,0.181544,-1.76554,7,0.0177565,11,-0.000320524,-2.75312,-0.177365,-0.332646,22.7766,0.181544,
2,0,0,1,0,8569.6,0.174341,0.174044,-1.94848,7,0.0174094,11,-0.000339121,-2.7103,-0.145202,-0.40633,31.0734,0.174044,
2,0,0,1,0,8569.79,0.166848,0.16654,-2.24888,7,0.0170176,11,-0.000374528,-2.64803,-0.11068,-0.533069,46.6471,0.16654,
2,0,0,1,0,8569.98,0.159357,0.159042,-2.69089,7,0.016558,11,-0.000427964,-2.5701,-0.0860771,-0.685432,71.9959,0.159042,
2,0,0,1,0,8570.16,0.151868,0.151579,-3.35804,7,0.0159943,11,-0.000509007,-2.47391,-0.0729817,-0.808422,106.399,0.151579,
2,0,0,1,0,8570.35,0.144373,0.144043,-4.23159,7,0.0152833,11,-0.000609531,-2.3735,-0.0797936,-0.739408,122.029,0.144043,
2,0,0,1,0,8570.54,0.136884,0.136581,-5.09079,7,0.0144077,11,-0.000695306,-2.29322,-0.114149,-0.51687,102.357,0.136581,
2,0,0,1,0,8570.72,0.129393,0.129098,-5.6884,7,0.0133921,11,-0.000734362,-2.24501,-0.225438,-0.261713,57.9786,0.129098,
2,0,0,1,0,8570.91,0.1219,0.121604,-5.94382,7,0.0122969,11,-0.000722794,-2.22593,-2.4474,-0.0241072,5.56454,0.1216043,
2,0,0,1,0,8571.1,0.114413,0.114065,-5.82717,7,0.0111902,11,-0.000664675,-2.23454,0.374134,0.157697,-35.8385,0.1140648,
2,0,0,1,0,8571.29,0.10692,0.106607,-5.45489,7,0.0101293,11,-0.000581527,-2.26321,0.207036,0.284974,-60.6687,0.106607,
2,0,0,1,0,8571.47,0.0994284,0.0991082,-4.97602,7,0.00915099,11,-0.000493164,-2.30312,0.184906,0.31908,-61.9489,0.0991082,
2,0,0,1,0,8571.66,0.0919401,0.0916311,-4.55137,7,0.00826053,11,-0.000417047,-2.34186,0.233613,0.252554,-44.9805,0.0916311,
2,0,0,1,0,8571.85,0.0844447,0.0841078,-4.27797,7,0.0074346,11,-0.000359811,-2.36876,0.343307,0.171858,-28.65,0.0841078,
2,0,0,1,0,8572.04,0.0769565,0.0766559,-4.07768,7,0.00665328,11,-0.000312578,-2.38959,0.38286,0.154104,-24.5272,0.07665588,
2,0,0,1,0,8572.22,0.0694682,0.069159,-3.90846,7,0.00590481,11,-0.000270305,-2.40799,0.383961,0.153661,-23.4736,0.069159,
2,0,0,1,0,8572.41,0.0619728,0.0616706,-3.73519,7,0.00518716,11,-0.000230351,-2.42769,0.322102,0.183172,-26.6679,0.0616706,
2,0,0,1,0,8572.6,0.0544836,0.0541558,-3.5218,7,0.00450693,11,-0.000190726,-2.45324,0.290352,0.203202,-27.918,0.0541558,
2,0,0,1,0,8572.78,0.0469927,0.0466804,-3.28181,7,0.00386879,11,-0.000153196,-2.48389,0.246208,0.239635,-30.7192,0.0466804,
2,0,0,1,0,8572.97,0.0394999,0.0391583,-3.06948,7,0.00327475,11,-0.000120196,-2.51293,0.268786,0.219505,-26.1999,0.0391583,
2,0,0,1,0,8573.16,0.0320125,0.031662,-2.88867,7,0.00271811,11,-9.14609e-05,-2.5393,0.333039,0.177156,-20.0107,0.031662,
2,0,0,1,0,8573.35,0.0245198,0.0242081,-2.77967,7,0.00218707,11,-6.72906e-05,-2.55601,0.569158,0.103662,-11.2551,0.0242081,
2,0,0,1,0,8573.53,0.0170289,0.0166726,-2.727,7,0.00167125,11,-4.54663e-05,-2.56431,1.74687,0.0337747,-3.59764,0.0166726,
2,0,0,1,0,8573.72,0.0095397,0.00923095,-2.70933,7,0.00116173,11,-2.50097e-05,-2.56714,-3.07005,-0.0192179,2.037,0.00923095,
2,0,0,1,0,8573.91,0.00204518,0.00168396,-2.79187,7,0.000650788,11,-4.7014e-06,-2.5541,-0.738772,-0.0798623,8.52839,0.00168396,
2,0,0,1,0,8573.95,0.000177222,-0.00018904,-2.75307,7,0.000521352,11,5.20441e-07,-2.56018, , , ,-0.00018904,