Folder: Figs_alphaMnO2_OER_Tafel_sleope/Figure_codes/Fig_3-5/rawdata_trumpetplot_data/before 10th (part 24)

File: 20221101_1-115_002_TrumpetPlot_ParaChange_08_CV_C01_7.csv
mode,ox/red,error,control changes,counter inc.,time/s,control/V,Ewe/V,<I>/mA,cycle number,(Q-Qo)/C,I Range,P/W,log(|I|),Tafel slope mV/dec,alpha_eff,dI/d(E-IR),E-IR/V,
2,0,0,0,0,9790.59,2.44065e-05,-0.000382585,-2.40514,8,0.0000000E+000,11,9.20172e-07,-2.61886, , , ,-0.000382585,
2,1,0,1,0,9790.77,0.00729063,0.00699313,1.60685,8,0.000157954,11,1.12369e-05,-2.79403,0.0847458,0.6962,43.0151,0.00699313,
2,1,0,1,0,9790.96,0.014778,0.0145304,1.77684,8,0.000477783,11,2.58182e-05,-2.75035,0.21967,0.268585,18.5722,0.0145304,
2,1,0,1,0,9791.14,0.0222743,0.021962,1.88674,8,0.000822406,11,4.14366e-05,-2.72429,0.291962,0.202081,14.9182,0.021962,
2,1,0,1,0,9791.33,0.0297626,0.029488,2.00922,8,0.00118769,11,5.92479e-05,-2.69697,0.289014,0.204143,15.9753,0.029488,
2,1,0,1,0,9791.52,0.0372544,0.0369497,2.14707,8,0.00157699,11,7.93335e-05,-2.66815,0.252211,0.233931,19.5785,0.0369497,
2,1,0,1,0,9791.71,0.0447472,0.0444532,2.31182,8,0.00199539,11,0.000102768,-2.63605,0.223449,0.264043,23.9352,0.0444532,
2,1,0,1,0,9791.89,0.0522345,0.0519441,2.51854,8,0.00244857,11,0.000130823,-2.59885,0.189548,0.311267,30.6,0.0519441,
2,1,0,1,0,9792.08,0.0597309,0.0594527,2.74529,8,0.00294254,11,0.000163215,-2.56141,0.19588,0.301205,32.2112,0.0594527,
2,1,0,1,0,9792.27,0.0672182,0.0668932,2.96933,8,0.00347816,11,0.000198628,-2.52734,0.230467,0.256001,29.6754,0.06689322,
2,1,0,1,0,9792.46,0.0747074,0.0744269,3.18164,8,0.00405449,11,0.0002368,-2.49735,0.294052,0.200644,24.8129,0.0744269,
2,1,0,1,0,9792.64,0.0822019,0.081919,3.36682,8,0.00466883,11,0.000275807,-2.47278,0.328986,0.179339,23.5703,0.081919,
2,1,0,1,0,9792.83,0.0896911,0.0893636,3.54164,8,0.00531635,11,0.000316493,-2.4508,0.330483,0.178527,24.7259,0.0893636,
2,1,0,1,0,9793.02,0.097182,0.0968879,3.74304,8,0.00599921,11,0.000362655,-2.42678,0.276375,0.213478,31.1446,0.0968879,
2,1,0,1,0,9793.2,0.104675,0.104363,4.01668,8,0.00672493,11,0.000419195,-2.39613,0.204761,0.28814,45.2148,0.104363,
2,1,0,1,0,9793.39,0.112162,0.111845,4.40148,8,0.00751208,11,0.000492283,-2.3564,0.182495,0.323297,55.4828,0.1118447,
2,1,0,1,0,9793.58,0.119655,0.119356,4.85049,8,0.00837845,11,0.000578936,-2.31421,0.199281,0.296065,55.9445,0.119356,
2,1,0,1,0,9793.77,0.127146,0.126821,5.24368,8,0.00932608,11,0.000665007,-2.28036,0.240394,0.245431,50.3373,0.126821,
2,1,0,1,0,9793.95,0.134635,0.13433,5.59389,8,0.0103438,11,0.000751426,-2.25229,0.346513,0.170268,37.1714,0.13433,
2,1,0,1,0,9794.14,0.14213,0.141867,5.80343,8,0.0114159,11,0.000823314,-2.23632,0.925033,0.0637815,14.411,0.141867,
2,1,0,1,0,9794.33,0.149619,0.149332,5.66437,8,0.0124985,11,0.00084587,-2.24685,-0.23022,-0.256277,-56.4664,0.149332,
2,1,0,1,0,9794.52,0.157106,0.156834,4.92104,8,0.0134993,11,0.000771785,-2.30794,-0.0818105,-0.721179,-137.567,0.156834,
2,1,0,1,0,9794.7,0.164602,0.164295,3.83003,8,0.0143182,11,0.000629255,-2.4168,-0.0666556,-0.885147,-132.571,0.164295,
2,1,0,1,0,9794.89,0.172091,0.171806,3.04155,8,0.0149568,11,0.000522557,-2.51691,-0.0876323,-0.673268,-80.4188,0.171806,
2,1,0,1,0,9795.08,0.179582,0.179306,2.58673,8,0.0154814,11,0.000463815,-2.58725,-0.124917,-0.472314,-47.7341,0.179306,
2,1,0,1,0,9795.26,0.187074,0.186752,2.30198,8,0.0159377,11,0.000429898,-2.6379,-0.198985,-0.296504,-26.6952,0.186752,
2,1,0,1,0,9795.45,0.194563,0.194278,2.13423,8,0.0163524,11,0.000414633,-2.67076,-0.26631,-0.221546,-18.4631,0.194278,
2,1,0,1,0,9795.64,0.202059,0.201764,2.02552,8,0.0167416,11,0.000408677,-2.69346,-0.357073,-0.165233,-13.0103,0.201764,
2,1,0,1,0,9795.83,0.209546,0.209273,1.94461,8,0.0171139,11,0.000406954,-2.71117,-0.401024,-0.147123,-11.2231,0.209273,
2,1,0,1,0,9796.01,0.217035,0.216812,1.89094,8,0.017474,11,0.000409977,-2.72332,-0.817177,-0.0721997,-5.34176,0.216812,
2,1,0,1,0,9796.2,0.22453,0.224286,1.85283,8,0.0178259,11,0.000415562,-2.73217,-0.736077,-0.0801547,-5.79677,0.224286,
2,1,0,1,0,9796.39,0.232019,0.231723,1.81486,8,0.0181703,11,0.000420544,-2.74116,-1.40384,-0.0420275,-2.98715,0.231723,
2,1,0,1,0,9796.58,0.23951,0.239207,1.79586,8,0.0185091,11,0.000429583,-2.74573,-1.16542,-0.0506256,-3.53223,0.239207,
2,1,0,1,0,9796.76,0.247003,0.246731,1.76788,8,0.0188429,11,0.00043619,-2.75255,-0.971259,-0.0607459,-4.18072,0.246731,
2,1,0,1,0,9796.95,0.25449,0.25421,1.74044,8,0.0191721,11,0.000442437,-2.75934,-1.54617,-0.0381587,-2.59758,0.25421,
2,1,0,1,0,9797.14,0.261983,0.26168,1.72456,8,0.0194972,11,0.000451282,-2.76332,-1.54203,-0.0382613,-2.56485,0.26168,
2,1,0,1,0,9797.32,0.269474,0.269207,1.69507,8,0.0198184,11,0.000456325,-2.77081,-6.23475,-0.00946308,-0.629023,0.269207,
2,1,0,1,0,9797.51,0.276963,0.276656,1.68105,8,0.020136,11,0.000465074,-2.77442,-1.38516,-0.0425943,-2.79811,0.276656,
2,1,0,1,0,9797.7,0.284458,0.284217,1.6675,8,0.0204503,11,0.000473931,-2.77793,-2.24479,-0.026283,-1.70171,0.284217,
2,1,0,1,0,9797.89,0.291947,0.291668,1.64366,8,0.0207608,11,0.000479404,-2.78419,-1.05967,-0.0556775,-3.57965,0.291668,
2,1,0,1,0,9798.07,0.299434,0.299137,1.62354,8,0.0210679,11,0.000485659,-2.78954,-0.00864381,-6.82569,-326.743,0.299137,
2,0,0,1,0,9798.23,0.294196,0.293897,-0.572402,8,0.0210555,11,-0.000168227,-3.2423,-0.0431212,-1.36824,29.9931,0.293897,
2,0,0,1,0,9798.42,0.286701,0.286381,-0.728137,8,0.0209308,11,-0.000208525,-3.13779,-0.0994343,-0.593357,17.0767,0.286381,
2,0,0,1,0,9798.61,0.279212,0.27892,-0.845646,8,0.0207817,11,-0.000235868,-3.07281,-0.167211,-0.352847,11.5696,0.27892,
2,0,0,1,0,9798.79,0.271725,0.27142,-0.923999,8,0.0206151,11,-0.000250792,-3.03433,-0.182739,-0.322866,11.6657,0.27142,
2,0,0,1,0,9798.98,0.264228,0.263935,-0.993589,8,0.020434,11,-0.000262243,-3.00279,-0.269305,-0.219083,8.50019,0.263935,
2,0,0,1,0,9799.17,0.256741,0.256471,-1.05827,8,0.0202412,11,-0.000271416,-2.9754,-0.344539,-0.171243,7.02464,0.256471,
2,0,0,1,0,9799.36,0.249248,0.248931,-1.10897,8,0.0200374,11,-0.000276056,-2.95508,-0.406356,-0.145193,6.31041,0.248931,
2,0,0,1,0,9799.54,0.241756,0.241461,-1.15761,8,0.0198235,11,-0.000279516,-2.93644,-0.362706,-0.162666,7.39592,0.241461,
2,0,0,1,0,9799.73,0.234268,0.233924,-1.21438,8,0.0196002,11,-0.000284074,-2.91564,-0.364908,-0.161685,7.66966,0.233924,
2,0,0,1,0,9799.92,0.226772,0.226472,-1.2659,8,0.0193669,11,-0.000286689,-2.8976,-0.328147,-0.179797,8.89775,0.226472,
2,0,0,1,0,9800.11,0.219284,0.21894,-1.32638,8,0.0191241,11,-0.000290398,-2.87733,-0.388251,-0.151963,7.81562,0.21894,
2,0,0,1,0,9800.29,0.211796,0.211483,-1.37742,8,0.0188708,11,-0.000291301,-2.86093,-0.438755,-0.134471,7.20172,0.211483,
2,0,0,1,0,9800.48,0.204301,0.20397,-1.44321,8,0.0186056,11,-0.00029437,-2.84067,-0.464101,-0.127127,7.19429,0.20397,
2,0,0,1,0,9800.67,0.196812,0.196451,-1.51933,8,0.0183276,11,-0.000298473,-2.81835,-0.301722,-0.195545,11.5895,0.196451,
2,0,0,1,0,9800.85,0.189321,0.188999,-1.615,8,0.0180332,11,-0.000305232,-2.79183,-0.265227,-0.222451,14.0686,0.188999,
2,0,0,1,0,9801.04,0.181828,0.181509,-1.74855,8,0.017718,11,-0.000317378,-2.75732,-0.18717,-0.315222,21.5025,0.181509,
2,0,0,1,0,9801.23,0.174341,0.174019,-1.93318,8,0.0173742,11,-0.000336409,-2.71373,-0.152622,-0.386577,29.0895,0.174019,
2,0,0,1,0,9801.42,0.166848,0.166507,-2.19845,8,0.0169887,11,-0.000366058,-2.65788,-0.118315,-0.49867,42.8504,0.166507,
2,0,0,1,0,9801.6,0.159357,0.159038,-2.6154,8,0.0165398,11,-0.000415948,-2.58246,-0.0872095,-0.676532,69.2122,0.159038,
2,0,0,1,0,9801.79,0.151868,0.151534,-3.25962,8,0.0159928,11,-0.000493942,-2.48683,-0.0746908,-0.789924,100.56,0.151534,
2,0,0,1,0,9801.98,0.144373,0.14406,-4.10807,8,0.0153034,11,-0.00059181,-2.38636,-0.076823,-0.767999,123.344,0.14406,
2,0,0,1,0,9802.17,0.136884,0.136576,-4.99338,8,0.0144485,11,-0.000681974,-2.30161,-0.107136,-0.550701,106.979,0.136576,
2,0,0,1,0,9802.35,0.129393,0.129042,-5.63746,8,0.0134473,11,-0.000727469,-2.24892,-0.203156,-0.290417,63.6766,0.129042,
2,0,0,1,0,9802.54,0.1219,0.121597,-5.91382,8,0.0123591,11,-0.000719102,-2.22813,-1.3264,-0.0444812,10.2441,0.121597,
2,0,0,1,0,9802.73,0.114413,0.114063,-5.83925,8,0.0112536,11,-0.00066604,-2.23364,0.426869,0.138216,-31.4195,0.114063,
2,0,0,1,0,9802.91,0.10692,0.106608,-5.48914,8,0.0101888,11,-0.000585187,-2.2605,0.214204,0.275438,-59.0318,0.106608,
2,0,0,1,0,9803.1,0.0994284,0.0991361,-5.02077,8,0.00920201,11,-0.000497739,-2.29923,0.182523,0.323247,-63.4225,0.0991361,
2,0,0,1,0,9803.29,0.0919401,0.0915987,-4.5954,8,0.00830317,11,-0.000420932,-2.33768,0.220302,0.267814,-48.0208,0.09159869,
2,0,0,1,0,9803.48,0.0844447,0.084109,-4.29237,8,0.00747175,11,-0.000361027,-2.3673,0.317063,0.186083,-31.2157,0.084109,
2,0,0,1,0,9803.66,0.0769565,0.0766174,-4.09619,8,0.00668705,11,-0.000313839,-2.38762,0.397437,0.148451,-23.7254,0.0766174,
2,0,0,1,0,9803.85,0.0694682,0.0691222,-3.93313,8,0.00593522,11,-0.000271867,-2.40526,0.417366,0.141363,-21.6749,0.06912218,
2,0,0,1,0,9804.04,0.0619728,0.0616261,-3.75813,8,0.0052132,11,-0.000231599,-2.42503,0.347409,0.169828,-24.9606,0.0616261,
2,0,0,1,0,9804.23,0.0544836,0.0541855,-3.56738,8,0.00452622,11,-0.0001933,-2.44765,0.312245,0.188954,-26.2604,0.0541855,
2,0,0,1,0,9804.41,0.0469927,0.0466467,-3.33584,8,0.00387872,11,-0.000155606,-2.4768,0.250332,0.235687,-30.6683,0.0466467,
2,0,0,1,0,9804.6,0.0394999,0.039183,-3.1155,8,0.00327464,11,-0.000122075,-2.50647,0.265405,0.222302,-27.0061,0.039183,
2,0,0,1,0,9804.79,0.0320125,0.0316781,-2.93457,8,0.00270931,11,-9.29618e-05,-2.53246,0.315207,0.187178,-21.4053,0.0316781,
2,0,0,1,0,9804.97,0.0245198,0.0241835,-2.80446,8,0.00217174,11,-6.78216e-05,-2.55215,0.520217,0.113414,-12.4534,0.02418346,
2,0,0,1,0,9805.16,0.0170289,0.0167433,-2.74234,8,0.0016515,11,-4.59159e-05,-2.56188,1.50502,0.039202,-4.21404,0.01674334,
2,0,0,1,0,9805.35,0.0095397,0.00920947,-2.73202,8,0.00113884,11,-2.51604e-05,-2.56352,-4.34206,-0.013588,1.44441,0.00920947,
2,0,0,1,0,9805.54,0.00204518,0.00165175,-2.79825,8,0.000625715,11,-4.62201e-06,-2.55311,-0.954429,-0.061817,6.62899,0.00165175,
2,0,0,1,0,9805.58,0.000177222,-0.000156973,-2.76066,8,0.000495898,11,4.3335e-07,-2.55899, , , ,-0.000156973,

File: 20221101_1-115_002_TrumpetPlot_ParaChange_09_CV_C01.mpt
EC-Lab ASCII FILE
Nb header lines : 68

Cyclic Voltammetry

Run on channel : 1 (SN 65296)
User :
CE vs. WE compliance from -10 V to 10 V
Electrode connection : standard
Potential control : Ewe
Ewe ctrl range : min = -1.00 V, max = 1.00 V
Safety Limits :
	Do not start on E overload
Acquisition started on : 11/08/2022 17:30:03.488
Loaded Setting File :  NONE
Saved on :
	File : 20221101_1-115_002_TrumpetPlot_ParaChange_09_CV_C01.mpr
	Directory : C:\Users\NakamuraT\Documents\EC-Lab\Data\Yatsuzuka\20221108_1-115_001_TrumpetPlot\
	Host : 192.109.209.100
Device : SP-50e (SN .003219)
Address : 192.109.209.128
EC-Lab for windows v11.43 (software)
Internet server v11.40 (firmware)
Command interpretor v11.40 (firmware)
Electrode material : Au/Pd
Initial state :
Electrolyte : NaCl (0.2M)
Comments : Fe(CN)63-/Fe(CN)64- 5.10-3 M
Reference electrode : SCE Saturated Calomel Electrode (0.241 V)
Electrode surface area : 0.001 cm2
Characteristic mass : 0.001 g
Equivalent Weight : 0.000 g/eq.
Density : 0.000 g/cm3
Volume (V) : 0.001 cm3
Cycle Definition : Charge/Discharge alternance
Ei (V)              0.000
vs.                 Ref
dE/dt               60.000
dE/dt unit          mV/s
E1 (V)              0.300
vs.                 Ref
Step percent        50
N                   10
E range min (V)     -1.000
E range max (V)     1.000
I Range             10 mA
I Range min         Unset
I Range max         Unset
I Range init        Unset
Bandwidth           5
E2 (V)              0.000
vs.                 Ref
nc cycles           0
Reverse Scan        0
Ef (V)              0.000
vs.                 Eoc

Number of loops : 8
Loop 0 from point number 0 to 1204
Loop 1 from point number 1205 to 2409
Loop 2 from point number 2410 to 3614
Loop 3 from point number 3615 to 4819
Loop 4 from point number 4820 to 6024
Loop 5 from point number 6025 to 7229
Loop 6 from point number 7230 to 8434
Loop 7 from point number 8435 to 9639

mode	ox/red	error	control changes	counter inc.	time/s	control/V	Ewe/V	<I>/mA	cycle number	(Q-Qo)/C	I Range	P/W
2	0	0	0	0	1184.29	2.44065e-05	1.82482e-05	-3.87168	1	0.0000000E+000	11	-7.06514e-08
2	1	0	1	0	1184.87	0.0347561	0.0345017	2.78631	1	0.00134213	11	9.61325e-05
2	1	0	1	0	1185.45	0.0697126	0.0693999	3.44203	1	0.0031141	11	0.000238877
2	1	0	1	0	1186.03	0.104674	0.104408	5.06221	1	0.00556694	11	0.000528533
2	1	0	1	0	1186.62	0.139631	0.139279	9.39632	1	0.00957197	11	0.00130871
2	1	0	1	0	1187.2	0.174587	0.174322	5.98604	1	0.0150431	11	0.0010435
2	1	0	1	0	1187.78	0.209549	0.209243	3.07384	1	0.0173551	11	0.00064318
2	1	0	1	0	1188.36	0.244504	0.244213	2.62663	1	0.0189857	11	0.000641457
2	1	0	1	0	1188.95	0.279459	0.279203	2.44623	1	0.0204584	11	0.000682993
2	0	0	1	0	1189.52	0.286254	0.285918	-1.15319	1	0.0211	11	-0.000329719
2	0	0	1	0	1190.1	0.251298	0.251005	-1.67411	1	0.0202593	11	-0.00042021
2	0	0	1	0	1190.68	0.216337	0.216046	-2.1072	1	0.0191612	11	-0.000455252
2	0	0	1	0	1191.27	0.18138	0.181097	-3.19352	1	0.0176759	11	-0.000578337
2	0	0	1	0	1191.85	0.146424	0.146133	-8.00212	1	0.0147059	11	-0.00116938
2	0	0	1	0	1192.43	0.111462	0.111172	-8.49047	1	0.00908979	11	-0.000943901
2	0	0	1	0	1193.01	0.076507	0.0761744	-5.00487	1	0.00547838	11	-0.000381243
2	0	0	1	0	1193.6	0.0415519	0.0412664	-3.88119	1	0.0029555	11	-0.000160163
2	0	0	1	0	1194.18	0.00658877	0.00628895	-3.955	1	0.000707069	11	-2.48728e-05
2	1	0	1	0	2416.37	0.0272691	0.0269793	2.75975	2	0.00102017	11	7.44563e-05
2	1	0	1	0	2416.95	0.0622243	0.0619576	3.41585	2	0.00277693	11	0.000211638
2	1	0	1	0	2417.54	0.0971794	0.0968758	4.96119	2	0.0052077	11	0.00048062
2	1	0	1	0	2418.12	0.132141	0.131888	8.36136	2	0.00887769	11	0.00110276
2	1	0	1	0	2418.7	0.167098	0.16679	7.73342	2	0.0144344	11	0.00128986
2	1	0	1	0	2419.29	0.202055	0.20178	3.22705	2	0.01709	11	0.000651155
2	1	0	1	0	2419.87	0.237012	0.236717	2.67231	2	0.0187705	11	0.00063258
2	1	0	1	0	2420.45	0.271973	0.271701	2.4841	2	0.0202648	11	0.000674932
2	0	0	1	0	2421.02	0.293742	0.293446	-0.979272	2	0.0213409	11	-0.000287363
2	0	0	1	0	2421.6	0.258787	0.258506	-1.58904	2	0.0205662	11	-0.000410777
2	0	0	1	0	2422.19	0.223832	0.223554	-1.99162	2	0.0195236	11	-0.000445235
2	0	0	1	0	2422.77	0.18887	0.188571	-2.75446	2	0.0181758	11	-0.000519411
2	0	0	1	0	2423.35	0.153912	0.153559	-6.27203	2	0.0158168	11	-0.000963127
2	0	0	1	0	2423.93	0.118956	0.11868	-9.81417	2	0.0105628	11	-0.00116475
2	0	0	1	0	2424.52	0.0839993	0.0836589	-5.63279	2	0.00633514	11	-0.000471233
2	0	0	1	0	2425.1	0.0490376	0.048756	-4.15824	2	0.00349754	11	-0.000202739
2	0	0	1	0	2425.68	0.0140824	0.0137646	-3.92074	2	0.00120455	11	-5.39675e-05
2	1	0	1	0	3647.88	0.0197742	0.0195082	2.59815	3	0.000612135	11	5.06852e-05
2	1	0	1	0	3648.46	0.054732	0.0544313	3.2453	3	0.00228691	11	0.000176646
2	1	0	1	0	3649.04	0.0896937	0.0893939	4.74225	3	0.00459196	11	0.000423928
2	1	0	1	0	3649.62	0.124649	0.124387	7.10808	3	0.00790082	11	0.000884156
2	1	0	1	0	3650.21	0.159604	0.15934	9.25189	3	0.0130823	11	0.0014742
2	1	0	1	0	3650.79	0.194566	0.19429	3.50679	3	0.0164087	11	0.000681333
2	1	0	1	0	3651.37	0.229522	0.22926	2.70763	3	0.0181636	11	0.000620752
2	1	0	1	0	3651.95	0.264479	0.264202	2.50339	3	0.0196795	11	0.000661402
2	1	0	1	0	3652.54	0.29944	0.299196	2.36802	3	0.0210978	11	0.000708504
2	0	0	1	0	3653.11	0.266279	0.265977	-1.45401	3	0.020523	11	-0.000386734
2	0	0	1	0	3653.69	0.231317	0.231036	-1.85781	3	0.0195564	11	-0.000429222
2	0	0	1	0	3654.27	0.196362	0.196093	-2.40735	3	0.0183347	11	-0.000472065
2	0	0	1	0	3654.86	0.161407	0.161113	-4.54216	3	0.0164759	11	-0.000731802
2	0	0	1	0	3655.44	0.126445	0.126087	-9.64442	3	0.0121776	11	-0.00121604
2	0	0	1	0	3656.02	0.0914889	0.0911457	-6.35541	3	0.00734015	11	-0.000579268
2	0	0	1	0	3656.6	0.0565325	0.0561966	-4.69641	3	0.00412911	11	-0.000263922
2	0	0	1	0	3657.19	0.0215761	0.0212565	-3.89195	3	0.00171115	11	-8.27292e-05
2	1	0	1	0	4879.38	0.0122859	0.0120077	2.44257	4	0.000280256	11	2.93296e-05
2	1	0	1	0	4879.96	0.0472424	0.0469921	3.11436	4	0.00189277	11	0.000146351
2	1	0	1	0	4880.54	0.0821988	0.0819482	4.55049	4	0.00409276	11	0.000372904
2	1	0	1	0	4881.13	0.117161	0.116888	6.39458	4	0.00720592	11	0.00074745
2	1	0	1	0	4881.71	0.152117	0.151814	9.34003	4	0.0119614	11	0.00141795
2	1	0	1	0	4882.29	0.187072	0.186762	3.98378	4	0.0158284	11	0.000744019
2	1	0	1	0	4882.87	0.222034	0.221769	2.80287	4	0.0177148	11	0.000621591
2	1	0	1	0	4883.46	0.25699	0.25671	2.53119	4	0.0192617	11	0.000649782
2	1	0	1	0	4884.04	0.291947	0.291675	2.38923	4	0.0206984	11	0.00069688
2	0	0	1	0	4884.61	0.273769	0.273461	-1.3359	4	0.0206019	11	-0.000365315
2	0	0	1	0	4885.19	0.238812	0.238496	-1.7663	4	0.019688	11	-0.000421255
2	0	0	1	0	4885.78	0.203856	0.20357	-2.21523	4	0.0185404	11	-0.000450954
2	0	0	1	0	4886.36	0.168894	0.168554	-3.54433	4	0.0169602	11	-0.000597413
2	0	0	1	0	4886.94	0.133938	0.133665	-8.61064	4	0.0135405	11	-0.00115094
2	0	0	1	0	4887.52	0.0989825	0.0986909	-7.26643	4	0.00843124	11	-0.00071713
2	0	0	1	0	4888.11	0.0640207	0.0636835	-5.31114	4	0.00487039	11	-0.000338232
2	0	0	1	0	4888.69	0.0290643	0.0287555	-3.98992	4	0.00222298	11	-0.000114732
2	1	0	1	0	6110.88	0.00479233	0.00449096	1.70893	5	-1.13993e-05	11	7.67473e-06
2	1	0	1	0	6111.47	0.0397541	0.0394668	2.98955	5	0.00151308	11	0.000117988
2	1	0	1	0	6112.05	0.0747105	0.0744567	4.33093	5	0.00360803	11	0.000322467
[...]
2	1	0	1	0	7344.13	0.102177	0.101872	5.55678	6	0.00599632	11	0.000566077
2	1	0	1	0	7344.72	0.137134	0.136833	8.40458	6	0.0100157	11	0.00115002
2	1	0	1	0	7345.3	0.17209	0.171821	5.19496	6	0.0146285	11	0.000892601
2	1	0	1	0	7345.88	0.207048	0.206787	2.9524	6	0.0167702	11	0.000610516
2	1	0	1	0	7346.46	0.24201	0.241748	2.58535	6	0.0183581	11	0.000625001
2	1	0	1	0	7347.05	0.276965	0.276701	2.42834	6	0.0198151	11	0.000671927
2	0	0	1	0	7347.62	0.288751	0.288417	-1.07859	6	0.0206127	11	-0.000311085
2	0	0	1	0	7348.2	0.253795	0.253479	-1.60055	6	0.0198085	11	-0.000405707
2	0	0	1	0	7348.78	0.218834	0.218557	-1.96002	6	0.018768	11	-0.000428377
2	0	0	1	0	7349.37	0.183877	0.183555	-2.56852	6	0.0174723	11	-0.000471465
2	0	0	1	0	7349.95	0.14892	0.148623	-5.53115	6	0.0153469	11	-0.000822055
2	0	0	1	0	7350.53	0.113963	0.113644	-8.87455	6	0.0107417	11	-0.00100854
2	0	0	1	0	7351.11	0.0790014	0.078702	-6.08664	6	0.00645164	11	-0.00047903
2	0	0	1	0	7351.7	0.0440462	0.0437106	-4.62124	6	0.00330305	11	-0.000201997
2	0	0	1	0	7352.28	0.00909108	0.00879088	-3.93262	6	0.00089749	11	-3.45712e-05
2	1	0	1	0	8574.47	0.0247668	0.0244701	2.66678	7	0.00076907	11	6.52563e-05
2	1	0	1	0	8575.05	0.0597299	0.0594451	3.80532	7	0.00261612	11	0.000226207
2	1	0	1	0	8575.64	0.094685	0.0943656	5.21912	7	0.00526453	11	0.000492505
2	1	0	1	0	8576.22	0.12964	0.129343	7.60324	7	0.00890291	11	0.000983423
2	1	0	1	0	8576.8	0.164602	0.164289	6.49136	7	0.0135801	11	0.00106646
2	1	0	1	0	8577.39	0.199558	0.1993	3.07966	7	0.0160191	11	0.000613778
2	1	0	1	0	8577.97	0.234515	0.234213	2.62982	7	0.0176565	11	0.00061594
2	1	0	1	0	8578.55	0.269477	0.269162	2.46045	7	0.0191395	11	0.000662258
2	0	0	1	0	8579.12	0.296243	0.295931	-0.644827	7	0.0203719	11	-0.000190825
2	0	0	1	0	8579.7	0.261281	0.260971	-1.48617	7	0.019678	11	-0.000387847
2	0	0	1	0	8580.29	0.226326	0.226062	-1.84779	7	0.0187055	11	-0.000417714
2	0	0	1	0	8580.87	0.191371	0.191065	-2.3149	7	0.0175093	11	-0.000442295
2	0	0	1	0	8581.45	0.156409	0.156083	-4.10216	7	0.0157874	11	-0.000640277
2	0	0	1	0	8582.04	0.121453	0.121198	-8.53828	7	0.0119577	11	-0.00103482
2	0	0	1	0	8582.62	0.0864963	0.0861673	-6.51763	7	0.00739043	11	-0.000561607
2	0	0	1	0	8583.2	0.0515399	0.0512331	-5.14698	7	0.00400604	11	-0.000263696
2	0	0	1	0	8583.78	0.0165781	0.0162342	-3.99369	7	0.00142089	11	-6.48343e-05
2	1	0	1	0	9805.98	0.0172786	0.0169985	2.6115	8	0.000475076	11	4.43916e-05
2	1	0	1	0	9806.56	0.052235	0.0519066	3.62571	8	0.00225553	11	0.000188198
2	1	0	1	0	9807.14	0.0871967	0.0868751	5.04061	8	0.00479624	11	0.000437903
2	1	0	1	0	9807.72	0.122152	0.121892	7.09913	8	0.00822616	11	0.000865327
2	1	0	1	0	9808.31	0.157107	0.156846	7.6798	8	0.0128994	11	0.00120455
2	1	0	1	0	9808.89	0.19207	0.191767	3.22445	8	0.0157163	11	0.000618342
2	1	0	1	0	9809.47	0.227026	0.226738	2.65501	8	0.0173884	11	0.000601993
2	1	0	1	0	9810.05	0.261983	0.261665	2.47672	8	0.0188819	11	0.000648072
2	1	0	1	0	9810.64	0.296939	0.296658	2.35725	8	0.0202907	11	0.000699297
2	0	0	1	0	9811.21	0.268776	0.268442	-1.42783	8	0.0198766	11	-0.000383288
2	0	0	1	0	9811.79	0.233814	0.233496	-1.79608	8	0.0189327	11	-0.000419377
2	0	0	1	0	9812.37	0.198858	0.198548	-2.18922	8	0.0177802	11	-0.000434666
2	0	0	1	0	9812.96	0.163903	0.16361	-3.33627	8	0.0162545	11	-0.000545847
2	0	0	1	0	9813.54	0.128941	0.128605	-7.94147	8	0.0130672	11	-0.00102131
2	0	0	1	0	9814.12	0.0939845	0.0937071	-7.1686	8	0.00829187	11	-0.000671749
2	0	0	1	0	9814.7	0.0590281	0.0586957	-5.50042	8	0.00469627	11	-0.000322851
2	0	0	1	0	9815.29	0.0240717	0.0237667	-4.12729	8	0.0019161	11	-9.80921e-05
2	0	0	1	0	9815.69	-2.44065e-05	-0.000287149	-4.01882	8	0.000306716	11	1.154e-06