Folder: Figs_alphaMnO2_OER_Tafel_sleope/Figure_codes/Fig_3-5/rawdata_trumpetplot_data/before 10th (part 53)

File: 20221101_1-115_002_TrumpetPlot_ParaChange_15_CV_C01_2.csv
mode,ox/red,error,control changes,counter inc.,time/s,control/V,Ewe/V,<I>/mA,cycle number,(Q-Qo)/C,I Range,P/W,log(|I|),Tafel slope mV/dec,alpha_eff,dI/d(E-IR),E-IR/V,
2,1,0,0,0,3680.98,2.44065e-05,-0.00099338,33.2331,3,0.0000000E+000,10,-3.30131e-05,-1.47843, , , ,-0.00099338,
2,1,0,1,0,3681,0.0121015,0.0117898,34.8781,3,0.000509449,10,0.000411206,-1.45745,0.388215,0.151978,206.459,0.0117898,
2,1,0,1,0,3681.02,0.0249027,0.0246006,37.1493,3,0.00108742,10,0.000913894,-1.43005,0.620293,0.0951163,137.427,0.0246006,
2,1,0,1,0,3681.03,0.0377094,0.0373986,38.4687,3,0.0016935,10,0.00143868,-1.41489,1.17182,0.0503491,75.4286,0.0373986,
2,1,0,1,0,3681.05,0.0505051,0.0501808,39.2363,3,0.00231556,10,0.00196891,-1.40631,1.63139,0.0361655,55.3643,0.0501808,
2,1,0,1,0,3681.06,0.0633063,0.0629534,39.9757,3,0.00294904,10,0.0025166,-1.3982,1.31165,0.0449814,70.2698,0.0629534,
2,1,0,1,0,3681.08,0.0761019,0.0757832,41.1314,3,0.00359739,10,0.00311707,-1.38583,0.781569,0.0754892,121.532,0.07578323,
2,1,0,1,0,3681.1,0.0889087,0.0885325,43.1144,3,0.00427064,10,0.00381702,-1.36538,0.540994,0.109058,183.861,0.0885325,
2,1,0,1,0,3681.11,0.101702,0.101306,45.7808,3,0.00498138,10,0.00463788,-1.33932,0.42752,0.138005,247.461,0.101306,
2,1,0,1,0,3681.13,0.114506,0.114179,49.4487,3,0.00574294,10,0.00564603,-1.30585,0.378508,0.155875,300.873,0.114179,
2,1,0,1,0,3681.14,0.127301,0.126948,53.5159,3,0.00656645,10,0.00679373,-1.27152,0.36063,0.163603,342.051,0.126948,
2,1,0,1,0,3681.16,0.140105,0.139758,58.1645,3,0.00745978,10,0.00812893,-1.23534,0.344674,0.171176,389.098,0.139758,
2,1,0,1,0,3681.18,0.152904,0.15256,63.5537,3,0.00843313,10,0.00969574,-1.19686,0.322458,0.18297,454.419,0.15256,
2,1,0,1,0,3681.19,0.165705,0.16536,69.8337,3,0.00949984,10,0.0115477,-1.15594,0.310014,0.190314,518.797,0.16536,
2,1,0,1,0,3681.21,0.178506,0.178164,76.7187,3,0.0106724,10,0.0136685,-1.1151,0.32473,0.181689,543.458,0.178164,
2,1,0,1,0,3681.22,0.191302,0.190913,83.4871,3,0.0119556,10,0.0159387,-1.07838,0.386971,0.152466,495.656,0.190913,
2,1,0,1,0,3681.24,0.204108,0.203777,88.9248,3,0.0133386,10,0.0181209,-1.05098,0.66792,0.0883339,304.926,0.203777,
2,1,0,1,0,3681.26,0.216904,0.21664,90.523,3,0.0147818,10,0.0196109,-1.04324,-1.64848,-0.0357904,-125.166,0.2166402,
2,1,0,1,0,3681.27,0.229705,0.229476,85.0208,3,0.0161965,10,0.0195103,-1.07047,-0.257329,-0.229278,-750.815,0.229476,
2,1,0,1,0,3681.29,0.242501,0.242321,71.8527,3,0.0174583,10,0.0174114,-1.14356,-0.135026,-0.436954,-1213.14,0.242321,
2,1,0,1,0,3681.3,0.255308,0.255085,55.454,3,0.0184751,10,0.0141455,-1.25607,-0.104858,-0.562668,-1218.52,0.255085,
2,1,0,1,0,3681.32,0.268101,0.267857,41.8604,3,0.0192459,10,0.0112126,-1.3782,-0.114234,-0.516483,-854.01,0.267857,
2,1,0,1,0,3681.34,0.280905,0.28067,33.7162,3,0.019843,10,0.00946311,-1.47216,-0.17327,-0.340508,-453.87,0.28067,
2,1,0,1,0,3681.35,0.2937,0.293414,29.7025,3,0.0203459,10,0.00871513,-1.52721,-0.319264,-0.1848,-216.247,0.293414,
2,1,0,1,0,3681.36,0.298983,0.298956,25.2671,3,0.0206096,10,0.00755377,-1.59744,0.0128785,4.58128,2952.67,0.298956,
2,0,0,1,0,3681.38,0.286187,0.28603,-1.71516,3,0.0207594,10,-0.000490588,-2.76569,0.557737,0.105785,1269.43,0.28603,
2,0,0,1,0,3681.39,0.273386,0.273143,-11.9012,3,0.0206371,10,-0.00325073,-1.92441,-0.0492564,-1.19781,509.795,0.273143,
2,0,0,1,0,3681.41,0.260585,0.26037,-16.2447,3,0.020407,10,-0.00422965,-1.78929,-0.156001,-0.378203,235.53,0.26037,
2,0,0,1,0,3681.42,0.247783,0.247513,-18.5055,3,0.0201272,10,-0.00458035,-1.7327,-0.302784,-0.194858,139.91,0.247513,
2,0,0,1,0,3681.44,0.234982,0.234684,-20.0332,3,0.0198183,10,-0.00470147,-1.69825,-0.424695,-0.138923,108.406,0.234684,
2,0,0,1,0,3681.46,0.222187,0.22194,-21.3576,3,0.0194869,10,-0.00474011,-1.67045,-0.464097,-0.127128,106.009,0.2219401,
2,0,0,1,0,3681.47,0.20938,0.209094,-22.773,3,0.0191338,10,-0.0047617,-1.64258,-0.440118,-0.134055,119.33,0.209094,
2,0,0,1,0,3681.49,0.196587,0.196357,-24.4705,3,0.018756,10,-0.00480494,-1.61136,-0.375328,-0.157196,150.512,0.196357,
2,0,0,1,0,3681.5,0.183783,0.183522,-26.7181,3,0.0183471,10,-0.00490336,-1.57319,-0.300718,-0.196197,205.216,0.183522,
2,0,0,1,0,3681.52,0.170987,0.170722,-29.8072,3,0.0178959,10,-0.00508876,-1.52568,-0.239749,-0.246091,287.484,0.170722,
2,0,0,1,0,3681.54,0.158183,0.157928,-34.1756,3,0.0173855,10,-0.00539728,-1.46628,-0.19663,-0.300056,401.808,0.157928,
2,0,0,1,0,3681.55,0.145385,0.14516,-40.1265,3,0.0167925,10,-0.00582478,-1.39657,-0.173216,-0.340615,535.269,0.14516,
2,0,0,1,0,3681.57,0.132584,0.1324,-47.8111,3,0.0160902,10,-0.00633021,-1.32047,-0.168373,-0.350412,654.126,0.1324,
2,0,0,1,0,3681.58,0.119782,0.119623,-56.4509,3,0.0152552,10,-0.0067528,-1.24833,-0.1867,-0.316016,696.287,0.119623,
2,0,0,1,0,3681.6,0.106987,0.106827,-65.5032,3,0.0142781,10,-0.00699749,-1.18374,-0.22076,-0.267259,680.895,0.106827,
2,0,0,1,0,3681.62,0.0941801,0.094019,-73.8144,3,0.0131619,10,-0.00693996,-1.13186,-0.281316,-0.209729,602.064,0.09401904,
2,0,0,1,0,3681.63,0.0813844,0.0811457,-80.6594,3,0.0119224,10,-0.00654516,-1.09335,-0.418344,-0.141032,441.982,0.0811457,
2,0,0,1,0,3681.65,0.0685832,0.0683614,-84.8542,3,0.0105936,10,-0.00580076,-1.07133,-0.993655,-0.0593767,195.599,0.0683614,
2,0,0,1,0,3681.66,0.0557876,0.0555093,-85.5187,3,0.00922533,10,-0.00474708,-1.06794,2.10866,0.0279798,-92.9018,0.0555093,
2,0,0,1,0,3681.68,0.0429808,0.0427038,-82.708,3,0.00787577,10,-0.00353195,-1.08245,0.599132,0.0984758,-316.793,0.0427038,
2,0,0,1,0,3681.7,0.030188,0.0299164,-77.8024,3,0.00659058,10,-0.00232757,-1.10901,0.42451,0.138984,-421.427,0.0299164,
2,0,0,1,0,3681.71,0.017384,0.0171194,-72.1716,3,0.00539054,10,-0.00123554,-1.14163,0.362327,0.162836,-457.97,0.0171194,
2,0,0,1,0,3681.73,0.00458834,0.00429593,-65.9427,3,0.00428514,10,-0.000283285,-1.18083,0.30163,0.195604,-502.939,0.00429593,
2,0,0,1,0,3681.74,-0.00821564,-0.00854984,-59.3894,3,0.00328255,10,0.00050777,-1.22629,0.27389,0.215415,-499.855,-0.00854984,
2,0,0,1,0,3681.76,-0.0210196,-0.021349,-53.703,3,0.00238072,10,0.0011465,-1.27,0.338981,0.174051,-366.395,-0.021349,
2,0,0,1,0,3681.78,-0.0338153,-0.0341247,-50.1254,3,0.00155335,10,0.00171052,-1.29994,0.586699,0.100563,-197.621,-0.0341247,
2,0,0,1,0,3681.79,-0.0466193,-0.0469504,-48.488,3,0.000766645,10,0.00227653,-1.31437,1.57328,0.0375012,-71.1944,-0.0469504,
2,0,0,1,0,3681.81,-0.0594121,-0.0597452,-48.1375,3,-5.16965e-06,10,0.00287598,-1.31752,-11.2657,-0.00523713,9.86255,-0.05974523,
2,0,0,1,0,3681.82,-0.0722189,-0.0725104,-48.6298,3,-0.000778714,10,0.00352616,-1.3131,-1.94407,-0.0303486,57.6655,-0.0725104,
2,0,0,1,0,3681.84,-0.0850146,-0.0853636,-49.6122,3,-0.00156425,10,0.00423508,-1.30441,-1.23607,-0.0477321,92.4846,-0.0853636,
2,0,0,1,0,3681.86,-0.0978158,-0.0981076,-50.9719,3,-0.00236862,10,0.00500073,-1.29267,-0.989467,-0.0596281,118.672,-0.0981076,
2,0,0,1,0,3681.87,-0.110611,-0.110908,-52.6163,3,-0.00319719,10,0.00583555,-1.27888,-0.846719,-0.0696808,143.228,-0.110908,
2,0,0,1,0,3681.89,-0.123418,-0.123723,-54.6078,3,-0.00405504,10,0.00675623,-1.26275,-0.750451,-0.0786194,167.694,-0.123723,
2,0,0,1,0,3681.9,-0.136214,-0.136529,-56.8877,3,-0.00494705,10,0.00776684,-1.24498,-0.698762,-0.0844351,187.581,-0.1365293,
2,0,0,1,0,3681.92,-0.149015,-0.149321,-59.4268,3,-0.0058777,10,0.00887366,-1.22602,-0.669632,-0.0881081,204.362,-0.149321,
2,0,0,1,0,3681.94,-0.161816,-0.162117,-62.1267,3,-0.00685016,10,0.0100718,-1.20672,-0.662273,-0.0890872,215.98,-0.162117,
2,0,0,1,0,3681.95,-0.174615,-0.174908,-64.9375,3,-0.00786691,10,0.0113581,-1.1875,-0.653777,-0.0902448,228.806,-0.174908,
2,0,0,1,0,3681.97,-0.187419,-0.187668,-67.9507,3,-0.00893032,10,0.0127522,-1.16781,-0.644506,-0.091543,242.88,-0.187668,
2,0,0,1,0,3681.98,-0.199647,-0.199879,-71.0309,3,-0.00999382,10,0.0141976,-1.14855,0.438849,0.134443,-359.863,-0.199879,
2,0,0,1,1,3681.99,-0.192535,-0.193,-50.1951,3,-0.0106061,10,0.00968767,-1.29934,-0.0472484,-1.24872,2449.36,-0.193,
2,0,0,1,1,3682.01,-0.179739,-0.180155,-24.2382,3,-0.0111876,10,0.00436665,-1.6155,-0.0310928,-1.89754,1729.13,-0.1801555,
2,0,0,1,1,3682.03,-0.166932,-0.167389,-5.06412,3,-0.0114132,10,0.000847679,-2.2955,-0.0179346,-3.28974,1313.37,-0.167389,
2,1,0,1,1,3682.04,-0.154139,-0.154598,9.6103,3,-0.0113706,10,-0.00148573,-2.01726,0.0168425,3.50304,1011.8,-0.154598,
2,1,0,1,1,3682.06,-0.141335,-0.141816,21.1165,3,-0.0111202,10,-0.00299467,-1.67538,0.0587278,1.00464,798.786,-0.141816,
2,1,0,1,1,3682.07,-0.12854,-0.128976,30.1133,3,-0.0107061,10,-0.00388389,-1.52124,0.112406,0.524881,607.937,-0.128976,
2,1,0,1,1,3682.09,-0.115736,-0.116136,36.9013,3,-0.0101667,10,-0.00428556,-1.43296,0.183826,0.320956,458.564,-0.116136,
2,1,0,1,1,3682.11,-0.102932,-0.103333,41.967,3,-0.00953323,10,-0.00433658,-1.37709,0.284813,0.207154,337.503,-0.103333,
2,1,0,1,1,3682.12,-0.0901362,-0.0904652,45.6092,3,-0.00883053,10,-0.00412605,-1.34095,0.433976,0.135952,241.251,-0.0904652,
2,1,0,1,1,3682.14,-0.0773322,-0.0776629,48.2044,3,-0.00807842,10,-0.0037437,-1.31691,0.666069,0.0885795,166.241,-0.07766293,
2,1,0,1,1,3682.15,-0.0645393,-0.0648808,49.9478,3,-0.00729207,10,-0.00324065,-1.30148,1.03335,0.0570958,111.122,-0.0648808,
2,1,0,1,1,3682.17,-0.0517325,-0.0520414,51.1053,3,-0.00648281,10,-0.00265959,-1.29153,1.6791,0.0351379,69.9811,-0.0520414,
2,1,0,1,1,3682.19,-0.0389369,-0.0392751,51.7451,3,-0.00565938,10,-0.00203229,-1.28613,3.45642,0.0170697,34.4423,-0.0392751,
2,1,0,1,1,3682.2,-0.0261357,-0.0264824,51.9801,3,-0.00482889,10,-0.00137656,-1.28416,31.5377,0.00187078,3.79262,-0.0264824,
2,1,0,1,1,3682.22,-0.01334,-0.013696,51.8498,3,-0.00399764,10,-0.000710134,-1.28525,-5.14832,-0.01146,-23.1771,-0.013696,
2,1,0,1,1,3682.23,-0.000774628,-0.00112858,51.4145,3,-0.00318652,10,-5.80255e-05,-1.28891, , , ,-0.00112858,
2,1,0,0,1,3682.23,-0.000125413,-0.000439847,51.3944,3,-0.00314539,10,-2.26057e-05,-1.28908, , , ,-0.000439847,

File: 20221101_1-115_002_TrumpetPlot_ParaChange_15_CV_C01_3.csv
mode,ox/red,error,control changes,counter inc.,time/s,control/V,Ewe/V,<I>/mA,cycle number,(Q-Qo)/C,I Range,P/W,log(|I|),Tafel slope mV/dec,alpha_eff,dI/d(E-IR),E-IR/V,
2,1,0,0,0,4912.61,2.44065e-05,-0.00091703,32.9227,4,0.0000000E+000,10,-3.01912e-05,-1.4825, , , ,-0.0009170305,
2,1,0,1,0,4912.63,0.0121015,0.0117357,33.9683,4,0.000497283,10,0.000398643,-1.46893,0.383577,0.153815,203.741,0.0117357,
2,1,0,1,0,4912.64,0.0249027,0.0245773,36.2784,4,0.00106095,10,0.000891625,-1.44035,0.587069,0.100499,141.827,0.0245773,
2,1,0,1,0,4912.66,0.0377094,0.0373605,37.7148,4,0.00165388,10,0.00140904,-1.42349,0.978025,0.0603257,88.6197,0.0373605,
2,1,0,1,0,4912.68,0.0505051,0.0501331,38.6838,4,0.00226534,10,0.00193934,-1.41247,1.20504,0.0489609,73.9154,0.0501331,
2,1,0,1,0,4912.69,0.0633063,0.0629958,39.6869,4,0.00289203,10,0.00250011,-1.40135,0.995443,0.0592701,91.934,0.0629958,
2,1,0,1,0,4912.71,0.0761019,0.0757164,41.1233,4,0.00353801,10,0.00311371,-1.38591,0.669298,0.0881521,141.852,0.0757164,
2,1,0,1,0,4912.72,0.0889087,0.0885558,43.364,4,0.00421305,10,0.00384013,-1.36287,0.496223,0.118898,201.475,0.0885558,
2,1,0,1,0,4912.74,0.101702,0.101305,46.2119,4,0.00492932,10,0.0046815,-1.33525,0.417448,0.141335,255.576,0.101305,
2,1,0,1,0,4912.76,0.114506,0.114175,49.9037,4,0.00569789,10,0.00569777,-1.30187,0.378096,0.156045,303.972,0.114175,
2,1,0,1,0,4912.77,0.127301,0.12698,53.9501,4,0.00652881,10,0.00685057,-1.26801,0.373142,0.158117,333.2,0.12698,
2,1,0,1,0,4912.79,0.140105,0.13973,58.4695,4,0.00742811,10,0.00816994,-1.23307,0.35875,0.16446,375.672,0.13973,
2,1,0,1,0,4912.8,0.152904,0.15257,63.6344,4,0.00840453,10,0.00970873,-1.19631,0.339276,0.1739,432.237,0.15257,
2,1,0,1,0,4912.82,0.165705,0.165366,69.5306,4,0.00946956,10,0.011498,-1.15782,0.331501,0.177978,482.98,0.165366,
2,1,0,1,0,4912.84,0.178506,0.178134,75.8485,4,0.010633,10,0.0135112,-1.12005,0.356961,0.165284,488.737,0.178134,
2,1,0,1,0,4912.85,0.191302,0.190996,81.8517,4,0.0118963,10,0.0156334,-1.08697,0.439722,0.134176,427.542,0.190996,
2,1,0,1,0,4912.87,0.204108,0.203755,86.3014,4,0.0132455,10,0.0175844,-1.06398,0.904111,0.0652575,218.525,0.203755,
2,1,0,1,0,4912.88,0.216904,0.216618,86.7191,4,0.0146373,10,0.0187849,-1.06189,-0.926951,-0.0636495,-213.223,0.216618,
2,1,0,1,0,4912.9,0.229705,0.229415,80.384,4,0.0159832,10,0.0184413,-1.09483,-0.237176,-0.24876,-771.197,0.229415,
2,1,0,1,0,4912.92,0.242501,0.242281,67.6508,4,0.0171725,10,0.0163905,-1.16973,-0.137845,-0.428016,-1121.69,0.242281,
2,1,0,1,0,4912.93,0.255308,0.255079,52.9498,4,0.018135,10,0.0135064,-1.27614,-0.114363,-0.515901,-1068.56,0.255079,
2,1,0,1,0,4912.95,0.268101,0.267862,41.2121,4,0.0188812,10,0.0110392,-1.38498,-0.130408,-0.452425,-735.769,0.267862,
2,1,0,1,0,4912.96,0.280905,0.280622,34.2216,4,0.0194783,10,0.00960334,-1.4657,-0.203248,-0.290285,-391.888,0.280622,
2,1,0,1,0,4912.98,0.2937,0.293437,30.6683,4,0.0199939,10,0.00899921,-1.51331,-0.36416,-0.162017,-195.517,0.293437,
2,1,0,1,0,4912.99,0.298983,0.298981,26.4189,4,0.0202673,10,0.00789873,-1.57809,0.0145508,4.05475,2868.71,0.298981,
2,1,0,1,0,4913,0.286187,0.285985,0.0950197,4,0.0204424,10,2.71743e-05,-4.02219,0.0607119,0.971802,1257.67,0.285985,
2,0,0,1,0,4913.02,0.273386,0.273122,-10.1798,4,0.0203488,10,-0.00278031,-1.99226,-0.0399334,-1.47746,525.168,0.273122,
2,0,0,1,0,4913.04,0.260585,0.260331,-14.7607,4,0.0201444,10,-0.00384268,-1.83089,-0.130592,-0.451788,254.763,0.260331,
2,0,0,1,0,4913.05,0.247783,0.247532,-17.2034,4,0.0198867,10,-0.0042584,-1.76439,-0.259316,-0.227522,151.79,0.247532,
2,0,0,1,0,4913.07,0.234982,0.234723,-18.8923,4,0.0195973,10,-0.00443446,-1.72372,-0.368564,-0.160081,117.642,0.234723,
2,0,0,1,0,4913.08,0.222187,0.221952,-20.3073,4,0.0192835,10,-0.00450723,-1.69235,-0.419831,-0.140533,111.319,0.221952,
2,0,0,1,0,4913.1,0.20938,0.209166,-21.7425,4,0.018947,10,-0.00454781,-1.66269,-0.421063,-0.140121,119.069,0.209166,
2,0,0,1,0,4913.12,0.196587,0.196358,-23.4008,4,0.0185858,10,-0.00459494,-1.63077,-0.372232,-0.158503,145.114,0.196358,
2,0,0,1,0,4913.13,0.183783,0.183564,-25.5235,4,0.0181949,10,-0.0046852,-1.59306,-0.308697,-0.191126,190.942,0.183564,
2,0,0,1,0,4913.15,0.170987,0.17074,-28.3823,4,0.0177646,10,-0.00484601,-1.54695,-0.248015,-0.237889,264.576,0.1707405,
2,0,0,1,0,4913.16,0.158183,0.157967,-32.4104,4,0.0172796,10,-0.00511978,-1.48931,-0.201963,-0.292133,371.071,0.157967,
2,0,0,1,0,4913.18,0.145385,0.145109,-37.9428,4,0.0167182,10,-0.00550586,-1.42087,-0.176168,-0.334908,497.631,0.145109,
2,0,0,1,0,4913.2,0.132584,0.132389,-45.1567,4,0.0160547,10,-0.00597825,-1.34528,-0.16778,-0.35165,620.179,0.132389,
2,0,0,1,0,4913.21,0.119783,0.119571,-53.5589,4,0.015265,10,-0.00640407,-1.27117,-0.184202,-0.320301,667.744,0.1195706,
2,0,0,1,0,4913.23,0.106987,0.10684,-62.1436,4,0.0143391,10,-0.00663944,-1.2066,-0.21423,-0.275405,665.612,0.10684,
2,0,0,1,0,4913.24,0.0941801,0.0940487,-70.1455,4,0.0132787,10,-0.0065971,-1.154,-0.277219,-0.212828,581.014,0.0940487,
2,0,0,1,0,4913.26,0.0813844,0.0811754,-76.9001,4,0.012099,10,-0.0062424,-1.11407,-0.397137,-0.148563,444.003,0.0811754,
2,0,0,1,0,4913.28,0.0685832,0.0683551,-81.3289,4,0.010829,10,-0.00555924,-1.08976,-0.804479,-0.0733394,231.657,0.0683551,
2,0,0,1,0,4913.29,0.0557876,0.055504,-82.6915,4,0.0095122,10,-0.00458971,-1.08254,7.7761,0.00758735,-24.3633,0.055504,
2,0,0,1,0,4913.31,0.0429808,0.0427304,-80.8572,4,0.00820027,10,-0.00345506,-1.09228,0.783788,0.0752755,-236.756,0.0427304,
2,0,0,1,0,4913.32,0.030188,0.0299069,-77.0008,4,0.0069362,10,-0.00230285,-1.1135,0.525151,0.112349,-337.199,0.0299069,
2,0,0,1,0,4913.34,0.017384,0.0170855,-72.4134,4,0.00574053,10,-0.00123722,-1.14018,0.438951,0.134411,-379.38,0.0170855,
2,0,0,1,0,4913.36,0.00458834,0.00431289,-67.1806,4,0.0046229,10,-0.000289743,-1.17276,0.356829,0.165345,-432.948,0.00431289,
2,0,0,1,0,4913.37,-0.00821564,-0.00857317,-61.274,4,0.00359461,10,0.000525312,-1.21272,0.29667,0.198874,-475.325,-0.00857317,
2,0,0,1,0,4913.39,-0.0210196,-0.0213723,-55.5307,4,0.00266232,10,0.00118682,-1.25547,0.326716,0.180585,-392.567,-0.0213723,
2,0,0,1,0,4913.4,-0.0338153,-0.0341714,-51.4894,4,0.00180934,10,0.00175946,-1.28828,0.510737,0.115519,-233.17,-0.0341714,
2,0,0,1,0,4913.42,-0.0466193,-0.046944,-49.3906,4,0.00100467,10,0.00231859,-1.30636,1.09345,0.0539577,-104.384,-0.046944,
2,0,0,1,0,4913.44,-0.0594121,-0.0597336,-48.7022,4,0.000221312,10,0.00290915,-1.31245,8.25152,0.0071502,-13.6235,-0.0597336,
2,0,0,1,0,4913.45,-0.0722189,-0.0725316,-48.9483,4,-0.000559028,10,0.0035503,-1.31026,-2.67128,-0.0220868,42.2398,-0.0725316,
2,0,0,1,0,4913.47,-0.0850146,-0.0853021,-49.7361,4,-0.00134791,10,0.00424259,-1.30333,-1.4376,-0.0410405,79.7374,-0.0853021,
2,0,0,1,0,4913.48,-0.0978158,-0.0981701,-50.9417,4,-0.00215311,10,0.00500095,-1.29293,-1.08548,-0.0543539,108.153,-0.0981701,
2,0,0,1,0,4913.5,-0.110611,-0.110884,-52.4581,4,-0.00298029,10,0.00581679,-1.28019,-0.914687,-0.0645029,132.214,-0.110884,
2,0,0,1,0,4913.52,-0.123418,-0.123728,-54.3439,4,-0.00383472,10,0.00672387,-1.26485,-0.79482,-0.0742306,157.521,-0.123728,
2,0,0,1,0,4913.53,-0.136214,-0.136507,-56.5078,4,-0.00472139,10,0.00771371,-1.24789,-0.727053,-0.0811495,179.019,-0.136507,
2,0,0,1,0,4913.55,-0.149015,-0.149339,-58.9125,4,-0.00564481,10,0.00879793,-1.22979,-0.693951,-0.0850204,195.502,-0.149339,
2,0,0,1,0,4913.56,-0.161816,-0.162087,-61.4768,4,-0.00660809,10,0.0099646,-1.21129,-0.685433,-0.086077,206.554,-0.162087,
2,0,0,1,0,4913.58,-0.174615,-0.174887,-64.1562,4,-0.00761351,10,0.0112201,-1.19276,-0.690647,-0.0854271,213.966,-0.1748874,
2,0,0,1,0,4913.6,-0.187419,-0.187671,-66.9947,4,-0.00866296,10,0.0125729,-1.17396,-0.676669,-0.0871918,228.026,-0.1876706,
2,0,0,1,0,4913.61,-0.199647,-0.19996,-69.8916,4,-0.00971027,10,0.0139755,-1.15557,0.424031,0.139141,-366.551,-0.19996,
2,0,0,1,1,4913.62,-0.192535,-0.192996,-49.6404,4,-0.0103136,10,0.00958041,-1.30416,-0.048369,-1.21979,2369.11,-0.192996,
2,0,0,1,1,4913.64,-0.179739,-0.180153,-24.6228,4,-0.0108941,10,0.00443588,-1.60866,-0.0329975,-1.78801,1663.93,-0.1801534,
2,0,0,1,1,4913.65,-0.166932,-0.167348,-6.11657,4,-0.0111315,10,0.0010236,-2.21349,-0.0125931,-4.6851,1271.71,-0.167348,
2,1,0,1,1,4913.67,-0.154139,-0.154628,8.1074,4,-0.0111096,10,-0.00125363,-2.09112,0.012922,4.56584,984.207,-0.154628,
2,1,0,1,1,4913.69,-0.141335,-0.141816,19.3382,4,-0.0108857,10,-0.00274248,-1.71358,0.0546505,1.07959,783.251,-0.141816,
2,1,0,1,1,4913.7,-0.12854,-0.128926,28.2447,4,-0.0105011,10,-0.00364148,-1.54906,0.105559,0.55893,606.142,-0.128926,
2,1,0,1,1,4913.72,-0.115736,-0.11607,35.0618,4,-0.00999162,10,-0.00406961,-1.45517,0.172454,0.342121,464.113,-0.1160698,
2,1,0,1,1,4913.73,-0.102932,-0.103261,40.2321,4,-0.00938686,10,-0.00415442,-1.39543,0.263524,0.223888,349.694,-0.103261,
2,1,0,1,1,4913.75,-0.0901362,-0.0904684,44.0557,4,-0.00871048,10,-0.00398565,-1.356,0.395115,0.149323,255.945,-0.0904684,
2,1,0,1,1,4913.77,-0.0773322,-0.0776746,46.8517,4,-0.0079816,10,-0.00363919,-1.32927,0.590827,0.09986,182.127,-0.07767459,
2,1,0,1,1,4913.78,-0.0645393,-0.0648606,48.8056,4,-0.00721528,10,-0.00316556,-1.31153,0.886581,0.0665478,126.514,-0.0648606,
2,1,0,1,1,4913.8,-0.0517325,-0.0520774,50.1334,4,-0.00642294,10,-0.00261082,-1.29987,1.38047,0.0427392,83.5008,-0.0520774,
2,1,0,1,1,4913.81,-0.0389369,-0.0392571,50.9297,4,-0.00561364,10,-0.00199935,-1.29303,2.52688,0.023349,46.3761,-0.0392571,
2,1,0,1,1,4913.83,-0.0261357,-0.026529,51.3131,4,-0.00479494,10,-0.00136129,-1.28977,9.24424,0.00638235,12.7713,-0.026529,
2,1,0,1,1,4913.85,-0.01334,-0.0136928,51.2746,4,-0.00397362,10,-0.000702093,-1.2901,-7.0151,-0.00841043,-16.821,-0.0136928,
2,1,0,1,1,4913.86,-0.000774628,-0.00116994,50.9191,4,-0.00317094,10,-5.95721e-05,-1.29312, , , ,-0.00116994,
2,1,0,0,1,4913.86,-0.000125413,-0.000516197,50.9104,4,-0.00313021,10,-2.62798e-05,-1.29319, , , ,-0.000516197,