Folder: Figs_alphaMnO2_OER_Tafel_sleope/Figure_codes/Fig_3-5/rawdata_trumpetplot_data/before 10th (part 3)

File: 20221101_1-115_002_TrumpetPlot_ParaChange_04_CV_C01_1.csv
mode,ox/red,error,control changes,counter inc.,time/s,control/V,Ewe/V,<I>/mA,cycle number,(Q-Qo)/C,I Range,P/W,log(|I|),Tafel slope mV/dec,alpha_eff,dI/d(E-IR),E-IR/V,
2,0,0,1,0,1590.43,2.44065e-05,-0.000287149,-0.362085,2,0.0000000E+000,11,1.03972e-07,-3.44119, , , ,-0.0002871489,
2,0,0,1,0,1597.7,0.00729061,0.00702116,-0.0954652,2,-0.000823112,11,-6.70277e-07,-4.02015,-0.0341733,-1.7265,6.50243,0.00702116,
2,0,0,1,0,1605.19,0.0147815,0.014498,-0.0635222,2,-0.00123766,11,-9.20946e-07,-4.19707,-0.0489654,-1.20493,3.00042,0.014498,
2,0,0,1,0,1612.68,0.0222725,0.0219507,-0.0458424,2,-0.00147899,11,-1.00627e-06,-4.33873,-0.0517415,-1.14028,2.07525,0.0219507,
2,0,0,1,0,1620.17,0.0297635,0.0294774,-0.0343193,2,-0.00161426,11,-1.01164e-06,-4.46446,-0.0543332,-1.08589,1.47105,0.0294774,
2,0,0,1,0,1627.66,0.0372544,0.0369554,-0.0254437,2,-0.00167071,11,-9.40283e-07,-4.59442,-0.0477143,-1.23653,1.198,0.0369554,
2,0,0,1,0,1635.15,0.0447454,0.0444429,-0.0165787,2,-0.00166153,11,-7.36807e-07,-4.78045,-0.0287656,-2.05106,1.29133,0.0444429,
2,0,0,1,0,1642.64,0.0522363,0.051923,-0.00884258,2,-0.00159061,11,-4.59133e-07,-5.05342,-0.0175886,-3.35445,1.12272,0.051923,
2,0,0,1,0,1650.13,0.0597273,0.0593872,0.000631934,2,-0.00145678,11,3.75288e-08,-6.19933,-0.41191,-0.143235,0.909559,0.0593872,
2,0,0,1,0,1657.62,0.0672183,0.0669363,0.00947659,2,-0.00125423,11,6.34328e-07,-5.02335,0.0186544,3.16279,1.12939,0.0669363,
2,1,0,1,0,1665.11,0.0747092,0.0743962,0.0189801,2,-0.000976894,11,1.41205e-06,-4.7217,0.0303376,1.94478,1.47364,0.07439623,
2,1,0,1,0,1672.61,0.0822001,0.0819187,0.0297372,2,-0.000621536,11,2.43604e-06,-4.5267,0.0503663,1.17142,1.37229,0.0819187,
2,1,0,1,0,1680.1,0.0896911,0.0893639,0.0399379,2,-0.000190179,11,3.569e-06,-4.39861,0.0713742,0.826629,1.31031,0.08936388,
2,1,0,1,0,1687.59,0.0971821,0.0968546,0.0502234,2,0.000317709,11,4.86437e-06,-4.29909,0.074072,0.796523,1.54151,0.0968546,
2,1,0,1,0,1695.08,0.104673,0.104364,0.0616609,2,0.000905744,11,6.4352e-06,-4.20999,0.0740382,0.796886,1.91793,0.104364,
2,1,0,1,0,1702.57,0.112164,0.111919,0.0782399,2,0.00159763,11,8.7565e-06,-4.10657,0.0816244,0.722823,2.20634,0.111919,
2,1,0,1,0,1710.06,0.119655,0.1194,0.102101,2,0.00243997,11,1.21909e-05,-3.99097,0.064088,0.920609,3.6528,0.1194,
2,1,0,1,0,1717.55,0.127146,0.126834,0.130662,2,0.00348809,11,1.65724e-05,-3.88385,0.0700881,0.841798,4.31573,0.126834,
2,1,0,1,0,1725.04,0.134637,0.134347,0.158175,2,0.00475878,11,2.12504e-05,-3.80086,0.136399,0.432554,2.67616,0.134347,
2,1,0,1,0,1732.53,0.142128,0.141836,0.169454,2,0.00617615,11,2.40347e-05,-3.77095,-1.87997,-0.0313835,-0.205,0.141836,
2,1,0,1,0,1740.02,0.149619,0.149395,0.156129,2,0.00758839,11,2.33248e-05,-3.80652,-0.106582,-0.553565,-3.35143,0.149395,
2,1,0,1,0,1747.52,0.15711,0.156852,0.123918,2,0.00882055,11,1.94368e-05,-3.90687,-0.0562921,-1.04811,-5.01291,0.156852,
2,1,0,1,0,1755.01,0.164601,0.164308,0.0907534,2,0.00978964,11,1.49115e-05,-4.04214,-0.057771,-1.02127,-3.58448,0.164308,
2,1,0,1,0,1762.5,0.172091,0.171815,0.0688886,2,0.0105537,11,1.18361e-05,-4.16185,-0.0801514,-0.736107,-1.9923,0.171815,
2,1,0,1,0,1769.99,0.179582,0.179264,0.0575826,2,0.0111975,11,1.03225e-05,-4.23971,-0.111212,-0.530517,-1.20263,0.179264,
2,1,0,1,0,1777.48,0.187073,0.186797,0.0510204,2,0.0117731,11,9.53047e-06,-4.29226,-0.175774,-0.335659,-0.673305,0.186797,
2,1,0,1,0,1784.97,0.194564,0.194257,0.0468484,2,0.0123082,11,9.10064e-06,-4.32931,-0.294905,-0.200064,-0.370303,0.194257,
2,1,0,1,0,1792.46,0.202055,0.201795,0.0450591,2,0.0128186,11,9.09268e-06,-4.34622,-1.81341,-0.0325354,-0.0577952,0.201795,
2,1,0,1,0,1799.95,0.209546,0.209288,0.0440027,2,0.0133152,11,9.20925e-06,-4.35652,-0.378113,-0.156038,-0.270979,0.209288,
2,1,0,1,0,1807.44,0.217037,0.216739,0.0439913,2,0.0138031,11,9.53463e-06,-4.35663,45.6704,0.00129187,0.00220156,0.216739,
2,1,0,1,0,1814.93,0.224528,0.224278,0.0434996,2,0.0142878,11,9.75602e-06,-4.36151,0.636897,0.0926366,0.157309,0.224278,
2,1,0,1,0,1822.42,0.232019,0.231711,0.0434641,2,0.0147718,11,1.00711e-05,-4.36187,0.664485,0.0887905,0.152647,0.231711,
2,1,0,1,0,1829.92,0.23951,0.239188,0.0440154,2,0.0152568,11,1.05279e-05,-4.3564,1.80442,0.0326974,0.0562545,0.239188,
2,1,0,1,0,1837.41,0.247001,0.246742,0.0448425,2,0.0157446,11,1.10645e-05,-4.34831,-0.969422,-0.060861,-0.105846,0.246742,
2,1,0,1,0,1844.9,0.254492,0.254246,0.0453173,2,0.0162354,11,1.15218e-05,-4.34374,11.3418,0.00520199,0.00913131,0.2542465,
2,1,0,1,0,1852.39,0.261983,0.261681,0.0452046,2,0.0167298,11,1.18292e-05,-4.34482,3.04723,0.0193618,0.0347472,0.261681,
2,1,0,1,0,1859.88,0.269474,0.269168,0.0471026,2,0.0172284,11,1.26785e-05,-4.32695,1.31757,0.0447792,0.0813519,0.2691685,
2,1,0,1,0,1867.37,0.276965,0.276729,0.0472943,2,0.0177315,11,1.30877e-05,-4.32519,0.560704,0.105225,0.19374,0.276729,
2,1,0,1,0,1874.86,0.284456,0.284152,0.0479493,2,0.0182392,11,1.36249e-05,-4.31922,1.34169,0.0439744,0.0819177,0.284152,
2,1,0,1,0,1882.35,0.291947,0.291673,0.048623,2,0.0187513,11,1.41821e-05,-4.31316,0.387146,0.152397,0.289514,0.291673,
2,1,0,1,0,1889.84,0.299438,0.299186,0.0496546,2,0.0192683,11,1.4856e-05,-4.30404,-0.0076926,-7.66971,-11.4337,0.299186,
2,1,0,1,0,1896.69,0.293745,0.293444,0.0142967,2,0.0193181,11,4.1953e-06,-4.84476,0.023258,2.53677,1.41171,0.293444,
2,1,0,1,0,1904.18,0.286254,0.285941,0.00597952,2,0.0192439,11,1.70979e-06,-5.22333,0.0183201,3.22051,0.769242,0.285941,
2,0,0,1,0,1911.67,0.278763,0.278497,0.000393756,2,0.0191176,11,1.0966e-07,-6.40477,0.0183379,3.21739,0.570694,0.278497,
2,0,0,1,0,1919.16,0.271272,0.271006,-0.00404385,2,0.0189515,11,-1.09591e-06,-5.3932,-0.016018,-3.68336,0.582298,0.271006,
2,0,0,1,0,1926.65,0.263781,0.263538,-0.0085485,2,0.018752,11,-2.25285e-06,-5.06811,-0.0371054,-1.59007,0.509251,0.2635377,
2,1,0,1,0,1934.14,0.25629,0.255983,-0.0121917,2,0.0185223,11,-3.12086e-06,-4.91394,-0.042142,-1.40003,0.647438,0.255983,
2,0,0,1,0,1941.63,0.248799,0.248503,-0.0156671,2,0.0182644,11,-3.89333e-06,-4.80501,-0.0625124,-0.943813,0.574251,0.248503,
2,0,0,1,0,1949.12,0.241308,0.240997,-0.0186427,2,0.0179801,11,-4.49282e-06,-4.72949,-0.0928555,-0.635396,0.471892,0.240997,
2,0,0,1,0,1956.61,0.233817,0.233536,-0.0223137,2,0.0176694,11,-5.21104e-06,-4.65143,-0.0942852,-0.625761,0.536869,0.233536,
2,0,0,1,0,1964.1,0.226326,0.22604,-0.025519,2,0.0173321,11,-5.76831e-06,-4.59314,-0.134728,-0.43792,0.438682,0.2260396,
2,0,0,1,0,1971.59,0.218835,0.218563,-0.0286132,2,0.0169678,11,-6.25377e-06,-4.54343,-0.179708,-0.328311,0.371889,0.218563,
2,0,0,1,0,1979.09,0.211344,0.211034,-0.0324501,2,0.0165741,11,-6.84807e-06,-4.48878,-0.151243,-0.3901,0.502383,0.2110339,
2,0,0,1,0,1986.58,0.203853,0.203523,-0.0372296,2,0.0161478,11,-7.57709e-06,-4.42911,-0.157228,-0.375252,0.548652,0.203523,
2,0,0,1,0,1994.07,0.196362,0.196084,-0.0419911,2,0.0156849,11,-8.23379e-06,-4.37684,-0.142326,-0.414543,0.682986,0.196084,
2,0,0,1,0,2001.56,0.188871,0.188557,-0.0492481,2,0.0151767,11,-9.28609e-06,-4.30761,-0.124665,-0.47327,0.898981,0.188557,
2,0,0,1,0,2009.05,0.18138,0.181086,-0.0574636,2,0.0146104,11,-1.04059e-05,-4.24061,-0.0970934,-0.607662,1.35073,0.181086,
2,0,0,1,0,2016.54,0.173889,0.17357,-0.0694902,2,0.0139658,11,-1.20614e-05,-4.15808,-0.0838334,-0.703777,1.89815,0.17357,
2,0,0,1,0,2024.03,0.166398,0.16614,-0.0872612,2,0.0132063,11,-1.44976e-05,-4.05918,-0.069344,-0.85083,2.94093,0.16614,
2,0,0,1,0,2031.52,0.158907,0.158567,-0.115331,2,0.0122687,11,-1.82877e-05,-3.93805,-0.0568206,-1.03836,4.71473,0.158567,
2,0,0,1,0,2039.01,0.151417,0.151158,-0.155419,2,0.0110696,11,-2.34929e-05,-3.80849,-0.0654752,-0.901105,5.45754,0.151158,
2,0,0,1,0,2046.5,0.143926,0.143605,-0.18904,2,0.0095876,11,-2.71471e-05,-3.72345,-0.108966,-0.541453,3.9551,0.143605,
2,0,0,1,0,2054,0.136435,0.136143,-0.204787,2,0.00791898,11,-2.78803e-05,-3.6887,-1.15621,-0.051029,0.404166,0.136143,
2,0,0,1,0,2061.49,0.128944,0.128642,-0.197119,2,0.00622011,11,-2.53579e-05,-3.70527,0.182318,0.323611,-2.48758,0.128642,
2,0,0,1,0,2068.98,0.121453,0.121168,-0.178453,2,0.00462459,11,-2.16228e-05,-3.74848,0.138256,0.426746,-2.97559,0.1211676,
2,0,0,1,0,2076.47,0.113962,0.113646,-0.157142,2,0.0031861,11,-1.78586e-05,-3.80371,0.154214,0.382586,-2.35986,0.113646,
2,0,0,1,0,2083.96,0.106471,0.106216,-0.143662,2,0.00188057,11,-1.52592e-05,-3.84266,0.247875,0.238024,-1.33867,0.106216,
2,0,0,1,0,2091.45,0.0989798,0.098688,-0.134217,2,0.000663334,11,-1.32456e-05,-3.87219,0.267475,0.220582,-1.15738,0.098688,
2,0,0,1,0,2098.94,0.0914889,0.0911549,-0.127104,2,-0.00049347,11,-1.15862e-05,-3.89584,0.370207,0.15937,-0.7935,0.0911549,
2,0,0,1,0,2106.43,0.083998,0.0837151,-0.120963,2,-0.00159864,11,-1.01264e-05,-3.91735,0.235383,0.250655,-1.17644,0.0837151,
2,0,0,1,0,2113.92,0.076507,0.0761819,-0.114349,2,-0.00265234,11,-8.71135e-06,-3.94177,0.377962,0.1561,-0.692177,0.0761819,
2,0,0,1,0,2121.41,0.069016,0.0687145,-0.107273,2,-0.00365543,11,-7.37119e-06,-3.96951,0.337641,0.174742,-0.731912,0.0687145,
2,0,0,1,0,2128.9,0.0615251,0.0612356,-0.102341,2,-0.00461529,11,-6.26688e-06,-3.98995,0.416891,0.141524,-0.565447,0.0612356,
2,0,0,1,0,2136.4,0.0540342,0.0537385,-0.0988659,2,-0.00554006,11,-5.31291e-06,-4.00495,0.551079,0.107063,-0.409554,0.05373849,
2,0,0,1,0,2143.89,0.0465432,0.0462053,-0.0967805,2,-0.00644289,11,-4.47177e-06,-4.01421,1.50345,0.0392431,-0.147918,0.0462053,
2,0,0,1,0,2151.38,0.0390522,0.0387496,-0.0961425,2,-0.00733562,11,-3.72548e-06,-4.01708,2.32993,0.0253227,-0.0945866,0.0387496,
2,0,0,1,0,2158.87,0.0315613,0.0312419,-0.0963145,2,-0.00822819,11,-3.00905e-06,-4.01631,-1.67892,-0.0351416,0.132427,0.0312419,
2,0,0,1,0,2166.36,0.0240703,0.0237872,-0.0984544,2,-0.00912871,11,-2.34196e-06,-4.00676,-0.546856,-0.107889,0.413361,0.0237872,
2,0,0,1,0,2173.85,0.0165794,0.0162775,-0.100323,2,-0.0100452,11,-1.63301e-06,-3.9986,-0.641893,-0.0919157,0.360058,0.0162775,
2,0,0,1,0,2181.34,0.00908843,0.00880367,-0.104168,2,-0.0109845,11,-9.17062e-07,-3.98227,-0.598195,-0.09863,0.402259,0.00880367,
2,0,0,1,0,2188.83,0.00159744,0.00125036,-0.108822,2,-0.0119564,11,-1.36067e-07,-3.96328, , , ,0.00125036,
2,0,0,1,0,2190.23,0.000199235,-0.000170761,-0.109981,2,-0.0121418,11,1.87804e-08,-3.95868, , , ,-0.000170761,

File: 20221101_1-115_002_TrumpetPlot_ParaChange_04_CV_C01_2.csv
mode,ox/red,error,control changes,counter inc.,time/s,control/V,Ewe/V,<I>/mA,cycle number,(Q-Qo)/C,I Range,P/W,log(|I|),Tafel slope mV/dec,alpha_eff,dI/d(E-IR),E-IR/V,
2,0,0,1,0,2822.06,2.44065e-05,-0.000325324,-0.391047,3,0.0000000E+000,11,1.27217e-07,-3.40777, , , ,-0.000325324,
2,0,0,1,0,2829.32,0.00729061,0.00697982,-0.0937498,3,-0.000834807,11,-6.54357e-07,-4.02803,-0.0339593,-1.73737,6.45822,0.00697982,
2,0,0,1,0,2836.82,0.0147815,0.0145108,-0.0624415,3,-0.00125724,11,-9.06074e-07,-4.20453,-0.0458649,-1.28639,3.12466,0.0145108,
2,0,0,1,0,2844.31,0.0222725,0.0219909,-0.0440302,3,-0.00150446,11,-9.68264e-07,-4.35625,-0.0509369,-1.1583,2.01635,0.0219909,
2,0,0,1,0,2851.8,0.0297635,0.0294976,-0.0322986,3,-0.00164373,11,-9.52731e-07,-4.49082,-0.0508856,-1.15946,1.46139,0.0294976,
2,0,0,1,0,2859.29,0.0372544,0.0368896,-0.0228311,3,-0.00170164,11,-8.4223e-07,-4.64147,-0.0339023,-1.74029,1.50529,0.03688959,
2,0,0,1,0,2866.78,0.0447454,0.044444,-0.0133857,3,-0.00169049,11,-5.94913e-07,-4.87336,-0.026,-2.26923,1.19786,0.044444,
2,0,0,1,0,2874.27,0.0522363,0.051924,-0.00491497,3,-0.00161252,11,-2.55205e-07,-5.30848,-0.00799385,-7.38068,1.26317,0.051924,
2,0,0,1,0,2881.76,0.0597273,0.059452,0.00468146,3,-0.00146504,11,2.78322e-07,-5.32962,0.00683226,8.63551,1.3904,0.059452,
2,1,0,1,0,2889.25,0.0672183,0.0669226,0.0148348,3,-0.00124169,11,9.92782e-07,-4.82872,0.0261021,2.26036,1.29786,0.0669226,
2,1,0,1,0,2896.74,0.0747092,0.0744015,0.0264388,3,-0.000938624,11,1.96709e-06,-4.57776,0.0466527,1.26466,1.3083,0.0744015,
2,1,0,1,0,2904.23,0.0822001,0.0819124,0.0360897,3,-0.000554993,11,2.9562e-06,-4.44262,0.0625614,0.943073,1.33948,0.0819124,
2,1,0,1,0,2911.72,0.0896911,0.0893787,0.0454646,3,-9.70208e-05,11,4.06356e-06,-4.34233,0.0739044,0.798329,1.45018,0.0893787,
2,1,0,1,0,2919.22,0.0971821,0.0968992,0.0558344,3,0.000434273,11,5.41031e-06,-4.2531,0.0873949,0.675097,1.46241,0.0968992,
2,1,0,1,0,2926.71,0.104673,0.104397,0.0675197,3,0.00104246,11,7.04887e-06,-4.17057,0.0876719,0.672963,1.763,0.104397,
2,1,0,1,0,2934.2,0.112164,0.111861,0.0832643,3,0.00175345,11,9.31406e-06,-4.07954,0.0750152,0.786507,2.52939,0.111861,
2,1,0,1,0,2941.69,0.119655,0.119363,0.105929,3,0.0026107,11,1.2644e-05,-3.97498,0.0746233,0.790638,3.27099,0.119363,
2,1,0,1,0,2949.18,0.127146,0.126833,0.131666,3,0.0036606,11,1.66997e-05,-3.88052,0.0820316,0.719235,3.72335,0.126833,
2,1,0,1,0,2956.67,0.134637,0.134365,0.155637,3,0.00490589,11,2.09122e-05,-3.80789,0.144334,0.408775,2.48994,0.134365,
2,1,0,1,0,2964.16,0.142128,0.141809,0.164465,3,0.00627651,11,2.33227e-05,-3.78393,6.54553,0.00901379,0.0576104,0.141809,
2,1,0,1,0,2971.65,0.149619,0.149322,0.151048,3,0.00763096,11,2.25549e-05,-3.82088,-0.100428,-0.587486,-3.45876,0.149322,
2,1,0,1,0,2979.14,0.15711,0.156798,0.119028,3,0.00880444,11,1.86633e-05,-3.92435,-0.056031,-1.05299,-4.88468,0.156798,
2,1,0,1,0,2986.63,0.164601,0.164341,0.088474,3,0.00972776,11,1.45399e-05,-4.05318,-0.0612438,-0.963363,-3.31061,0.164341,
2,1,0,1,0,2994.13,0.172091,0.171805,0.0688305,3,0.0104616,11,1.18254e-05,-4.16222,-0.086763,-0.680014,-1.83613,0.171805,
2,1,0,1,0,3001.62,0.179582,0.179292,0.0582105,3,0.0110853,11,1.04367e-05,-4.235,-0.13702,-0.430593,-0.983284,0.179292,
2,1,0,1,0,3009.11,0.187073,0.186811,0.0524735,3,0.0116472,11,9.80264e-06,-4.28006,-0.262326,-0.224911,-0.457998,0.186811,
2,1,0,1,0,3016.6,0.194564,0.194261,0.0487995,3,0.012172,11,9.47986e-06,-4.31158,-0.476891,-0.123718,-0.235207,0.194261,
2,1,0,1,0,3024.09,0.202055,0.201783,0.0473833,3,0.0126754,11,9.56114e-06,-4.32437,-0.566754,-0.104102,-0.191958,0.201783,
2,1,0,1,0,3031.58,0.209546,0.209247,0.045952,3,0.0131662,11,9.61532e-06,-4.3377,-0.760762,-0.0775538,-0.140232,0.209247,
2,1,0,1,0,3039.07,0.217037,0.216714,0.045586,3,0.0136497,11,9.87914e-06,-4.34117,-3.80383,-0.0155107,-0.0276005,0.216714,
2,1,0,1,0,3046.56,0.224528,0.224256,0.0454042,3,0.0141307,11,1.01822e-05,-4.3429,2.43677,0.0242124,0.0429991,0.224256,
2,1,0,1,0,3054.05,0.232019,0.231731,0.0459316,3,0.0146117,11,1.06438e-05,-4.33789,0.73042,0.0807755,0.144532,0.231731,
2,1,0,1,0,3061.54,0.23951,0.239208,0.0459174,3,0.0150942,11,1.09838e-05,-4.33802,8.29281,0.0071146,0.012894,0.2392077,
2,1,0,1,0,3069.03,0.247001,0.246707,0.0472011,3,0.01558,11,1.16448e-05,-4.32605,0.612675,0.0962991,0.176352,0.246707,
2,1,0,1,0,3076.53,0.254492,0.254195,0.0476072,3,0.0160692,11,1.21015e-05,-4.32233,-1.22663,-0.0480992,-0.0884978,0.254195,
2,1,0,1,0,3084.02,0.261983,0.261711,0.0481139,3,0.0165623,11,1.25919e-05,-4.31773,0.992947,0.0594191,0.11096,0.2617107,
2,1,0,1,0,3091.51,0.269474,0.269211,0.0488098,3,0.0170597,11,1.31401e-05,-4.31149,0.990915,0.0595409,0.113373,0.269211,
2,1,0,1,0,3099,0.276965,0.276654,0.049604,3,0.0175619,11,1.37231e-05,-4.30448,0.567455,0.103973,0.200611,0.276654,
2,1,0,1,0,3106.49,0.284456,0.284178,0.0502763,3,0.0180687,11,1.42874e-05,-4.29864,4.05697,0.0145429,0.0284071,0.284178,
2,1,0,1,0,3113.98,0.291947,0.291701,0.0512117,3,0.01858,11,1.49385e-05,-4.29063,-4.36014,-0.0135317,-0.0270535,0.291701,
2,1,0,1,0,3121.47,0.299438,0.299137,0.0518481,3,0.0190958,11,1.55097e-05,-4.28527,-0.00635172,-9.28882,-13.6552,0.299137,
2,1,0,1,0,3128.31,0.293745,0.293442,0.011315,3,0.0191465,11,3.3203e-06,-4.94635,0.0187571,3.14548,1.46469,0.293442,
2,1,0,1,0,3135.8,0.286254,0.285975,0.00413005,3,0.0190729,11,1.18109e-06,-5.38404,0.0121278,4.86485,0.744303,0.285975,
2,1,0,1,0,3143.3,0.278763,0.278446,-0.00203344,3,0.018947,11,-5.66203e-07,-5.69177,-0.00498461,-11.8364,0.67345,0.278446,
2,0,0,1,0,3150.79,0.271272,0.27096,-0.0065882,3,0.0187815,11,-1.78513e-06,-5.18123,-0.0202029,-2.92038,0.73449,0.2709595,
2,0,0,1,0,3158.28,0.263781,0.263499,-0.010572,3,0.0185826,11,-2.78571e-06,-4.97584,-0.0412374,-1.43074,0.589638,0.2634995,
2,0,0,1,0,3165.77,0.25629,0.255957,-0.0138413,3,0.0183538,11,-3.54276e-06,-4.85882,-0.0964713,-0.611581,0.339184,0.2559568,
2,0,0,1,0,3173.26,0.248799,0.248541,-0.0173092,3,0.0180975,11,-4.30206e-06,-4.76172,-0.0955072,-0.617754,0.431887,0.248541,
2,0,0,1,0,3180.75,0.241308,0.241055,-0.0208614,3,0.0178149,11,-5.02875e-06,-4.68066,-0.118549,-0.497686,0.402631,0.241055,
2,0,0,1,0,3188.24,0.233817,0.233492,-0.023937,3,0.0175064,11,-5.58911e-06,-4.62093,-0.129693,-0.454919,0.440115,0.233492,
2,0,0,1,0,3195.73,0.226326,0.226064,-0.0274229,3,0.0171721,11,-6.19933e-06,-4.56189,-0.13586,-0.43427,0.468191,0.226064,
2,0,0,1,0,3203.22,0.218835,0.218555,-0.0313736,3,0.0168108,11,-6.85686e-06,-4.50344,-0.212579,-0.277544,0.339084,0.218555,
2,0,0,1,0,3210.71,0.211344,0.21106,-0.0351015,3,0.0164216,11,-7.40855e-06,-4.45467,-0.125063,-0.471763,0.644022,0.21106,
2,0,0,1,0,3218.21,0.203853,0.203531,-0.0383976,3,0.0160009,11,-7.81512e-06,-4.4157,-0.162721,-0.362585,0.553053,0.203531,
2,0,0,1,0,3225.7,0.196362,0.196058,-0.0440479,3,0.0155455,11,-8.63594e-06,-4.35607,-0.152079,-0.387956,0.66694,0.196058,
2,0,0,1,0,3233.19,0.188871,0.188566,-0.0500777,3,0.015047,11,-9.44294e-06,-4.30036,-0.101255,-0.58269,1.1367,0.188566,
2,0,0,1,0,3240.68,0.18138,0.181099,-0.0573895,3,0.0144948,11,-1.03932e-05,-4.24117,-0.115322,-0.511609,1.15082,0.181099,
2,0,0,1,0,3248.17,0.173889,0.173599,-0.0690808,3,0.0138696,11,-1.19924e-05,-4.16064,-0.0960783,-0.614083,1.65461,0.173599,
2,0,0,1,0,3255.66,0.166398,0.166075,-0.0859378,3,0.0131375,11,-1.42721e-05,-4.06582,-0.0728458,-0.809931,2.73944,0.166075,
2,0,0,1,0,3263.15,0.158907,0.158602,-0.112021,3,0.0122397,11,-1.77668e-05,-3.9507,-0.059885,-0.985221,4.36605,0.158602,
2,0,0,1,0,3270.64,0.151417,0.151092,-0.150324,3,0.0110952,11,-2.27128e-05,-3.82297,-0.0706714,-0.83485,4.91118,0.151092,
2,0,0,1,0,3278.13,0.143926,0.143668,-0.18489,3,0.00967253,11,-2.65628e-05,-3.73309,-0.10093,-0.584562,4.18056,0.143668,
2,0,0,1,0,3285.62,0.136435,0.136131,-0.201091,3,0.00805518,11,-2.73747e-05,-3.69661,-0.521848,-0.11306,0.882763,0.136131,
2,0,0,1,0,3293.11,0.128944,0.128608,-0.198068,3,0.00638866,11,-2.54733e-05,-3.70318,0.226936,0.259985,-2.0012,0.128608,
2,0,0,1,0,3300.61,0.121453,0.12116,-0.18222,3,0.0047993,11,-2.20779e-05,-3.7394,0.168267,0.350633,-2.49399,0.12116,
2,0,0,1,0,3308.1,0.113962,0.113692,-0.162557,3,0.00334591,11,-1.84814e-05,-3.78899,0.167418,0.352412,-2.25622,0.113692,
2,0,0,1,0,3315.59,0.106471,0.106187,-0.149325,3,0.00201855,11,-1.58564e-05,-3.82587,0.249491,0.236481,-1.38444,0.106187,
2,0,0,1,0,3323.08,0.0989798,0.0987462,-0.139979,3,0.000779647,11,-1.38224e-05,-3.85394,0.347568,0.169751,-0.925708,0.0987462,
2,0,0,1,0,3330.57,0.0914889,0.0911962,-0.134303,3,-0.000399225,11,-1.22479e-05,-3.87191,0.452618,0.130353,-0.680484,0.0911962,
2,0,0,1,0,3338.06,0.083998,0.0836737,-0.126936,3,-0.00152922,11,-1.06212e-05,-3.89641,0.264275,0.223252,-1.1038,0.08367373,
2,0,0,1,0,3345.55,0.076507,0.0761597,-0.121275,3,-0.00261059,11,-9.23629e-06,-3.91623,0.328908,0.179381,-0.845282,0.0761597,
2,0,0,1,0,3353.04,0.069016,0.0687411,-0.11448,3,-0.00364077,11,-7.86949e-06,-3.94127,0.45116,0.130774,-0.582209,0.0687411,
2,0,0,1,0,3360.53,0.0615251,0.0612302,-0.107959,3,-0.00462329,11,-6.61036e-06,-3.96674,0.336296,0.175441,-0.737073,0.0612302,
2,0,0,1,0,3368.02,0.0540342,0.0537427,-0.103507,3,-0.0055642,11,-5.56277e-06,-3.98503,0.503894,0.117088,-0.472242,0.0537427,
2,0,0,1,0,3375.52,0.0465432,0.0462467,-0.100875,3,-0.00647676,11,-4.66513e-06,-3.99622,0.815697,0.0723308,-0.284344,0.0462467,
2,0,0,1,0,3383.01,0.0390522,0.0387421,-0.0989766,3,-0.00737344,11,-3.83457e-06,-4.00447,1.21669,0.0484924,-0.1879,0.03874214,
2,0,0,1,0,3390.5,0.0315613,0.0312313,-0.0993811,3,-0.00826566,11,-3.10381e-06,-4.0027,-3.82114,-0.0154404,0.0599114,0.03123134,
2,0,0,1,0,3397.99,0.0240703,0.0238053,-0.100483,3,-0.00916296,11,-2.39202e-06,-3.99791,-1.23796,-0.0476591,0.187428,0.0238053,
2,0,0,1,0,3405.48,0.0165794,0.016285,-0.102881,3,-0.0100741,11,-1.67542e-06,-3.98766,-0.697255,-0.0846175,0.340109,0.016285,
2,0,0,1,0,3412.97,0.00908843,0.00879311,-0.106665,3,-0.0110064,11,-9.37919e-07,-3.97198,-0.708084,-0.0833235,0.346215,0.00879311,
2,0,0,1,0,3420.46,0.00159744,0.00123763,-0.111077,3,-0.0119695,11,-1.37471e-07,-3.95438, , , ,0.00123763,
2,0,0,1,0,3421.86,0.000199235,-0.000187815,-0.111491,3,-0.012153,11,2.09398e-08,-3.95276, , , ,-0.000187815,