Folder: Figs_alphaMnO2_OER_Tafel_sleope/Figure_codes/Fig_3-5/rawdata_trumpetplot_data/before 10th (part 9)

File: 20221101_1-115_002_TrumpetPlot_ParaChange_05_CV_C01_4.csv
mode,ox/red,error,control changes,counter inc.,time/s,control/V,Ewe/V,<I>/mA,cycle number,(Q-Qo)/C,I Range,P/W,log(|I|),Tafel slope mV/dec,alpha_eff,dI/d(E-IR),E-IR/V,
2,0,0,1,0,5885.4,2.44065e-05,-0.000287149,-0.0211506,5,0.0000000E+000,11,6.07338e-09,-4.67468, , , ,-0.0002871489,
2,1,0,1,0,5886.85,0.00729041,0.00699747,0.210683,5,0.0002936,11,1.47425e-06,-3.67637,0.112557,0.524177,4.26282,0.00699747,
2,1,0,1,0,5888.35,0.0147815,0.0144829,0.231808,5,0.000653934,11,3.35726e-06,-3.63487,0.218747,0.269718,2.44496,0.0144829,
2,1,0,1,0,5889.85,0.0222725,0.0219783,0.248129,5,0.00103988,11,5.45346e-06,-3.60532,0.271701,0.21715,2.08018,0.0219783,
2,1,0,1,0,5891.35,0.0297635,0.0294732,0.259786,5,0.00144575,11,7.65673e-06,-3.58538,0.420364,0.140354,1.42142,0.0294732,
2,1,0,1,0,5892.85,0.0372545,0.0369237,0.273786,5,0.00187266,11,1.01092e-05,-3.56259,0.282244,0.209039,2.24452,0.03692368,
2,1,0,1,0,5894.34,0.0447456,0.044493,0.295284,5,0.00232547,11,1.31381e-05,-3.52976,0.212643,0.277461,3.18479,0.044493,
2,1,0,1,0,5895.84,0.0522367,0.0519497,0.319899,5,0.00281215,11,1.66186e-05,-3.49499,0.167038,0.353213,4.40759,0.0519497,
2,1,0,1,0,5897.34,0.0597277,0.0594269,0.352285,5,0.00334242,11,2.09352e-05,-3.45311,0.198222,0.297646,4.08033,0.0594269,
2,1,0,1,0,5898.84,0.0672187,0.066928,0.388243,5,0.00392298,11,2.59843e-05,-3.4109,0.200992,0.293543,4.42467,0.066928,
2,1,0,1,0,5900.34,0.0747092,0.0744386,0.421122,5,0.00455606,11,3.13477e-05,-3.37559,0.229773,0.256775,4.22129,0.0744386,
2,1,0,0,0,5901.84,0.0822001,0.0819092,0.448991,5,0.0052381,11,3.67765e-05,-3.34776,0.262058,0.225141,3.96344,0.0819092,
2,1,0,1,0,5903.33,0.0896911,0.0894179,0.481038,5,0.00596391,11,4.30134e-05,-3.31782,0.275099,0.214468,4.01921,0.0894179,
2,1,0,0,0,5904.83,0.097182,0.0968662,0.508946,5,0.00673286,11,4.92996e-05,-3.29333,0.211937,0.278384,5.54111,0.0968662,
2,1,0,1,0,5906.33,0.104673,0.104397,0.554396,5,0.00755435,11,5.78774e-05,-3.25618,0.183971,0.320703,6.91936,0.104397,
2,1,0,0,0,5907.83,0.112164,0.111883,0.617341,5,0.00845418,11,6.90697e-05,-3.20948,0.15941,0.370114,8.90322,0.111883,
2,1,0,1,0,5909.33,0.119655,0.119364,0.699956,5,0.00946642,11,8.35495e-05,-3.15493,0.148341,0.397733,10.9001,0.119364,
2,1,0,0,0,5910.82,0.127146,0.126833,0.78293,5,0.0106099,11,9.93016e-05,-3.10628,0.170608,0.345823,10.6284,0.126833,
2,1,0,1,0,5912.32,0.134637,0.134316,0.857486,5,0.0118742,11,0.000115174,-3.06677,0.27275,0.216315,7.25683,0.134316,
2,1,0,1,0,5913.82,0.142127,0.141827,0.882762,5,0.0132137,11,0.0001252,-3.05416,-1.86785,-0.0315871,-1.08075,0.141827,
2,1,0,1,0,5915.32,0.149618,0.149313,0.818184,5,0.0145274,11,0.000122165,-3.08715,-0.122712,-0.480799,-15.2763,0.149313,
2,1,0,1,0,5916.82,0.157109,0.156857,0.672363,5,0.0156775,11,0.000105465,-3.1724,-0.0671694,-0.878376,-22.9817,0.1568571,
2,1,0,1,0,5918.32,0.1646,0.164307,0.52545,5,0.016597,11,8.63349e-05,-3.27947,-0.0736968,-0.800577,-16.448,0.164307,
2,1,0,1,0,5919.81,0.172091,0.171781,0.429006,5,0.0173335,11,7.3695e-05,-3.36754,-0.105365,-0.559958,-9.43497,0.171781,
2,1,0,1,0,5921.31,0.179582,0.179341,0.376345,5,0.0179612,11,6.74943e-05,-3.42441,-0.154817,-0.381094,-5.6224,0.179341,
2,1,0,1,0,5922.81,0.187074,0.186774,0.343375,5,0.0185256,11,6.41334e-05,-3.46423,-0.231905,-0.254414,-3.40898,0.186774,
2,1,0,1,0,5924.31,0.194564,0.194249,0.321845,5,0.0190509,11,6.2518e-05,-3.49235,-0.377985,-0.156091,-1.96241,0.194249,
2,1,0,1,0,5925.81,0.202056,0.201781,0.308151,5,0.0195497,11,6.2179e-05,-3.51124,-0.381223,-0.154765,-1.8521,0.201781,
2,1,0,1,0,5927.3,0.209547,0.209274,0.297772,5,0.0200305,11,6.23159e-05,-3.52612,-0.56658,-0.104134,-1.20788,0.209274,
2,1,0,1,0,5928.8,0.217038,0.216754,0.289209,5,0.020497,11,6.26872e-05,-3.53879,-0.8098,-0.0728575,-0.823912,0.216754,
2,1,0,1,0,5930.3,0.224529,0.224234,0.283267,5,0.0209535,11,6.35181e-05,-3.5478,-0.667234,-0.0884247,-0.97601,0.224234,
2,1,0,1,0,5931.8,0.232019,0.231714,0.278527,5,0.0214017,11,6.45386e-05,-3.55513,-0.967135,-0.0610049,-0.662648,0.231714,
2,1,0,0,0,5933.3,0.23951,0.239167,0.274689,5,0.0218432,11,6.56966e-05,-3.56116,-1.5764,-0.0374271,-0.400466,0.239167,
2,1,0,1,0,5934.8,0.247001,0.246701,0.271638,5,0.0222794,11,6.70134e-05,-3.56601,-1.12742,-0.052332,-0.55332,0.246701,
2,1,0,0,0,5936.29,0.254492,0.254208,0.267957,5,0.0227109,11,6.81168e-05,-3.57194,-0.809652,-0.0728708,-0.763369,0.254208,
2,1,0,1,0,5937.79,0.261983,0.261683,0.264861,5,0.0231382,11,6.93096e-05,-3.57698,-1.12374,-0.0525031,-0.542843,0.261683,
2,1,0,0,0,5939.29,0.269474,0.269224,0.262889,5,0.023562,11,7.07759e-05,-3.58023,71.9203,0.000820352,0.00841828,0.269224,
2,1,0,1,0,5940.79,0.276965,0.27671,0.261033,5,0.0239826,11,7.22304e-05,-3.5833,27.5744,0.00213967,0.0218514,0.27671,
2,1,0,0,0,5942.29,0.284456,0.284174,0.258519,5,0.0244001,11,7.34645e-05,-3.58751,-1.3143,-0.0448908,-0.453801,0.284174,
2,1,0,1,0,5943.78,0.291947,0.291697,0.257048,5,0.0248148,11,7.49802e-05,-3.58999,-1.18778,-0.0496725,-0.499254,0.291697,
2,1,0,1,0,5945.28,0.299437,0.299166,0.253452,5,0.0252266,11,7.58241e-05,-3.5961,-0.00175337,-33.6495,-127.726,0.2991659,
2,0,0,1,0,5946.65,0.293744,0.293451,-0.0321535,5,0.0252305,11,-9.43547e-06,-4.49277,-0.0127399,-4.63112,5.1091,0.2934505,
2,0,0,1,0,5948.15,0.286253,0.28591,-0.0593019,5,0.0251332,11,-1.6955e-05,-4.22693,-0.0490973,-1.20169,2.78492,0.28591,
2,0,0,0,0,5949.65,0.278763,0.278424,-0.0786647,5,0.0250017,11,-2.19021e-05,-4.10422,-0.0833158,-0.708149,2.16028,0.2784237,
2,0,0,1,0,5951.15,0.271272,0.270962,-0.0939291,5,0.0248448,11,-2.54512e-05,-4.0272,-0.10377,-0.568564,2.07289,0.270962,
2,0,0,0,0,5952.64,0.263781,0.263477,-0.105929,5,0.0246667,11,-2.79098e-05,-3.97499,-0.138002,-0.427531,1.7879,0.2634773,
2,0,0,1,0,5954.14,0.25629,0.255983,-0.119235,5,0.02447,11,-3.05223e-05,-3.9236,-0.191912,-0.307433,1.41223,0.255983,
2,0,0,0,0,5955.64,0.248799,0.248494,-0.129572,5,0.0242565,11,-3.21979e-05,-3.88749,-0.215795,-0.273408,1.38182,0.248494,
2,0,0,1,0,5957.14,0.241308,0.241008,-0.139756,5,0.0240269,11,-3.36824e-05,-3.85463,-0.250416,-0.235608,1.28916,0.241008,
2,0,0,0,0,5958.64,0.233817,0.233508,-0.150848,5,0.0237814,11,-3.52243e-05,-3.82146,-0.221186,-0.266744,1.55882,0.2335081,
2,0,0,1,0,5960.14,0.226326,0.225998,-0.160309,5,0.0235203,11,-3.62295e-05,-3.79504,-0.219684,-0.268568,1.69763,0.2259983,
2,0,0,0,0,5961.63,0.218835,0.218519,-0.172846,5,0.0232427,11,-3.77701e-05,-3.76234,-0.220146,-0.268003,1.80394,0.218519,
2,0,0,1,0,5963.13,0.211344,0.211046,-0.184032,5,0.022948,11,-3.8839e-05,-3.73511,-0.255821,-0.23063,1.66237,0.211046,
2,0,0,1,0,5964.63,0.203854,0.203525,-0.196708,5,0.0226334,11,-4.00351e-05,-3.70618,-0.248547,-0.23738,1.84566,0.203525,
2,0,0,1,0,5966.13,0.196363,0.196054,-0.215759,5,0.0222968,11,-4.23003e-05,-3.66603,-0.1878,-0.314164,2.63497,0.196054,
2,0,0,1,0,5967.63,0.188871,0.188583,-0.236404,5,0.0219316,11,-4.45818e-05,-3.62635,-0.146111,-0.403803,3.71371,0.188583,
2,0,0,1,0,5969.12,0.181381,0.181083,-0.265481,5,0.0215297,11,-4.80741e-05,-3.57597,-0.140381,-0.420284,4.33867,0.181083,
2,0,0,1,0,5970.62,0.173889,0.173565,-0.306965,5,0.0210763,11,-5.32783e-05,-3.51291,-0.0951612,-0.620001,7.39403,0.173565,
2,0,0,1,0,5972.12,0.166398,0.166113,-0.368587,5,0.0205453,11,-6.12271e-05,-3.43346,-0.0807458,-0.730688,10.6457,0.166113,
2,0,0,1,0,5973.62,0.158907,0.158596,-0.471808,5,0.0198911,11,-7.48267e-05,-3.32624,-0.0627808,-0.939778,17.3981,0.158596,
2,0,0,1,0,5975.12,0.151416,0.151141,-0.62318,5,0.0190464,11,-9.41879e-05,-3.20539,-0.0667027,-0.884522,21.4728,0.151141,
2,0,0,1,0,5976.62,0.143925,0.1436,-0.776837,5,0.0179665,11,-0.000111554,-3.10967,-0.0893216,-0.660534,19.917,0.1436,
2,0,0,1,0,5978.11,0.136434,0.136094,-0.877057,5,0.0166904,11,-0.000119362,-3.05697,-0.273171,-0.215982,7.34579,0.136094,
2,0,0,1,0,5979.61,0.128943,0.128611,-0.890699,5,0.0153315,11,-0.000114554,-3.05027,0.581831,0.101404,-3.5027,0.128611,
2,0,0,0,0,5981.11,0.121453,0.121182,-0.841252,5,0.0140018,11,-0.000101945,-3.07507,0.208061,0.283571,-9.29385,0.121182,
2,0,0,1,0,5982.61,0.113962,0.113643,-0.759295,5,0.0127701,11,-8.62885e-05,-3.11959,0.162098,0.363976,-10.8601,0.113643,
2,0,0,0,0,5984.11,0.106471,0.106202,-0.688437,5,0.0116566,11,-7.31134e-05,-3.16214,0.183613,0.321328,-8.67821,0.106202,
2,0,0,1,0,5985.6,0.0989799,0.0986817,-0.634185,5,0.0106419,11,-6.25825e-05,-3.19778,0.279174,0.211338,-5.21442,0.0986817,
2,0,0,0,0,5987.1,0.0914889,0.0911803,-0.599327,5,0.00969528,11,-5.46468e-05,-3.22234,0.345831,0.170604,-3.97983,0.0911803,
2,0,0,1,0,5988.6,0.083998,0.0837108,-0.569371,5,0.00879486,11,-4.76625e-05,-3.2446,0.291981,0.202068,-4.48603,0.0837108,
2,0,0,0,0,5990.1,0.076507,0.0762042,-0.54562,5,0.00793329,11,-4.15785e-05,-3.26311,0.353592,0.166859,-3.53717,0.0762042,
2,0,0,1,0,5991.6,0.0690161,0.0687432,-0.512786,5,0.00711295,11,-3.52505e-05,-3.29006,0.269278,0.219104,-4.4074,0.0687432,
2,0,0,0,0,5993.1,0.0615251,0.0612482,-0.482732,5,0.00633817,11,-2.95665e-05,-3.31629,0.246097,0.239743,-4.52708,0.0612482,
2,0,0,1,0,5994.59,0.0540342,0.0537098,-0.452966,5,0.00561141,11,-2.43287e-05,-3.34393,0.272093,0.216838,-3.82274,0.0537098,
2,0,0,1,0,5996.09,0.0465436,0.0462258,-0.427404,5,0.0049262,11,-1.97571e-05,-3.36916,0.392827,0.150193,-2.51326,0.0462258,
2,0,0,1,0,5997.59,0.0390526,0.0387564,-0.411703,5,0.00427153,11,-1.59561e-05,-3.38542,0.501338,0.117685,-1.88878,0.0387564,
2,0,0,1,0,5999.09,0.0315615,0.0312295,-0.403093,5,0.00363532,11,-1.25884e-05,-3.39459,1.24082,0.0475492,-0.748785,0.0312295,
2,0,0,1,0,6000.59,0.0240706,0.0237759,-0.400432,5,0.0030069,11,-9.52065e-06,-3.39747,12.7502,0.00462739,-0.0726084,0.02377592,
2,0,0,1,0,6002.08,0.0165795,0.0163094,-0.404751,5,0.00237727,11,-6.60125e-06,-3.39281,-1.27699,-0.0462023,0.727934,0.0163094,
2,0,0,1,0,6003.58,0.00908846,0.00879204,-0.410634,5,0.00173962,11,-3.61031e-06,-3.38654,-0.708014,-0.0833317,1.33809,0.00879204,
2,0,0,1,0,6005.08,0.00159739,0.00124169,-0.424052,5,0.00108676,11,-5.26539e-07,-3.37258, , , ,0.00124169,
2,0,0,0,0,6005.36,0.000199195,-0.000151629,-0.42265,5,0.000963149,11,6.40859e-08,-3.37402, , , ,-0.000151629,

File: 20221101_1-115_002_TrumpetPlot_ParaChange_05_CV_C01_5.csv
mode,ox/red,error,control changes,counter inc.,time/s,control/V,Ewe/V,<I>/mA,cycle number,(Q-Qo)/C,I Range,P/W,log(|I|),Tafel slope mV/dec,alpha_eff,dI/d(E-IR),E-IR/V,
2,0,0,1,0,7117.03,2.44065e-05,-0.000306236,-0.0265613,6,0.0000000E+000,11,8.13402e-09,-4.57575, , , ,-0.000306236,
2,1,0,1,0,7118.48,0.00729041,0.00701133,0.208949,6,0.000292804,11,1.46501e-06,-3.67996,0.112254,0.525593,4.24716,0.007011327,
2,1,0,1,0,7119.98,0.0147815,0.0144726,0.230894,6,0.000651477,11,3.34165e-06,-3.63659,0.222594,0.265056,2.38856,0.01447264,
2,1,0,1,0,7121.48,0.0222725,0.0219983,0.246482,6,0.00103696,11,5.4222e-06,-3.60821,0.258445,0.228288,2.19535,0.0219983,
2,1,0,1,0,7122.98,0.0297635,0.0294774,0.262325,6,0.00144426,11,7.73266e-06,-3.58116,0.283299,0.208261,2.12392,0.0294774,
2,1,0,1,0,7124.47,0.0372545,0.0369609,0.276802,6,0.00187537,11,1.02309e-05,-3.55783,0.220559,0.267502,2.91224,0.0369609,
2,1,0,1,0,7125.97,0.0447456,0.0444517,0.301321,6,0.00233568,11,1.33942e-05,-3.52097,0.211018,0.279597,3.27274,0.0444517,
2,1,0,1,0,7127.47,0.0522367,0.0519583,0.329292,6,0.00283392,11,1.71094e-05,-3.48242,0.147235,0.40072,5.14408,0.0519583,
2,1,0,1,0,7128.97,0.0597277,0.0594174,0.362749,6,0.00337888,11,2.15536e-05,-3.44039,0.193429,0.305022,4.31733,0.0594174,
2,1,0,1,0,7130.47,0.0672187,0.0669377,0.398871,6,0.00397543,11,2.66995e-05,-3.39917,0.218579,0.269926,4.17288,0.0669377,
2,1,0,1,0,7131.97,0.0747092,0.0744026,0.429027,6,0.00462294,11,3.19207e-05,-3.36752,0.260064,0.226868,3.81293,0.0744026,
2,1,0,0,0,7133.46,0.0822001,0.0819357,0.456532,6,0.00531696,11,3.74063e-05,-3.34053,0.313853,0.187986,3.36546,0.0819357,
2,1,0,1,0,7134.96,0.0896911,0.0893713,0.486999,6,0.00605167,11,4.35238e-05,-3.31247,0.299213,0.197184,3.74667,0.0893713,
2,1,0,0,0,7136.46,0.097182,0.0968503,0.515135,6,0.00682865,11,4.9891e-05,-3.28808,0.207128,0.284848,5.72859,0.0968503,
2,1,0,1,0,7137.96,0.104673,0.104427,0.562069,6,0.00765972,11,5.86952e-05,-3.25021,0.174797,0.337535,7.37738,0.104427,
2,1,0,0,0,7139.46,0.112164,0.111843,0.625653,6,0.00857206,11,6.99751e-05,-3.20367,0.158857,0.371404,9.04631,0.111843,
2,1,0,1,0,7140.95,0.119655,0.11935,0.704401,6,0.00959471,11,8.40702e-05,-3.15218,0.16106,0.366323,10.0973,0.11935,
2,1,0,0,0,7142.45,0.127146,0.12684,0.775397,6,0.0107352,11,9.83512e-05,-3.11048,0.192201,0.306971,9.33593,0.1268397,
2,1,0,1,0,7143.95,0.134637,0.134334,0.837959,6,0.0119798,11,0.000112566,-3.07678,0.364726,0.161765,5.30636,0.134334,
2,1,0,1,0,7145.45,0.142127,0.141857,0.852254,6,0.013283,11,0.000120898,-3.06943,-0.769014,-0.0767216,-2.53595,0.1418568,
2,1,0,1,0,7146.95,0.149618,0.149352,0.777997,6,0.0145433,11,0.000116195,-3.10902,-0.109377,-0.539419,-16.2797,0.149352,
2,1,0,1,0,7148.45,0.157109,0.156808,0.629057,6,0.015628,11,9.86411e-05,-3.20131,-0.067196,-0.878029,-21.5348,0.156808,
2,1,0,1,0,7149.94,0.1646,0.164335,0.493107,6,0.0164908,11,8.10349e-05,-3.30706,-0.075864,-0.777708,-15.0509,0.164335,
2,1,0,1,0,7151.44,0.172091,0.171801,0.408577,6,0.0171895,11,7.01938e-05,-3.38873,-0.119783,-0.492557,-7.91288,0.171801,
2,1,0,1,0,7152.94,0.179582,0.179286,0.364189,6,0.0177929,11,6.52942e-05,-3.43867,-0.179915,-0.327933,-4.65804,0.179286,
2,1,0,1,0,7154.44,0.187074,0.186738,0.334026,6,0.0183409,11,6.23753e-05,-3.47622,-0.292826,-0.201485,-2.63307,0.186738,
2,1,0,1,0,7155.94,0.194564,0.194233,0.314987,6,0.0188544,11,6.11809e-05,-3.50171,-0.422848,-0.13953,-1.72653,0.194233,
2,1,0,1,0,7157.43,0.202056,0.201759,0.303902,6,0.0193449,11,6.13148e-05,-3.51727,-0.487703,-0.120975,-1.42852,0.201759,
2,1,0,1,0,7158.93,0.209547,0.209315,0.293677,6,0.0198195,11,6.1471e-05,-3.53213,-0.607633,-0.097098,-1.11495,0.209315,
2,1,0,1,0,7160.43,0.217038,0.216757,0.286623,6,0.0202816,11,6.21276e-05,-3.54269,-0.84896,-0.0694968,-0.778618,0.216757,
2,1,0,1,0,7161.93,0.224529,0.224268,0.282162,6,0.0207348,11,6.328e-05,-3.5495,-0.857062,-0.0688398,-0.756774,0.224268,
2,1,0,1,0,7163.43,0.232019,0.231718,0.27653,6,0.0211805,11,6.40769e-05,-3.55826,-0.800326,-0.07372,-0.798768,0.231718,
2,1,0,0,0,7164.93,0.23951,0.239205,0.274456,6,0.0216204,11,6.56511e-05,-3.56153,-1.05102,-0.0561361,-0.598472,0.2392046,
2,1,0,1,0,7166.42,0.247001,0.246721,0.270146,6,0.0220551,11,6.66507e-05,-3.5684,-1.72352,-0.0342323,-0.36065,0.246721,
2,1,0,0,0,7167.92,0.254492,0.254185,0.267551,6,0.0224854,11,6.80075e-05,-3.57259,-6.90102,-0.00854946,-0.0893791,0.254185,
2,1,0,1,0,7169.42,0.261983,0.261686,0.264952,6,0.0229117,11,6.93344e-05,-3.57683,-13.0676,-0.00451498,-0.046787,0.261686,
2,1,0,0,0,7170.92,0.269474,0.269202,0.262812,6,0.0233345,11,7.07497e-05,-3.58035,-4.37276,-0.0134926,-0.138291,0.269202,
2,1,0,1,0,7172.42,0.276965,0.276673,0.259472,6,0.0237543,11,7.17888e-05,-3.58591,-1.36625,-0.043184,-0.439447,0.276673,
2,1,0,0,0,7173.91,0.284456,0.284189,0.258839,6,0.0241711,11,7.35594e-05,-3.58697,-20.6141,-0.00286211,-0.0287957,0.284189,
2,1,0,1,0,7175.41,0.291947,0.29165,0.255921,6,0.024585,11,7.46394e-05,-3.59189,-6.12602,-0.00963106,-0.0969559,0.29165,
2,1,0,1,0,7176.91,0.299437,0.299176,0.254501,6,0.0249962,11,7.61405e-05,-3.59431,-0.00166126,-35.5153,-132.914,0.299176,
2,0,0,1,0,7178.28,0.293744,0.293437,-0.0304256,6,0.0250003,11,-8.92798e-06,-4.51676,-0.0122443,-4.81856,5.24426,0.293437,
2,0,0,1,0,7179.78,0.286253,0.285972,-0.0585316,6,0.0249044,11,-1.67384e-05,-4.23261,-0.0440935,-1.33806,3.03349,0.285972,
2,0,0,0,0,7181.28,0.278763,0.278419,-0.0776713,6,0.0247743,11,-2.16252e-05,-4.10974,-0.0839169,-0.703077,2.0991,0.278419,
2,0,0,1,0,7182.77,0.271272,0.270948,-0.0929977,6,0.0246188,11,-2.51975e-05,-4.03153,-0.120486,-0.489682,1.77741,0.2709479,
2,0,0,0,0,7184.27,0.263781,0.26346,-0.105707,6,0.0244423,11,-2.78496e-05,-3.9759,-0.151894,-0.388428,1.59963,0.26346,
2,0,0,1,0,7185.77,0.25629,0.255983,-0.117765,6,0.0242473,11,-3.01458e-05,-3.92898,-0.190192,-0.310213,1.41325,0.255983,
2,0,0,0,0,7187.27,0.248799,0.248461,-0.12812,6,0.0240354,11,-3.18328e-05,-3.89238,-0.196093,-0.300878,1.51407,0.248461,
2,0,0,1,0,7188.77,0.241308,0.241041,-0.138119,6,0.0238078,11,-3.32923e-05,-3.85975,-0.215104,-0.274286,1.49091,0.241041,
2,0,0,0,0,7190.27,0.233817,0.233506,-0.149252,6,0.0235646,11,-3.48512e-05,-3.82608,-0.249659,-0.236322,1.37403,0.233506,
2,0,0,1,0,7191.76,0.226326,0.226044,-0.159847,6,0.0233059,11,-3.61324e-05,-3.7963,-0.320854,-0.183884,1.14634,0.226044,
2,0,0,0,0,7193.26,0.218835,0.218563,-0.170638,6,0.0230314,11,-3.72952e-05,-3.76792,-0.286782,-0.205731,1.36884,0.218563,
2,0,0,1,0,7194.76,0.211344,0.211048,-0.18298,6,0.0227403,11,-3.86174e-05,-3.7376,-0.269551,-0.218882,1.55223,0.2110476,
2,0,0,1,0,7196.26,0.203854,0.203572,-0.193761,6,0.0224301,11,-3.94443e-05,-3.71273,-0.210715,-0.279999,2.13485,0.203572,
2,0,0,1,0,7197.76,0.196363,0.196036,-0.210083,6,0.0220993,11,-4.11838e-05,-3.67761,-0.193618,-0.304723,2.49683,0.196036,
2,0,0,1,0,7199.25,0.188871,0.188548,-0.229847,6,0.0217419,11,-4.33372e-05,-3.63856,-0.14094,-0.418617,3.75091,0.188548,
2,0,0,1,0,7200.75,0.181381,0.181092,-0.257485,6,0.0213508,11,-4.66286e-05,-3.58925,-0.137872,-0.427932,4.29533,0.181092,
2,0,0,1,0,7202.25,0.173889,0.1736,-0.293947,6,0.0209127,11,-5.10291e-05,-3.53173,-0.116592,-0.506036,5.79656,0.1736,
2,0,0,1,0,7203.75,0.166398,0.166122,-0.349952,6,0.0204045,11,-5.81349e-05,-3.45599,-0.0860165,-0.685915,9.4764,0.166122,
2,0,0,1,0,7205.25,0.158907,0.158583,-0.443178,6,0.0197852,11,-7.02805e-05,-3.35342,-0.0641608,-0.919565,16.0128,0.158583,
2,0,0,1,0,7206.75,0.151416,0.151129,-0.585954,6,0.0189901,11,-8.85548e-05,-3.23214,-0.0635698,-0.928114,21.2336,0.1511292,
2,0,0,1,0,7208.24,0.143925,0.143645,-0.739374,6,0.0179681,11,-0.000106207,-3.13114,-0.0834992,-0.706594,20.2915,0.143645,
2,0,0,1,0,7209.74,0.136434,0.136107,-0.845499,6,0.0167453,11,-0.000115079,-3.07289,-0.212927,-0.277091,9.07394,0.136107,
2,0,0,1,0,7211.24,0.128943,0.128658,-0.868056,6,0.0154269,11,-0.000111682,-3.06145,0.739282,0.0798071,-2.69088,0.128658,
2,0,0,0,0,7212.74,0.121453,0.121128,-0.829834,6,0.0141227,11,-0.000100516,-3.08101,0.245757,0.240075,-7.77561,0.121128,
2,0,0,1,0,7214.24,0.113962,0.113655,-0.761117,6,0.0128985,11,-8.65044e-05,-3.11855,0.182108,0.323984,-9.65655,0.113655,
2,0,0,0,0,7215.73,0.106471,0.106193,-0.693851,6,0.01178,11,-7.36818e-05,-3.15873,0.191681,0.307803,-8.36421,0.106193,
2,0,0,1,0,7217.23,0.0989799,0.0986933,-0.638867,6,0.010757,11,-6.30519e-05,-3.19459,0.27227,0.216697,-5.38519,0.0986933,
2,0,0,0,0,7218.73,0.0914889,0.091192,-0.604762,6,0.00980309,11,-5.51494e-05,-3.21842,0.352041,0.167594,-3.93127,0.091192,
2,0,0,1,0,7220.23,0.083998,0.0836981,-0.574567,6,0.00889617,11,-4.80902e-05,-3.24066,0.305206,0.193312,-4.33385,0.0836981,
2,0,0,0,0,7221.73,0.076507,0.0761809,-0.551129,6,0.00802645,11,-4.19855e-05,-3.25875,0.364965,0.161659,-3.46973,0.07618089,
2,0,0,1,0,7223.23,0.0690161,0.0686997,-0.521741,6,0.007195,11,-3.58434e-05,-3.28255,0.347084,0.169988,-3.47442,0.0686997,
2,0,0,0,0,7224.72,0.0615251,0.0612249,-0.492535,6,0.00640594,11,-3.01554e-05,-3.30756,0.246808,0.239053,-4.60681,0.0612249,
2,0,0,1,0,7226.22,0.0540342,0.0536844,-0.463427,6,0.00566371,11,-2.48788e-05,-3.33402,0.280636,0.210237,-3.78562,0.0536844,
2,0,0,1,0,7227.72,0.0465436,0.0462112,-0.43527,6,0.00496487,11,-2.01143e-05,-3.36124,0.356042,0.165711,-2.82649,0.0462112,
2,0,0,1,0,7229.22,0.0390526,0.0387711,-0.417815,6,0.00430012,11,-1.61991e-05,-3.37902,0.405188,0.145612,-2.36625,0.0387711,
2,0,0,1,0,7230.72,0.0315615,0.0312368,-0.405729,6,0.00365777,11,-1.26737e-05,-3.39176,0.848237,0.0695561,-1.10305,0.03123679,
2,0,0,1,0,7232.21,0.0240706,0.0237769,-0.401992,6,0.00302636,11,-9.55811e-06,-3.39578,3.68845,0.0159959,-0.25184,0.0237769,
2,0,0,1,0,7233.71,0.0165795,0.0163042,-0.404193,6,0.00239616,11,-6.59003e-06,-3.39341,-1.77274,-0.0332818,0.524608,0.0163042,
2,0,0,1,0,7235.21,0.00908846,0.00880908,-0.410833,6,0.00175947,11,-3.61906e-06,-3.38633,-0.650142,-0.0907494,1.45375,0.00880908,
2,0,0,1,0,7236.71,0.00159739,0.00126099,-0.421851,6,0.00110872,11,-5.31948e-07,-3.37484, , , ,0.00126099,
2,0,0,0,0,7236.99,0.000199195,-0.000147811,-0.420645,6,0.000985514,11,6.21761e-08,-3.37608, , , ,-0.000147811,