Folder: Figs_alphaMnO2_OER_Tafel_sleope/Figure_codes/Fig_3-5/rawdata_trumpetplot_data/before 10th (part 37)

File: 20221101_1-115_002_TrumpetPlot_ParaChange_11_CV_C01_6.csv
mode,ox/red,error,control changes,counter inc.,time/s,control/V,Ewe/V,<I>/mA,cycle number,(Q-Qo)/C,I Range,P/W,log(|I|),Tafel slope mV/dec,alpha_eff,dI/d(E-IR),E-IR/V,
2,0,0,1,0,8591.76,2.44065e-05,0.000609955,-7.47141,7,0.0000000E+000,11,-4.55723e-06,-2.1266, , , ,0.000609955,
2,1,0,1,0,8591.86,0.00978761,0.00946734,3.11534,7,-7.03955e-07,11,2.9494e-05,-2.50649,0.0310344,1.90111,221.493,0.00946734,
2,1,0,1,0,8591.96,0.0197755,0.0195022,4.04285,7,0.000370261,11,7.88447e-05,-2.39331,0.225824,0.261265,41.2508,0.0195022,
2,1,0,1,0,8592.06,0.0297635,0.029496,4.41061,7,0.000793787,11,0.000130095,-2.3555,0.309162,0.190838,32.8305,0.029496,
2,1,0,1,0,8592.16,0.0397514,0.0394448,4.80021,7,0.00125396,11,0.000189343,-2.31874,0.216454,0.272575,51.23,0.0394448,
2,1,0,1,0,8592.26,0.0497484,0.0494193,5.32893,7,0.00175955,11,0.000263352,-2.27336,0.214201,0.275443,57.1774,0.0494193,
2,1,0,1,0,8592.36,0.0597273,0.0593919,5.94659,7,0.00232157,11,0.00035318,-2.22573,0.205898,0.286549,66.4587,0.0593919,
2,1,0,1,0,8592.46,0.0697152,0.0694206,6.63194,7,0.00295051,11,0.000460393,-2.17836,0.234222,0.251898,65.2495,0.0694206,
2,1,0,1,0,8592.56,0.0797031,0.0794098,7.30367,7,0.00364788,11,0.000579983,-2.13646,0.259078,0.227731,64.9078,0.0794098,
2,1,0,1,0,8592.66,0.0896911,0.089395,7.90706,7,0.00440928,11,0.000706852,-2.10198,0.304923,0.193491,59.763,0.089395,
2,1,0,1,0,8592.76,0.099679,0.0993777,8.51546,7,0.00522859,11,0.000846246,-2.06979,0.307569,0.191827,63.659,0.0993777,
2,1,0,1,0,8592.86,0.109667,0.109373,9.2527,7,0.00611405,11,0.001012,-2.03373,0.232392,0.253881,91.8224,0.109373,
2,1,0,1,0,8592.96,0.119655,0.119388,10.3568,7,0.00709171,11,0.00123649,-1.98477,0.201011,0.293517,118.615,0.119388,
2,1,0,1,0,8593.06,0.129643,0.12936,11.6228,7,0.00818994,11,0.00150352,-1.93469,0.210058,0.280875,127.311,0.12936,
2,1,0,1,0,8593.16,0.139631,0.139344,12.7613,7,0.00941109,11,0.00177821,-1.89411,0.293717,0.200873,100.031,0.139344,
2,1,0,1,0,8593.26,0.149619,0.149298,13.5346,7,0.0107289,11,0.00202069,-1.86856,0.737512,0.0799987,42.1661,0.149298,
2,1,0,1,0,8593.36,0.159607,0.159319,13.1567,7,0.0120776,11,0.00209612,-1.88085,-0.207949,-0.283723,-145.151,0.159319,
2,1,0,1,0,8593.46,0.169595,0.169338,10.5314,7,0.0132793,11,0.00178338,-1.97751,-0.0693166,-0.851167,-348.676,0.169338,
2,1,0,1,0,8593.56,0.179582,0.179307,7.38784,7,0.0141636,11,0.00132469,-2.13148,-0.0735487,-0.80219,-232.591,0.179307,
2,1,0,1,0,8593.66,0.18957,0.189277,5.87764,7,0.0148163,11,0.0011125,-2.2308,-0.138048,-0.427388,-98.2088,0.189277,
2,1,0,1,0,8593.76,0.199558,0.199261,5.15328,7,0.0153636,11,0.00102685,-2.28792,-0.23782,-0.248087,-49.8951,0.199261,
2,1,0,1,0,8593.86,0.209546,0.20926,4.73179,7,0.015856,11,0.000990174,-2.32497,-0.270299,-0.218277,-40.3208,0.20926,
2,1,0,1,0,8593.96,0.219534,0.219222,4.45772,7,0.0163141,11,0.000977228,-2.35089,-0.515678,-0.114413,-19.9071,0.219222,
2,1,0,1,0,8594.06,0.229522,0.229214,4.27129,7,0.0167507,11,0.000979036,-2.36944,-0.655557,-0.0899998,-15.0437,0.229214,
2,1,0,1,0,8594.16,0.23951,0.23922,4.15991,7,0.0171725,11,0.000995133,-2.38092,-1.2893,-0.0457614,-7.43527,0.23922,
2,1,0,1,0,8594.26,0.249498,0.249224,4.07275,7,0.0175835,11,0.00101503,-2.39011,-1.09394,-0.0539336,-8.56037,0.249224,
2,1,0,1,0,8594.36,0.259486,0.259227,3.99776,7,0.0179866,11,0.00103633,-2.39818,-0.905319,-0.0651704,-10.152,0.259227,
2,1,0,1,0,8594.46,0.269474,0.269155,3.92195,7,0.0183825,11,0.00105561,-2.4065,-1.73762,-0.0339544,-5.20114,0.269155,
2,1,0,1,0,8594.56,0.279462,0.279148,3.86178,7,0.018772,11,0.00107801,-2.41321,-1.18566,-0.0497615,-7.49744,0.279148,
2,1,0,1,0,8594.66,0.28945,0.289131,3.8001,7,0.0191554,11,0.00109873,-2.42021,-2.36212,-0.0249775,-3.70482,0.289131,
2,1,0,1,0,8594.75,0.299438,0.299193,3.74181,7,0.0195328,11,0.00111953,-2.42692,-0.026375,-2.23697,-296.767,0.299193,
2,0,0,1,0,8594.84,0.291747,0.291439,-1.45831,7,0.0195277,11,-0.000425008,-2.83615,-0.0417209,-1.41416,78.9593,0.291439,
2,0,0,1,0,8594.94,0.281759,0.281455,-1.90778,7,0.0193558,11,-0.000536954,-2.71947,-0.13613,-0.43341,32.1322,0.2814551,
2,0,0,1,0,8595.04,0.271771,0.271478,-2.17794,7,0.0191507,11,-0.000591261,-2.66195,-0.185638,-0.317822,26.9638,0.271478,
2,0,0,1,0,8595.14,0.261783,0.261463,-2.3885,7,0.0189217,11,-0.000624506,-2.62187,-0.31277,-0.188637,17.5565,0.261463,
2,0,0,1,0,8595.24,0.251795,0.251526,-2.56339,7,0.0186737,11,-0.000644761,-2.59118,-0.332716,-0.177329,17.7511,0.251526,
2,0,0,1,0,8595.34,0.241807,0.241484,-2.72019,7,0.0184087,11,-0.000656883,-2.5654,-0.350058,-0.168544,17.9636,0.2414844,
2,0,0,1,0,8595.44,0.231815,0.231535,-2.8847,7,0.0181281,11,-0.00066791,-2.5399,-0.369207,-0.159802,17.9641,0.231535,
2,0,0,1,0,8595.54,0.221831,0.221545,-3.03896,7,0.0178321,11,-0.000673267,-2.51728,-0.450636,-0.130926,15.5163,0.221545,
2,0,0,1,0,8595.64,0.211843,0.211576,-3.21317,7,0.0175195,11,-0.000679828,-2.49307,-0.50437,-0.116978,14.6359,0.211576,
2,0,0,1,0,8595.74,0.201856,0.201525,-3.40688,7,0.0171884,11,-0.000686572,-2.46764,-0.370187,-0.159379,21.2271,0.201525,
2,0,0,1,0,8595.84,0.191868,0.191543,-3.66772,7,0.0168348,11,-0.000702526,-2.4356,-0.271072,-0.217655,31.216,0.191543,
2,0,0,1,0,8595.94,0.18188,0.181561,-4.04132,7,0.0164515,11,-0.000733746,-2.39348,-0.196886,-0.299666,47.1261,0.181561,
2,0,0,1,0,8596.04,0.171892,0.171604,-4.5824,7,0.0160229,11,-0.000786358,-2.33891,-0.156535,-0.376912,67.4145,0.171604,
2,0,0,1,0,8596.14,0.161904,0.161591,-5.48061,7,0.0155238,11,-0.000885615,-2.26117,-0.109248,-0.540055,115.592,0.161591,
2,0,0,1,0,8596.24,0.151916,0.151643,-6.95515,7,0.0149073,11,-0.0010547,-2.15769,-0.0889333,-0.663418,180.466,0.1516427,
2,0,0,1,0,8596.34,0.141928,0.14168,-9.06806,7,0.01411,11,-0.00128476,-2.04249,-0.0879665,-0.67071,237.407,0.14168,
2,0,0,1,0,8596.44,0.13194,0.131626,-11.3237,7,0.0130892,11,-0.00149048,-1.94601,-0.126049,-0.46807,206.5,0.131626,
2,0,0,1,0,8596.54,0.121952,0.121659,-12.9844,7,0.011868,11,-0.00157967,-1.88658,-0.253817,-0.232451,117.533,0.121659,
2,0,0,1,0,8596.64,0.111964,0.111597,-13.6462,7,0.010528,11,-0.00152288,-1.86499,-2.56012,-0.0230458,12.2584,0.1115973,
2,0,0,1,0,8596.74,0.101976,0.10166,-13.2517,7,0.00917529,11,-0.00134717,-1.87773,0.325738,0.181127,-93.464,0.10166,
2,0,0,1,0,8596.84,0.0919883,0.0916984,-11.9733,7,0.00791033,11,-0.00109793,-1.92179,0.200897,0.293683,-137.365,0.0916984,
2,0,0,1,0,8596.94,0.0820004,0.0816414,-10.7015,7,0.00678121,11,-0.000873682,-1.97056,0.228915,0.257738,-107.686,0.0816414,
2,0,0,1,0,8597.04,0.0720124,0.0716885,-9.87283,7,0.00575665,11,-0.000707768,-2.00556,0.338998,0.174042,-67.0962,0.0716885,
2,0,0,1,0,8597.14,0.0620245,0.061679,-9.28221,7,0.00480011,11,-0.000572517,-2.03235,0.364497,0.161867,-58.6543,0.061679,
2,0,0,1,0,8597.24,0.0520366,0.0517371,-8.68178,7,0.00390139,11,-0.00044917,-2.06139,0.290496,0.203101,-68.7275,0.0517371,
2,0,0,1,0,8597.34,0.0420486,0.0417108,-7.93543,7,0.00306992,11,-0.000330993,-2.10043,0.24312,0.242679,-75.2143,0.0417108,
2,0,0,1,0,8597.44,0.0320607,0.0317389,-7.19925,7,0.00231562,11,-0.000228496,-2.14271,0.249929,0.236067,-66.2621,0.0317389,
2,0,0,1,0,8597.54,0.0220728,0.0217318,-6.67585,7,0.00162515,11,-0.000145078,-2.17549,0.4035,0.146221,-38.1104,0.0217318,
2,0,0,1,0,8597.64,0.0120848,0.0117731,-6.42188,7,0.00097257,11,-7.56057e-05,-2.19234,0.897005,0.0657744,-16.5011,0.0117731,
2,0,0,1,0,8597.74,0.0020969,0.00171268,-6.41804,7,0.000334912,11,-1.09921e-05,-2.1926,-1.41973,-0.0415571,10.3474,0.00171268,
2,0,0,1,0,8597.84,-0.00789103,-0.00821378,-6.42821,7,-0.000305689,11,5.27999e-05,-2.19191,-1.07789,-0.0547364,13.7644,-0.00821378,
2,0,0,1,0,8597.94,-0.017879,-0.0182438,-6.60472,7,-0.00095608,11,0.000120495,-2.18015,-0.708231,-0.0833062,21.4406,-0.0182438,
2,0,0,1,0,8598.04,-0.0278669,-0.0282054,-6.81081,7,-0.001626,11,0.000192102,-2.1668,-0.70436,-0.083764,22.2872,-0.0282054,
2,0,0,1,0,8598.14,-0.0378548,-0.0381962,-7.08395,7,-0.00232017,11,0.00027058,-2.14972,-0.609056,-0.0968712,26.737,-0.0381962,
2,0,0,1,0,8598.24,-0.0478428,-0.0482033,-7.3789,7,-0.00304287,11,0.000355687,-2.13201,-0.436503,-0.135165,38.9917,-0.0482033,
2,0,0,1,0,8598.34,-0.0578216,-0.0581755,-7.75141,7,-0.00379863,11,0.000450942,-2.11062,-0.441952,-0.133499,40.404,-0.0581755,
2,0,0,1,0,8598.44,-0.0678187,-0.0681708,-8.2048,7,-0.00459555,11,0.000559328,-2.08593,-0.365842,-0.161272,51.6153,-0.0681708,
2,0,0,1,0,8598.54,-0.0778066,-0.0781634,-8.75039,7,-0.00544233,11,0.000683961,-2.05797,-0.347378,-0.169844,58.0394,-0.0781634,
2,0,0,1,0,8598.64,-0.0877945,-0.0881619,-9.39881,7,-0.00634906,11,0.000828617,-2.02693,-0.323679,-0.18228,66.8479,-0.0881619,
2,0,0,1,0,8598.74,-0.0977825,-0.0981323,-10.0374,7,-0.00732142,11,0.000984991,-1.99838,-0.373952,-0.157774,61.8532,-0.0981323,
2,0,0,1,1,8598.83,-0.0927386,-0.0931032,-0.155338,7,-0.00783028,11,1.44625e-05,-3.80872,-0.0165432,-3.56643,661.334,-0.09310317,
2,1,0,1,1,8598.93,-0.0827529,-0.0831517,3.34515,7,-0.00763447,11,-0.000278155,-2.47558,0.0407938,1.4463,185.955,-0.0831517,
2,1,0,1,1,8599.03,-0.0727627,-0.0731103,4.54828,7,-0.00723164,11,-0.000332526,-2.34215,0.136605,0.431902,76.2412,-0.0731103,
2,1,0,1,1,8599.13,-0.0627748,-0.0631113,5.08698,7,-0.00674747,11,-0.000321046,-2.29354,0.296229,0.199171,39.5449,-0.06311135,
2,1,0,1,1,8599.23,-0.0527868,-0.0530864,5.38267,7,-0.00622241,11,-0.000285747,-2.269,0.60463,0.0975803,20.4834,-0.0530864,
2,1,0,1,1,8599.33,-0.0427989,-0.0431495,5.52612,7,-0.00567644,11,-0.000238449,-2.25758,1.01939,0.0578779,12.4792,-0.0431495,
2,1,0,1,1,8599.43,-0.0328109,-0.0331399,5.58933,7,-0.00512161,11,-0.00018523,-2.25264,8.30709,0.00710237,1.54547,-0.0331399,
2,1,0,1,1,8599.53,-0.022823,-0.0231592,5.57465,7,-0.0045644,11,-0.000129104,-2.25378,-6.01914,-0.00980207,-2.12977,-0.0231592,
2,1,0,1,1,8599.63,-0.0128351,-0.0131889,5.5226,7,-0.00400983,11,-7.28369e-05,-2.25786,-1.79897,-0.0327965,-7.07627,-0.0131889,
2,1,0,1,1,8599.73,-0.00284713,-0.00318925,5.47432,7,-0.00346008,11,-1.7459e-05,-2.26167,-2.0435,-0.028872,-6.1692,-0.00318925,
2,1,0,0,1,8599.76,-2.55332e-05,-0.000363498,5.47001,7,-0.00330643,11,-1.98834e-06,-2.26201, , , ,-0.000363498,

File: 20221101_1-115_002_TrumpetPlot_ParaChange_11_CV_C01_7.csv
mode,ox/red,error,control changes,counter inc.,time/s,control/V,Ewe/V,<I>/mA,cycle number,(Q-Qo)/C,I Range,P/W,log(|I|),Tafel slope mV/dec,alpha_eff,dI/d(E-IR),E-IR/V,
2,0,0,1,0,9823.39,2.44065e-05,0.000476344,-7.22551,8,0.0000000E+000,11,-3.44183e-06,-2.14113, , , ,0.000476344,
2,1,0,1,0,9823.49,0.00978761,0.0094925,3.31422,8,1.72006e-05,11,3.14602e-05,-2.47962,0.032594,1.81015,224.426,0.0094925,
2,1,0,1,0,9823.59,0.0197755,0.0194724,4.24909,8,0.00040837,11,8.27399e-05,-2.3717,0.234797,0.251281,41.6714,0.0194724,
2,1,0,1,0,9823.69,0.0297635,0.0294379,4.61265,8,0.000852005,11,0.000135787,-2.33605,0.311682,0.189295,34.0713,0.0294379,
2,1,0,1,0,9823.79,0.0397514,0.0394311,5.01915,8,0.00133303,11,0.00019791,-2.29937,0.217397,0.271393,53.2771,0.0394311,
2,1,0,1,0,9823.89,0.0497484,0.049434,5.56983,8,0.00186134,11,0.000275339,-2.25416,0.217747,0.270956,58.7611,0.04943401,
2,1,0,1,0,9823.99,0.0597273,0.059447,6.1886,8,0.00244741,11,0.000367894,-2.20841,0.207975,0.283688,68.4926,0.059447,
2,1,0,1,0,9824.09,0.0697152,0.0694388,6.86134,8,0.00310012,11,0.000476443,-2.16359,0.245395,0.240429,64.4112,0.0694388,
2,1,0,1,0,9824.19,0.0797031,0.0793911,7.51005,8,0.00381931,11,0.000596231,-2.12436,0.274137,0.215221,63.0944,0.0793911,
2,1,0,1,0,9824.29,0.0896911,0.08939,8.09082,8,0.00459999,11,0.000723239,-2.09201,0.320753,0.183942,58.1688,0.08939,
2,1,0,1,0,9824.39,0.099679,0.0993943,8.70133,8,0.00543727,11,0.000864862,-2.06041,0.295396,0.199732,67.7437,0.0993943,
2,1,0,1,0,9824.49,0.109667,0.10934,9.47877,8,0.00634251,11,0.00103641,-2.02325,0.223363,0.264144,97.78,0.10934,
2,1,0,1,0,9824.59,0.119655,0.119354,10.6093,8,0.00734406,11,0.00126626,-1.97431,0.204587,0.288387,119.366,0.119354,
2,1,0,1,0,9824.69,0.129643,0.129356,11.8264,8,0.00846538,11,0.00152982,-1.92715,0.231947,0.254368,117.331,0.129356,
2,1,0,1,0,9824.79,0.139631,0.139341,12.8763,8,0.00970219,11,0.0017942,-1.89021,0.328559,0.179572,90.2284,0.139341,
2,1,0,1,0,9824.89,0.149619,0.149286,13.5287,8,0.0110255,11,0.00201964,-1.86875,1.3586,0.043427,22.8678,0.149286,
2,1,0,1,0,9824.99,0.159607,0.159324,12.8669,8,0.0123607,11,0.00205001,-1.89053,-0.162385,-0.363333,-181.794,0.159324,
2,1,0,1,0,9825.08,0.169595,0.169294,9.97978,8,0.0135169,11,0.00168951,-2.00088,-0.0664973,-0.887254,-344.929,0.169294,
2,1,0,1,0,9825.18,0.179582,0.179303,7.0245,8,0.0143532,11,0.00125951,-2.15338,-0.0793102,-0.743914,-205.059,0.179303,
2,1,0,1,0,9825.28,0.18957,0.189261,5.65423,8,0.0149777,11,0.00107012,-2.24763,-0.146932,-0.401546,-88.818,0.189261,
2,1,0,1,0,9825.38,0.199558,0.199282,4.99772,8,0.0155062,11,0.000995954,-2.30123,-0.251414,-0.234673,-45.7699,0.199282,
2,1,0,1,0,9825.48,0.209546,0.209265,4.62345,8,0.0159851,11,0.000967527,-2.33503,-0.305078,-0.193393,-34.9242,0.209265,
2,1,0,1,0,9825.58,0.219534,0.219289,4.38181,8,0.0164337,11,0.000960883,-2.35835,-0.566515,-0.104145,-17.8095,0.2192892,
2,1,0,1,0,9825.68,0.229522,0.229264,4.21847,8,0.0168635,11,0.000967143,-2.37484,-0.695361,-0.084848,-14.0042,0.229264,
2,1,0,1,0,9825.78,0.23951,0.239234,4.12043,8,0.0172803,11,0.000985746,-2.38506,-1.54184,-0.038266,-6.15716,0.239234,
2,1,0,1,0,9825.88,0.249498,0.249245,4.04252,8,0.0176875,11,0.00100758,-2.39335,-1.39531,-0.0422844,-6.66288,0.249245,
2,1,0,1,0,9825.98,0.259486,0.259216,3.96993,8,0.0180875,11,0.00102907,-2.40122,-0.959515,-0.0614894,-9.52194,0.259216,
2,1,0,1,0,9826.08,0.269474,0.269193,3.90463,8,0.0184808,11,0.0010511,-2.40842,-1.67804,-0.0351601,-5.36142,0.269193,
2,1,0,1,0,9826.18,0.279462,0.279211,3.84503,8,0.0188684,11,0.00107357,-2.4151,-1.3759,-0.042881,-6.44196,0.2792106,
2,1,0,1,0,9826.28,0.28945,0.289204,3.78976,8,0.01925,11,0.00109602,-2.42139,-2.89799,-0.020359,-3.01105,0.289204,
2,1,0,1,0,9826.38,0.299438,0.299149,3.74087,8,0.0196258,11,0.00111908,-2.42703,-0.0259522,-2.27341,-299.363,0.299149,
2,0,0,1,0,9826.47,0.291747,0.291443,-1.60446,8,0.0196118,11,-0.00046761,-2.79467,-0.0476294,-1.23873,76.004,0.291443,
2,0,0,1,0,9826.57,0.281759,0.281452,-2.01542,8,0.0194285,11,-0.000567244,-2.69563,-0.156865,-0.37612,29.4525,0.281452,
2,0,0,1,0,9826.67,0.271771,0.271459,-2.26912,8,0.0192147,11,-0.000615972,-2.64414,-0.20722,-0.284722,25.1225,0.271459,
2,0,0,1,0,9826.77,0.261783,0.261465,-2.46597,8,0.0189785,11,-0.000644764,-2.60801,-0.354874,-0.166256,15.9758,0.261465,
2,0,0,1,0,9826.87,0.251795,0.25153,-2.62903,8,0.0187241,11,-0.000661278,-2.58021,-0.369926,-0.159491,16.3906,0.25153,
2,0,0,1,0,9826.97,0.241807,0.241516,-2.78172,8,0.0184535,11,-0.000671828,-2.55569,-0.370568,-0.159215,17.3726,0.241516,
2,0,0,1,0,9827.07,0.231815,0.231553,-2.94198,8,0.018168,11,-0.000681225,-2.53136,-0.431765,-0.136648,15.6882,0.231553,
2,0,0,1,0,9827.17,0.221831,0.221517,-3.08899,8,0.0178675,11,-0.000684262,-2.51018,-0.461282,-0.127904,15.4135,0.221517,
2,0,0,1,0,9827.27,0.211843,0.211503,-3.2567,8,0.0175511,11,-0.000688802,-2.48722,-0.523931,-0.11261,14.3041,0.211503,
2,0,0,1,0,9827.37,0.201856,0.201515,-3.44947,8,0.0172168,11,-0.000695121,-2.46225,-0.409545,-0.144062,19.4038,0.201515,
2,0,0,1,0,9827.47,0.191868,0.191559,-3.69258,8,0.0168612,11,-0.000707346,-2.43267,-0.321153,-0.183713,26.5301,0.191559,
2,0,0,1,0,9827.57,0.18188,0.18158,-4.0423,8,0.0164773,11,-0.000734001,-2.39337,-0.204931,-0.287902,45.3006,0.18158,
2,0,0,1,0,9827.67,0.171892,0.171607,-4.55806,8,0.0160508,11,-0.000782194,-2.34122,-0.16297,-0.362031,64.3647,0.171607,
2,0,0,1,0,9827.77,0.161904,0.161615,-5.40064,8,0.0155579,11,-0.000872824,-2.26755,-0.114689,-0.514435,108.586,0.161615,
2,0,0,1,0,9827.87,0.151916,0.151612,-6.80004,8,0.0149541,11,-0.00103097,-2.16749,-0.0894228,-0.659787,175.522,0.151612,
2,0,0,1,0,9827.97,0.141928,0.141643,-8.87914,8,0.0141757,11,-0.00125767,-2.05163,-0.0857741,-0.687854,238.316,0.141643,
2,0,0,1,0,9828.07,0.13194,0.13163,-11.1802,8,0.0131732,11,-0.00147165,-1.95155,-0.119996,-0.491682,214.197,0.13163,
2,0,0,1,0,9828.17,0.121952,0.121707,-12.9412,8,0.0119628,11,-0.00157503,-1.88803,-0.232672,-0.253576,127.735,0.121707,
2,0,0,1,0,9828.27,0.111964,0.111673,-13.6844,8,0.0106245,11,-0.00152819,-1.86377,-1.46332,-0.0403192,21.5056,0.111673,
2,0,0,1,0,9828.37,0.101976,0.101692,-13.3886,8,0.00926422,11,-0.00136151,-1.87326,0.36624,0.161097,-84.0151,0.101692,
2,0,0,1,0,9828.47,0.0919883,0.0916863,-12.1982,8,0.00798157,11,-0.00111841,-1.9137,0.208537,0.282924,-134.773,0.0916863,
2,0,0,1,0,9828.57,0.0820004,0.0816829,-10.872,8,0.00683322,11,-0.000888058,-1.96369,0.222945,0.26464,-112.334,0.0816829,
2,0,0,1,0,9828.67,0.0720124,0.0716811,-9.9687,8,0.00579655,11,-0.000714568,-2.00136,0.326881,0.180494,-70.3325,0.0716811,
2,0,0,1,0,9828.77,0.0620245,0.0616981,-9.36572,8,0.00483232,11,-0.000577847,-2.02846,0.373302,0.158049,-57.7879,0.0616981,
2,0,0,1,0,9828.87,0.0520366,0.0517019,-8.7829,8,0.00392589,11,-0.000454093,-2.05636,0.31901,0.184947,-63.3497,0.0517019,
2,0,0,1,0,9828.97,0.0420486,0.0417676,-8.07138,8,0.00308308,11,-0.000337122,-2.09305,0.254629,0.23171,-73.0926,0.0417676,
2,0,0,1,0,9829.07,0.0320607,0.0317318,-7.32594,8,0.0023158,11,-0.000232466,-2.13514,0.244447,0.241361,-68.9351,0.0317318,
2,0,0,1,0,9829.17,0.0220728,0.0217761,-6.74682,8,0.00161632,11,-0.000146919,-2.1709,0.361447,0.163233,-43.0182,0.0217761,
2,0,0,1,0,9829.27,0.0120848,0.0117399,-6.46337,8,0.000959192,11,-7.58795e-05,-2.18954,0.776661,0.0759662,-19.1685,0.0117399,
2,0,0,1,0,9829.37,0.0020969,0.00176344,-6.44293,8,0.000319471,11,-1.13617e-05,-2.19092,-1.4143,-0.0417168,10.4283,0.00176344,
2,0,0,1,0,9829.47,-0.00789103,-0.00824449,-6.45002,8,-0.000322556,11,5.31771e-05,-2.19044,-1.16325,-0.0507201,12.8012,-0.00824449,
2,0,0,1,0,9829.57,-0.017879,-0.0182313,-6.63108,8,-0.000974415,11,0.000120893,-2.17842,-0.691818,-0.0852826,22.039,-0.0182313,
2,0,0,1,0,9829.67,-0.0278669,-0.0282427,-6.84869,8,-0.00164639,11,0.000193426,-2.16439,-0.65588,-0.0899554,24.075,-0.0282427,
2,0,0,1,0,9829.77,-0.0378548,-0.0381643,-7.12956,8,-0.0023436,11,0.000272095,-2.14694,-0.56873,-0.10374,28.8248,-0.0381643,
2,0,0,1,0,9829.87,-0.0478428,-0.0481955,-7.4367,8,-0.00307029,11,0.000358416,-2.12862,-0.428436,-0.13771,40.0228,-0.04819547,
2,0,0,1,0,9829.97,-0.0578216,-0.0582007,-7.81521,8,-0.00383072,11,0.000454851,-2.10706,-0.420959,-0.140156,42.7477,-0.0582007,
2,0,0,1,0,9830.07,-0.0678187,-0.0681816,-8.2711,8,-0.00463315,11,0.000563937,-2.08244,-0.357234,-0.165158,53.2877,-0.0681816,
2,0,0,1,0,9830.17,-0.0778066,-0.078153,-8.81604,8,-0.00548554,11,0.000689,-2.05473,-0.357153,-0.165195,56.8761,-0.078153,
2,0,0,1,0,9830.27,-0.0877945,-0.0881453,-9.46376,8,-0.00639742,11,0.000834186,-2.02394,-0.331021,-0.178236,65.7782,-0.0881453,
2,0,0,1,0,9830.37,-0.0977825,-0.0981335,-10.0849,8,-0.00737407,11,0.000989668,-1.99633,-0.384339,-0.15351,60.4767,-0.0981335,
2,0,0,1,1,9830.46,-0.0927386,-0.0931448,0.00335348,8,-0.00787827,11,-3.12359e-07,-5.4745,-0.0304136,-1.93992,672.974,-0.0931448,
2,1,0,1,1,9830.56,-0.0827529,-0.083101,3.59933,8,-0.00766084,11,-0.000299108,-2.44378,0.0425428,1.38684,191.959,-0.083101,
2,1,0,1,1,9830.66,-0.0727627,-0.0730941,4.79773,8,-0.00723261,11,-0.000350686,-2.31896,0.145636,0.405119,75.4101,-0.0730941,
2,1,0,1,1,9830.76,-0.0627748,-0.0630719,5.30871,8,-0.00672512,11,-0.00033483,-2.27501,0.331673,0.177886,36.8413,-0.0630719,
2,1,0,1,1,9830.86,-0.0527868,-0.0531151,5.56966,8,-0.00618012,11,-0.000295833,-2.25417,0.810634,0.0727826,15.8013,-0.0531151,
2,1,0,1,1,9830.96,-0.0427989,-0.0431555,5.67664,8,-0.00561744,11,-0.000244979,-2.24591,1.24876,0.0472469,10.473,-0.0431555,
2,1,0,1,1,9831.06,-0.0328109,-0.0331165,5.7169,8,-0.00504865,11,-0.000189324,-2.24284,-6.51321,-0.00905852,-2.01684,-0.0331165,
2,1,0,1,1,9831.16,-0.022823,-0.0232069,5.68449,8,-0.00447973,11,-0.000131919,-2.24531,-3.48917,-0.0169094,-3.74823,-0.0232069,
2,1,0,1,1,9831.26,-0.0128351,-0.0131976,5.61726,8,-0.00391504,11,-7.41341e-05,-2.25048,-1.59648,-0.0369564,-8.11163,-0.0131976,
2,1,0,1,1,9831.36,-0.00284713,-0.00320295,5.56262,8,-0.00335637,11,-1.78168e-05,-2.25472,-1.61281,-0.0365821,-7.93935,-0.00320295,
2,1,0,0,1,9831.39,-2.55332e-05,-0.000325324,5.54353,8,-0.0032004,11,-1.80344e-06,-2.25621, , , ,-0.000325324,