Folder: Figs_alphaMnO2_OER_Tafel_sleope/Figure_codes/Fig_3-5/rawdata_trumpetplot_data/before 10th (part 60)

File: 20221101_1-115_002_TrumpetPlot_ParaChange_16_CV_C01_7.csv
mode,ox/red,error,control changes,counter inc.,time/s,control/V,Ewe/V,<I>/mA,cycle number,(Q-Qo)/C,I Range,P/W,log(|I|),Tafel slope mV/dec,alpha_eff,dI/d(E-IR),E-IR/V,
2,1,0,1,0,9840.48,2.44065e-05,-0.00091703,69.9665,8,0.0000000E+000,10,-6.41614e-05,-1.15511, , , ,-0.0009170305,
2,1,0,1,0,9840.49,0.0131086,0.0127145,56.2285,8,0.000779262,10,0.000714917,-1.25004,-0.553018,-0.106687,-238.996,0.0127145,
2,1,0,1,0,9840.5,0.0271416,0.0267925,55.3187,8,0.00155791,10,0.00148212,-1.25713,-6.77264,-0.00871152,-18.8457,0.0267925,
2,1,0,1,0,9840.52,0.0411248,0.0407665,55.3512,8,0.00233208,10,0.00225648,-1.25687,7.12939,0.0082756,17.899,0.0407665,
2,1,0,1,0,9840.53,0.0551079,0.0547448,55.7896,8,0.00310976,10,0.00305419,-1.25345,2.88639,0.0204408,44.5566,0.0547448,
2,1,0,1,0,9840.55,0.0691409,0.0687697,56.7444,8,0.00389627,10,0.00390229,-1.24608,1.33382,0.0442338,98.0418,0.0687697,
2,1,0,1,0,9840.56,0.083124,0.0828074,58.3278,8,0.00470141,10,0.00482997,-1.23412,0.974882,0.0605202,138.09,0.0828074,
2,1,0,1,0,9840.57,0.0971071,0.0967814,60.6971,8,0.0055339,10,0.00587435,-1.21683,0.69422,0.0849874,201.807,0.0967814,
2,1,0,1,0,9840.59,0.11114,0.110812,63.8992,8,0.00640559,10,0.00708077,-1.1945,0.582798,0.101236,252.69,0.110812,
2,1,0,1,0,9840.6,0.125123,0.124773,67.6805,8,0.00732643,10,0.00844469,-1.16954,0.538947,0.109473,289.409,0.124773,
2,1,0,1,0,9840.62,0.139106,0.138781,71.9697,8,0.00830385,10,0.00998802,-1.14285,0.508832,0.115952,326.049,0.138781,
2,1,0,1,0,9840.63,0.153139,0.152758,76.8255,8,0.00934536,10,0.0117357,-1.11449,0.487019,0.121145,363.451,0.152758,
2,1,0,1,0,9840.64,0.167123,0.166753,82.1548,8,0.0104583,10,0.0136996,-1.08537,0.473272,0.124664,399.891,0.166753,
2,1,0,1,0,9840.66,0.181106,0.180779,87.8707,8,0.011649,10,0.0158852,-1.05616,0.495326,0.119113,408.323,0.180779,
2,1,0,1,0,9840.67,0.195139,0.19477,93.4524,8,0.0129196,10,0.0182018,-1.02941,0.594697,0.0992102,360.986,0.19477,
2,1,0,1,0,9840.69,0.209122,0.208818,97.8197,8,0.0142609,10,0.0204265,-1.00957,0.978741,0.0602815,228.996,0.208818,
2,1,0,1,0,9840.7,0.223105,0.222785,99.2927,8,0.0156456,10,0.0221209,-1.00308,-3.67962,-0.0160342,-61.6104,0.222785,
2,1,0,1,0,9840.71,0.237138,0.236879,95.555,8,0.0170165,10,0.022635,-1.01975,-0.442149,-0.133439,-492.158,0.236879,
2,1,0,1,0,9840.73,0.251121,0.250914,85.8305,8,0.0182911,10,0.021536,-1.06636,-0.232547,-0.253712,-842.413,0.250914,
2,1,0,1,0,9840.74,0.265104,0.264861,72.7246,8,0.0194012,10,0.0192619,-1.13832,-0.178609,-0.33033,-936.114,0.264861,
2,1,0,1,0,9840.76,0.279137,0.278951,60.2245,8,0.0203284,10,0.0167997,-1.22023,-0.172545,-0.34194,-807.407,0.278951,
2,1,0,1,0,9840.77,0.29312,0.292849,50.6039,8,0.0210992,10,0.0148193,-1.29582,-0.201361,-0.293006,-586.397,0.292849,
2,1,0,1,0,9840.78,0.298714,0.298705,42.7479,8,0.0214923,10,0.012769,-1.36909,0.0233092,2.53119,3243.51,0.298705,
2,1,0,1,0,9840.79,0.28473,0.284623,10.6872,8,0.0218346,10,0.00304181,-1.97114,0.00848503,6.95342,1583.65,0.284623,
2,0,0,1,0,9840.81,0.270747,0.270586,-5.2815,8,0.021859,10,-0.0014291,-2.27724,-0.0255496,-2.30923,836.095,0.270586,
2,0,0,1,0,9840.82,0.256714,0.256507,-13.9576,8,0.0217175,10,-0.00358023,-1.85519,-0.0642332,-0.918528,466.714,0.256507,
2,0,0,1,0,9840.83,0.242731,0.242504,-18.9621,8,0.0214838,10,-0.00459836,-1.72211,-0.149471,-0.394726,286.547,0.242504,
2,0,0,1,0,9840.85,0.228748,0.228514,-22.2221,8,0.0211937,10,-0.00507805,-1.65321,-0.255937,-0.230525,198.69,0.228514,
2,0,0,1,0,9840.86,0.214715,0.214443,-24.6832,8,0.0208641,10,-0.00529313,-1.6076,-0.3634,-0.162355,155.894,0.214443,
2,0,0,1,0,9840.88,0.200732,0.200462,-26.7277,8,0.0205039,10,-0.00535788,-1.57304,-0.419869,-0.14052,146.52,0.2004616,
2,0,0,1,0,9840.89,0.186735,0.186466,-28.8238,8,0.0201151,10,-0.00537466,-1.54025,-0.409818,-0.143966,162.276,0.186466,
2,0,0,1,0,9840.9,0.172716,0.17245,-31.3387,8,0.0196941,10,-0.00540436,-1.50392,-0.359094,-0.164302,201.58,0.17245,
2,0,0,1,0,9840.92,0.158733,0.158499,-34.6405,8,0.0192333,10,-0.00549049,-1.46042,-0.283795,-0.207896,282.539,0.158499,
2,0,0,1,0,9840.93,0.144719,0.1445,-39.3944,8,0.0187167,10,-0.00569247,-1.40457,-0.226311,-0.260703,403.099,0.1444997,
2,0,0,1,0,9840.95,0.130717,0.130517,-45.958,8,0.0181205,10,-0.0059983,-1.33764,-0.19945,-0.295813,532.277,0.130517,
2,0,0,1,0,9840.96,0.116733,0.116551,-54.1728,8,0.0174205,10,-0.00631387,-1.26622,-0.198031,-0.297934,629.772,0.116551,
2,0,0,1,0,9840.97,0.102703,0.102537,-63.3072,8,0.0165978,10,-0.00649135,-1.19855,-0.226205,-0.260825,641.347,0.102537,
2,0,0,1,0,9840.99,0.0887173,0.0886057,-71.9544,8,0.0156495,10,-0.00637557,-1.14294,-0.277945,-0.212272,594.106,0.0886057,
2,0,0,1,0,9841,0.0747341,0.0746359,-79.6534,8,0.0145857,10,-0.005945,-1.0988,-0.365496,-0.161424,500.121,0.0746359,
2,0,0,1,0,9841.02,0.0607011,0.0605028,-85.9844,8,0.013424,10,-0.0052023,-1.06558,-0.532192,-0.110862,369.898,0.0605028,
2,0,0,1,0,9841.03,0.046718,0.0464641,-89.8815,8,0.0121897,10,-0.00417626,-1.04633,-1.07985,-0.054637,190.788,0.0464641,
2,0,0,1,0,9841.04,0.0327349,0.0324826,-91.3301,8,0.0109184,10,-0.00296664,-1.03939,-9.31063,-0.00633685,22.4993,0.0324826,
2,0,0,1,0,9841.06,0.0187018,0.0184343,-90.7878,8,0.00964233,10,-0.00167361,-1.04197,2.35497,0.0250534,-88.5276,0.0184343,
2,0,0,1,0,9841.07,0.00471873,0.00445817,-88.9295,8,0.00838343,10,-0.000396463,-1.05095,1.28319,0.0459793,-159.414,0.00445817,
2,0,0,1,0,9841.09,-0.00926438,-0.00958162,-86.2929,8,0.00715572,10,0.000826826,-1.06402,0.856883,0.0688542,-231.358,-0.00958162,
2,0,0,1,0,9841.1,-0.0232974,-0.0236331,-82.5761,8,0.005973,10,0.00195153,-1.08315,0.615835,0.0958049,-307.774,-0.02363307,
2,0,0,1,0,9841.11,-0.0372805,-0.0376124,-77.6929,8,0.00485073,10,0.00292222,-1.10962,0.494268,0.119368,-361.731,-0.0376124,
2,0,0,1,0,9841.13,-0.0512636,-0.0516214,-72.7576,8,0.00379877,10,0.00375585,-1.13812,0.519887,0.113486,-322.884,-0.0516214,
2,0,0,1,0,9841.14,-0.0652967,-0.0656241,-68.9551,8,0.00280913,10,0.00452512,-1.16143,0.720857,0.0818471,-220.819,-0.0656241,
2,0,0,1,0,9841.16,-0.0792798,-0.0795876,-66.5143,8,0.00186275,10,0.00529371,-1.17709,1.21894,0.0484028,-126.03,-0.0795876,
2,0,0,1,0,9841.17,-0.0932629,-0.0935934,-65.3389,8,0.000941098,10,0.00611529,-1.18483,3.18158,0.0185442,-47.4003,-0.0935934,
2,0,0,1,0,9841.18,-0.107296,-0.107589,-65.1785,8,2.86208e-05,10,0.00701246,-1.1859,-11.9125,-0.00495278,12.6095,-0.107589,
2,0,0,1,0,9841.2,-0.121279,-0.121556,-65.5934,8,-0.000886063,10,0.0079733,-1.18314,-3.09195,-0.0190818,48.9018,-0.121556,
2,0,0,1,0,9841.21,-0.135262,-0.135581,-66.503,8,-0.00181035,10,0.00901656,-1.17716,-1.93873,-0.0304323,79.0623,-0.135581,
2,0,0,1,0,9841.23,-0.149295,-0.149574,-67.8424,8,-0.00275054,10,0.0101475,-1.1685,-1.50793,-0.0391265,103.611,-0.149574,
2,0,0,1,0,9841.24,-0.163278,-0.163568,-69.3638,8,-0.00371091,10,0.0113457,-1.15887,-1.35975,-0.0433903,117.508,-0.163568,
2,0,0,1,0,9841.25,-0.177261,-0.177536,-71.1009,8,-0.00469413,10,0.012623,-1.14813,-1.24015,-0.047575,132.072,-0.177536,
2,0,0,1,0,9841.27,-0.191295,-0.191586,-73.1209,8,-0.00570353,10,0.0140089,-1.13596,-1.09631,-0.0538169,153.566,-0.191586,
2,0,0,1,1,9841.28,-0.199984,-0.200513,-74.1551,8,-0.00639006,10,0.0148691,-1.12986,-0.0346318,-1.70363,4265.68,-0.200513,
2,0,0,1,1,9841.29,-0.186686,-0.187135,-43.033,8,-0.00713307,10,0.00805298,-1.3662,-0.0527057,-1.11942,1872.63,-0.1871351,
2,0,0,1,1,9841.3,-0.172667,-0.173067,-20.7769,8,-0.00756948,10,0.00359578,-1.68242,-0.0327019,-1.80418,1377.91,-0.173067,
2,0,0,1,1,9841.32,-0.158684,-0.159104,-3.81113,8,-0.00773503,10,0.000606368,-2.41895,-0.0326074,-1.8094,1084.36,-0.1591043,
2,1,0,1,1,9841.33,-0.14467,-0.145141,9.73839,8,-0.00768932,10,-0.00141344,-2.01151,0.0188494,3.13007,872.968,-0.145141,
2,1,0,1,1,9841.35,-0.130668,-0.131128,20.83,8,-0.00747205,10,-0.00273138,-1.68131,0.0635201,0.928839,723.072,-0.131128,
2,1,0,1,1,9841.36,-0.116685,-0.117072,29.9886,8,-0.00711324,10,-0.00351082,-1.52304,0.115207,0.512123,588.753,-0.1170719,
2,1,0,1,1,9841.37,-0.102654,-0.103049,37.5184,8,-0.0066387,10,-0.00386624,-1.42576,0.176451,0.334371,484.374,-0.103049,
2,1,0,1,1,9841.39,-0.0886685,-0.0890411,43.6053,8,-0.00606885,10,-0.00388266,-1.36046,0.253785,0.23248,393.26,-0.0890411,
2,1,0,1,1,9841.4,-0.0746854,-0.0750405,48.5645,8,-0.00542192,10,-0.00364431,-1.31368,0.348497,0.169299,319.618,-0.0750405,
2,1,0,1,1,9841.42,-0.0606523,-0.0610548,52.6724,8,-0.00471226,10,-0.0032159,-1.27842,0.467031,0.12633,258.625,-0.0610548,
2,1,0,1,1,9841.43,-0.0466692,-0.0469843,55.8512,8,-0.00395157,10,-0.00262413,-1.25297,0.636233,0.0927333,201.599,-0.0469843,
2,1,0,1,1,9841.44,-0.0326861,-0.0330399,58.3164,8,-0.0031514,10,-0.00192677,-1.23421,0.872529,0.0676195,153.609,-0.0330399,
2,1,0,1,1,9841.46,-0.018653,-0.0190298,60.2151,8,-0.00232102,10,-0.00114588,-1.22029,1.24428,0.0474171,111.165,-0.0190298,
2,1,0,1,1,9841.47,-0.00466992,-0.00502081,61.3993,8,-0.00146895,10,-0.000308274,-1.21184, , , ,-0.00502081,
2,1,0,1,1,9841.48,-0.000175352,-0.000478022,61.637,8,-0.00119207,10,-2.94639e-05,-1.21016, , , ,-0.000478022,

File: 20221101_1-115_002_TrumpetPlot_ParaChange_18_CV_C01.mpt
EC-Lab ASCII FILE
Nb header lines : 67

Cyclic Voltammetry

Run on channel : 1 (SN 65296)
User :
CE vs. WE compliance from -10 V to 10 V
Electrode connection : standard
Potential control : Ewe
Ewe ctrl range : min = -1.00 V, max = 1.00 V
Safety Limits :
	Do not start on E overload
Acquisition started on : 11/08/2022 17:30:03.488
Loaded Setting File :  NONE
Saved on :
	File : 20221101_1-115_002_TrumpetPlot_ParaChange_18_CV_C01.mpr
	Directory : C:\Users\NakamuraT\Documents\EC-Lab\Data\Yatsuzuka\20221108_1-115_001_TrumpetPlot\
	Host : 192.109.209.100
Device : SP-50e (SN .003219)
Address : 192.109.209.128
EC-Lab for windows v11.43 (software)
Internet server v11.40 (firmware)
Command interpretor v11.40 (firmware)
Electrode material : Au/Pd
Initial state :
Electrolyte : NaCl (0.2M)
Comments : Fe(CN)63-/Fe(CN)64- 5.10-3 M
Reference electrode : SCE Saturated Calomel Electrode (0.241 V)
Electrode surface area : 0.001 cm2
Characteristic mass : 0.001 g
Equivalent Weight : 0.000 g/eq.
Density : 0.000 g/cm3
Volume (V) : 0.001 cm3
Cycle Definition : Charge/Discharge alternance
Ei (V)              0.000
vs.                 Ref
dE/dt               5.000
dE/dt unit          mV/s
E1 (V)              0.850
vs.                 Ref
Step percent        50
N                   10
E range min (V)     -1.000
E range max (V)     1.000
I Range             100 mA
I Range min         Unset
I Range max         Unset
I Range init        Unset
Bandwidth           5
E2 (V)              0.000
vs.                 Ref
nc cycles           0
Reverse Scan        0
Ef (V)              0.000
vs.                 Eoc

Number of loops : 7
Loop 0 from point number 0 to 3406
Loop 1 from point number 3407 to 6813
Loop 2 from point number 6814 to 10220
Loop 3 from point number 10221 to 13627
Loop 4 from point number 13628 to 17034
Loop 5 from point number 17035 to 20441
Loop 6 from point number 20442 to 23848

mode	ox/red	error	control changes	counter inc.	time/s	control/V	Ewe/V	<I>/mA	cycle number	(Q-Qo)/C	I Range	P/W
2	1	0	1	0	1250.29	2.44065e-05	-0.000363498	0.120037	1	0.0000000E+000	10	-4.36332e-08
2	1	0	1	0	1267.12	0.0841973	0.0839235	0.426794	1	0.0055586	10	3.5818e-05
2	1	0	0	0	1284	0.168596	0.168301	0.585399	1	0.0181645	10	9.85229e-05
2	1	0	0	0	1300.88	0.252994	0.252707	0.279024	1	0.0244341	10	7.05113e-05
2	1	0	0	0	1317.76	0.337392	0.337115	0.257689	1	0.0293666	10	8.68709e-05
2	1	0	0	0	1334.64	0.42179	0.421528	0.246364	1	0.0340155	10	0.000103849
2	1	0	0	0	1351.52	0.506188	0.505896	0.25693	1	0.0386072	10	0.00012998
2	1	0	0	0	1368.4	0.590586	0.59032	0.441232	1	0.0443219	10	0.000260468
2	1	0	0	0	1385.28	0.674984	0.67474	5.05114	1	0.0728824	10	0.0034082
2	1	0	0	0	1402.16	0.759382	0.759116	32.7208	1	0.360722	10	0.0248388
2	1	0	1	0	1419.04	0.84378	0.843579	62.4629	1	1.20485	10	0.0526924
2	1	0	1	0	1435.82	0.772316	0.772082	34.3273	1	2.06377	10	0.0265035
2	1	0	1	0	1452.7	0.687918	0.687696	4.48635	1	2.34985	10	0.00308525
2	1	0	1	0	1469.58	0.60352	0.603258	0.0632145	1	2.3705	10	3.81346e-05
2	0	0	1	0	1486.46	0.519122	0.518832	-0.0879148	1	2.36934	10	-4.5613e-05
2	0	0	1	0	1503.34	0.434724	0.434433	-0.120489	1	2.36719	10	-5.23444e-05
2	0	0	1	0	1520.22	0.350327	0.350067	-0.169649	1	2.36436	10	-5.93886e-05
2	0	0	1	0	1537.1	0.265928	0.26563	-0.226397	1	2.3606	10	-6.01379e-05
2	0	0	0	0	1553.98	0.18153	0.181266	-0.371595	1	2.35558	10	-6.73576e-05
2	0	0	0	0	1570.86	0.0971321	0.0968524	-0.663947	1	2.34234	10	-6.43049e-05
2	0	0	0	0	1587.74	0.0127341	0.0124091	-0.483518	1	2.33292	10	-6.00002e-06
2	1	0	1	0	2496.06	0.070714	0.0704282	0.38871	2	0.00451233	10	2.73762e-05
2	1	0	1	0	2512.94	0.155112	0.154805	0.84751	2	0.0162934	10	0.000131199
2	1	0	1	0	2529.82	0.23951	0.239252	0.284806	2	0.0235645	10	6.81405e-05
2	1	0	1	0	2546.69	0.323908	0.323634	0.260291	2	0.0285517	10	8.42391e-05
2	1	0	1	0	2563.57	0.408307	0.408013	0.245453	2	0.0332353	10	0.000100148
2	1	0	1	0	2580.45	0.492704	0.492448	0.250798	2	0.0378115	10	0.000123505
2	1	0	1	0	2597.33	0.577102	0.576858	0.359001	2	0.0430502	10	0.000207093
2	1	0	1	0	2614.21	0.6615	0.661275	2.79887	2	0.0600352	10	0.00185082
2	1	0	1	0	2631.09	0.745898	0.745629	25.8736	2	0.266368	10	0.0192921
2	1	0	1	0	2647.97	0.830296	0.830046	58.9478	2	1.00656	10	0.0489294
2	1	0	1	0	2664.75	0.7858	0.78556	36.8799	2	1.8877	10	0.0289714
2	1	0	1	0	2681.63	0.701402	0.701181	6.13895	2	2.21935	10	0.00430451
2	1	0	1	0	2698.51	0.617004	0.61673	0.134278	2	2.24977	10	8.28136e-05
2	0	0	1	0	2715.39	0.532606	0.532322	-0.0837067	2	2.24898	10	-4.45589e-05
2	0	0	1	0	2732.27	0.448208	0.447955	-0.11534	2	2.24693	10	-5.16674e-05
2	0	0	1	0	2749.15	0.36381	0.363545	-0.163359	2	2.24423	10	-5.93884e-05
2	0	0	1	0	2766.03	0.279412	0.279158	-0.219055	2	2.24065	10	-6.11508e-05
2	0	0	1	0	2782.91	0.195014	0.194718	-0.311378	2	2.236	10	-6.06311e-05
2	0	0	1	0	2799.79	0.110616	0.110322	-0.780749	2	2.22408	10	-8.61336e-05
2	0	0	1	0	2816.67	0.0262178	0.0258964	-0.477416	2	2.21385	10	-1.23634e-05
2	1	0	1	0	3724.99	0.0572306	0.0569687	0.346676	3	0.00344828	10	1.97497e-05
2	1	0	1	0	3741.87	0.141629	0.141353	0.949467	3	0.0136742	10	0.00013421
2	1	0	1	0	3758.75	0.226026	0.225743	0.297382	3	0.0223837	10	6.71318e-05
2	1	0	1	0	3775.63	0.310424	0.310165	0.265857	3	0.0274376	10	8.24594e-05
2	1	0	1	0	3792.51	0.394822	0.394542	0.250208	3	0.032135	10	9.87176e-05
2	1	0	1	0	3809.39	0.47922	0.478958	0.250226	3	0.0366656	10	0.000119848
2	1	0	1	0	3826.27	0.563618	0.563297	0.313506	3	0.0415701	10	0.000176597
2	1	0	1	0	3843.14	0.648016	0.647754	1.53515	3	0.0525156	10	0.000994398
2	1	0	1	0	3860.02	0.732414	0.732211	18.3022	3	0.184764	10	0.0134011
2	1	0	0	0	3876.9	0.816813	0.816557	51.6134	3	0.780094	10	0.0421453
2	1	0	1	0	3893.68	0.799284	0.799046	42.6056	3	1.67458	10	0.0340439
2	1	0	1	0	3910.56	0.714886	0.714622	8.8203	3	2.08394	10	0.00630318
2	1	0	1	0	3927.44	0.630488	0.630235	0.255104	3	2.13109	10	0.000160775
2	0	0	1	0	3944.32	0.54609	0.545836	-0.0771889	3	2.13087	10	-4.21325e-05
2	0	0	1	0	3961.2	0.461692	0.461414	-0.110508	3	2.12891	10	-5.09901e-05
2	0	0	1	0	3978.08	0.377294	0.377066	-0.154006	3	2.12635	10	-5.80705e-05
2	0	0	1	0	3994.96	0.292895	0.292627	-0.207356	3	2.12294	10	-6.06781e-05
2	0	0	1	0	4011.84	0.208497	0.208226	-0.278057	3	2.11854	10	-5.78986e-05
2	0	0	1	0	4028.72	0.124099	0.123804	-0.943032	3	2.10849	10	-0.000116751
2	0	0	1	0	4045.6	0.0397015	0.0394049	-0.490198	3	2.09709	10	-1.93162e-05
2	1	0	1	0	4953.92	0.0437465	0.0434439	0.309827	4	0.00253314	10	1.34601e-05
2	1	0	1	0	4970.8	0.128144	0.127854	0.821507	4	0.0113736	10	0.000105033
2	1	0	1	0	4987.68	0.212542	0.212268	0.308681	4	0.0213903	10	6.55231e-05
2	1	0	0	0	5004.56	0.296941	0.296681	0.268598	4	0.0265362	10	7.96877e-05
2	1	0	0	0	5021.44	0.381339	0.381088	0.251827	4	0.0312915	10	9.59681e-05
2	1	0	0	0	5038.32	0.465737	0.465488	0.249078	4	0.0358448	10	0.000115943
2	1	0	0	0	5055.2	0.550135	0.549843	0.288282	4	0.0406063	10	0.00015851
2	1	0	0	0	5072.08	0.634533	0.634291	0.931989	4	0.0487071	10	0.000591152
2	1	0	0	0	5088.96	0.718931	0.718687	13.3959	4	0.135109	10	0.00962748
2	1	0	0	0	5105.84	0.803329	0.803104	46.4018	4	0.62407	10	0.0372655
2	1	0	1	0	5122.62	0.812767	0.812543	47.3602	4	1.53418	10	0.0384821
2	1	0	1	0	5139.5	0.728369	0.72813	11.7878	4	2.01196	10	0.00858308
2	1	0	1	0	5156.38	0.643971	0.643707	0.4808	4	2.08191	10	0.000309494
2	0	0	1	0	5173.25	0.559573	0.559299	-0.0718032	4	2.08273	10	-4.01594e-05
[...]
2	1	0	1	0	6368.43	0.741853	0.741558	15.6446	5	1.91269	10	0.0116014
2	1	0	1	0	6385.31	0.657455	0.657202	0.872734	5	2.01399	10	0.000573563
2	0	0	1	0	6402.19	0.573057	0.572818	-0.0606493	5	2.01651	10	-3.47411e-05
2	0	0	1	0	6419.07	0.488659	0.48837	-0.102342	5	2.01472	10	-4.99807e-05
2	0	0	0	0	6435.95	0.404261	0.404004	-0.139759	5	2.01238	10	-5.64631e-05
2	0	0	0	0	6452.83	0.319863	0.319589	-0.190993	5	2.00927	10	-6.10392e-05
2	0	0	0	0	6469.7	0.235465	0.235173	-0.247133	5	2.00523	10	-5.8119e-05
2	0	0	0	0	6486.58	0.151067	0.150771	-0.668644	5	1.99909	10	-0.000100812
2	0	0	0	0	6503.46	0.0666689	0.0663594	-0.602594	5	1.98572	10	-3.99878e-05
2	1	0	0	0	7411.78	0.0167792	0.0165108	0.264566	6	0.000871645	10	4.36819e-06
2	1	0	0	0	7428.66	0.101177	0.100878	0.559762	6	0.00789833	10	5.64676e-05
2	1	0	1	0	7445.54	0.185576	0.1853	0.352032	6	0.0191876	10	6.52316e-05
2	1	0	1	0	7462.42	0.269973	0.269719	0.275471	6	0.0245662	10	7.42997e-05
2	1	0	1	0	7479.3	0.354372	0.354084	0.255567	6	0.0294023	10	9.0492e-05
2	1	0	1	0	7496.18	0.438769	0.438497	0.248441	6	0.0339879	10	0.000108941
2	1	0	1	0	7513.06	0.523167	0.522894	0.263263	6	0.038592	10	0.000137659
2	1	0	1	0	7529.94	0.607565	0.607307	0.463551	6	0.0443764	10	0.000281517
2	1	0	1	0	7546.82	0.691963	0.69171	5.80806	6	0.0771234	10	0.00401749
2	1	0	1	0	7563.7	0.776361	0.776111	31.4701	6	0.367513	10	0.0244243
2	1	0	1	0	7580.48	0.839735	0.83954	54.1455	6	1.16665	10	0.0454573
2	1	0	0	0	7597.36	0.755337	0.755091	19.6031	6	1.7942	10	0.0148022
2	1	0	0	0	7614.24	0.670939	0.670642	1.49665	6	1.93281	10	0.00100372
2	0	0	0	0	7631.12	0.586541	0.586287	-0.0432878	6	1.93823	10	-2.53791e-05
2	0	0	0	0	7648	0.502143	0.501858	-0.0978938	6	1.93658	10	-4.91288e-05
2	0	0	0	0	7664.88	0.417745	0.417473	-0.132312	6	1.93435	10	-5.52365e-05
2	0	0	0	0	7681.76	0.333347	0.333012	-0.180859	6	1.93139	10	-6.02283e-05
2	0	0	0	0	7698.64	0.248949	0.248625	-0.237712	6	1.92753	10	-5.91013e-05
2	0	0	1	0	7715.52	0.16455	0.164242	-0.427612	6	1.92231	10	-7.02318e-05
2	0	0	1	0	7732.4	0.0801523	0.0798716	-0.654517	6	1.9094	10	-5.22774e-05
2	1	0	1	0	8640.71	0.00329557	0.00298437	0.21975	7	0.000142608	10	6.55815e-07
2	1	0	1	0	8657.59	0.0876935	0.0873726	0.506085	7	0.00644137	10	4.42179e-05
2	1	0	1	0	8674.47	0.172091	0.17182	0.411296	7	0.0178357	10	7.06688e-05
2	1	0	1	0	8691.35	0.256489	0.256207	0.280198	7	0.0234629	10	7.17887e-05
2	1	0	1	0	8708.23	0.340887	0.340588	0.260129	7	0.0283414	10	8.85968e-05
2	1	0	1	0	8725.11	0.425286	0.425026	0.248096	7	0.0329389	10	0.000105447
2	1	0	1	0	8741.99	0.509684	0.509406	0.259337	7	0.0374903	10	0.000132108
2	1	0	1	0	8758.87	0.594082	0.593835	0.375457	7	0.042783	10	0.000222959
2	1	0	1	0	8775.75	0.67848	0.678252	3.35249	7	0.0625369	10	0.00227383
2	1	0	1	0	8792.63	0.762878	0.762609	24.3383	7	0.267469	10	0.0185606
2	1	0	1	0	8809.51	0.847276	0.847076	57.1755	7	0.96678	10	0.048432
2	1	0	0	0	8826.29	0.768821	0.768548	23.0939	7	1.65689	10	0.0177487
2	1	0	0	0	8843.17	0.684423	0.684217	2.38919	7	1.83429	10	0.00163473
2	1	0	0	0	8860.05	0.600025	0.59974	-0.0141941	7	1.84433	10	-8.51278e-06
2	0	0	1	0	8876.93	0.515626	0.515332	-0.09251	7	1.84286	10	-4.76733e-05
2	0	0	1	0	8893.81	0.431228	0.430964	-0.125738	7	1.84073	10	-5.41887e-05
2	0	0	1	0	8910.69	0.34683	0.346528	-0.172369	7	1.83791	10	-5.97308e-05
2	0	0	1	0	8927.57	0.262432	0.262171	-0.227096	7	1.83421	10	-5.95381e-05
2	0	0	1	0	8944.45	0.178034	0.177718	-0.331444	7	1.8294	10	-5.89036e-05
2	0	0	1	0	8961.33	0.0936365	0.0933248	-0.698833	7	1.81747	10	-6.52185e-05
2	0	0	1	0	8978.21	0.00923861	0.00890686	-0.480347	7	1.80759	10	-4.27839e-06
2	0	0	1	0	8980.05	2.44065e-05	-0.000287149	-0.484083	7	1.80665	10	1.39004e-07