Folder: Figs_alphaMnO2_OER_Tafel_sleope/Figure_codes/Fig_3-5/rawdata_trumpetplot_data/before 10th (part 50)

File: 20221101_1-115_002_TrumpetPlot_ParaChange_14_CV_C01_5.csv
mode,ox/red,error,control changes,counter inc.,time/s,control/V,Ewe/V,<I>/mA,cycle number,(Q-Qo)/C,I Range,P/W,log(|I|),Tafel slope mV/dec,alpha_eff,dI/d(E-IR),E-IR/V,
2,1,0,1,0,7374.43,2.44065e-05,-0.00070707,25.1046,6,0.0000000E+000,10,-1.77507e-05,-1.60025, , , ,-0.00070707,
2,1,0,1,0,7374.45,0.0102815,0.0100062,25.223,6,0.000417147,10,0.000252387,-1.5982,0.282133,0.209121,205.565,0.0100062,
2,1,0,1,0,7374.47,0.0210878,0.0207672,27.2102,6,0.000890156,10,0.000565081,-1.56527,0.421357,0.140024,148.182,0.0207672,
2,1,0,1,0,7374.49,0.0318859,0.0315473,28.5143,6,0.00139256,10,0.00089955,-1.54494,0.630459,0.0935826,104.001,0.0315473,
2,1,0,1,0,7374.51,0.042684,0.0423433,29.4862,6,0.00191498,10,0.00124854,-1.53038,0.784873,0.0751714,86.5364,0.0423433,
2,1,0,1,0,7374.52,0.0534793,0.0531584,30.4438,6,0.00245438,10,0.00161834,-1.5165,0.717253,0.0822583,97.8714,0.0531584,
2,1,0,1,0,7374.54,0.0642857,0.0639311,31.6662,6,0.00301319,10,0.00202446,-1.4994,0.566575,0.104134,128.888,0.0639311,
2,1,0,1,0,7374.56,0.0750837,0.0747642,33.316,6,0.00359746,10,0.00249084,-1.47735,0.438283,0.134616,175.21,0.0747642,
2,1,0,1,0,7374.58,0.0858818,0.0855273,35.3674,6,0.00421534,10,0.00302488,-1.4514,0.40645,0.145159,200.428,0.0855273,
2,1,0,1,0,7374.6,0.0966882,0.0963562,37.8154,6,0.00487316,10,0.00364375,-1.42233,0.35227,0.167485,247.034,0.0963562,
2,1,0,1,0,7374.61,0.107483,0.107126,40.5215,6,0.00557824,10,0.00434089,-1.39231,0.362498,0.162759,257.335,0.107126,
2,1,0,1,0,7374.63,0.118282,0.117964,43.3471,6,0.00633299,10,0.0051134,-1.36304,0.370548,0.159224,269.363,0.117964,
2,1,0,1,0,7374.65,0.129088,0.128748,46.3817,6,0.00714036,10,0.00597158,-1.33365,0.361532,0.163194,295.435,0.128748,
2,1,0,1,0,7374.67,0.139886,0.139589,49.7615,6,0.00800525,10,0.00694615,-1.30311,0.340687,0.17318,336.515,0.139589,
2,1,0,1,0,7374.69,0.150681,0.150357,53.6196,6,0.0089355,10,0.0080621,-1.27068,0.326394,0.180763,378.509,0.150357,
2,1,0,1,0,7374.7,0.161485,0.161153,57.8121,6,0.00993874,10,0.00931661,-1.23798,0.340401,0.173325,391.057,0.161153,
2,1,0,1,0,7374.72,0.172286,0.171995,61.9893,6,0.011018,10,0.0106618,-1.20768,0.386394,0.152694,369.036,0.171995,
2,1,0,1,0,7374.74,0.183084,0.182787,65.5976,6,0.0121681,10,0.0119904,-1.18311,0.541454,0.108966,278.292,0.182787,
2,1,0,1,0,7374.76,0.193879,0.193553,67.6012,6,0.0133707,10,0.0130844,-1.17005,2.83573,0.0208059,54.6314,0.193553,
2,1,0,1,0,7374.78,0.204688,0.204351,66.2735,6,0.014582,10,0.0135431,-1.17866,-0.446427,-0.13216,-339.187,0.204351,
2,1,0,1,0,7374.79,0.215484,0.215229,60.1202,6,0.0157261,10,0.0129396,-1.22098,-0.176323,-0.334613,-778.62,0.2152288,
2,1,0,1,0,7374.81,0.226282,0.22602,50.0852,6,0.0167204,10,0.0113202,-1.30029,-0.114614,-0.514772,-1002.19,0.22602,
2,1,0,1,0,7374.83,0.237088,0.23684,39.5827,6,0.0175243,10,0.00937476,-1.40249,-0.103668,-0.569127,-881.734,0.23684,
2,1,0,1,0,7374.85,0.247886,0.247618,31.5945,6,0.0181591,10,0.00782336,-1.50039,-0.125832,-0.468879,-582.743,0.247618,
2,1,0,1,0,7374.87,0.258681,0.258445,26.7953,6,0.0186801,10,0.00692511,-1.57194,-0.191805,-0.307604,-324.218,0.258445,
2,1,0,1,0,7374.88,0.269488,0.269215,24.2625,6,0.019137,10,0.00653183,-1.61506,-0.324743,-0.181682,-172.848,0.269215,
2,1,0,1,0,7374.9,0.280286,0.280016,22.9335,6,0.0195604,10,0.00642177,-1.63953,-0.577645,-0.102139,-91.5559,0.280016,
2,1,0,1,0,7374.92,0.291084,0.290801,22.1307,6,0.0199653,10,0.00643562,-1.655,-0.846466,-0.0697015,-60.2833,0.290801,
2,1,0,1,0,7374.93,0.300012,0.299632,21.6688,6,0.0202915,10,0.00649266,-1.66417,0.000531166,111.076,73323.3,0.299632,
2,1,0,1,0,7374.95,0.290843,0.290594,2.16838,6,0.0204491,10,0.000630117,-2.66387,0.0178446,3.30633,1342.43,0.290594,
2,0,0,1,0,7374.97,0.280047,0.279782,-6.88084,6,0.0203933,10,-0.00192513,-2.16236,-0.0264599,-2.22979,527.24,0.279782,
2,0,0,1,0,7374.99,0.269244,0.269022,-10.7024,6,0.0202304,10,-0.00287917,-1.97052,-0.0999282,-0.590424,241.4,0.269022,
2,0,0,1,0,7375,0.258443,0.258153,-12.6194,6,0.0200189,10,-0.00325774,-1.89896,-0.211529,-0.278921,136.334,0.258153,
2,0,0,1,0,7375.02,0.247645,0.247361,-13.825,6,0.0197801,10,-0.00341978,-1.85933,-0.32735,-0.180235,97.0474,0.247361,
2,0,0,1,0,7375.04,0.236849,0.236536,-14.769,6,0.0195225,10,-0.0034934,-1.83065,-0.412608,-0.142993,82.324,0.236536,
2,0,0,1,0,7375.06,0.22604,0.225757,-15.6204,6,0.019249,10,-0.0035264,-1.80631,-0.46308,-0.127408,77.6172,0.225757,
2,0,0,1,0,7375.08,0.215245,0.21495,-16.4567,6,0.0189603,10,-0.00353736,-1.78366,-0.456779,-0.129165,82.9916,0.21495,
2,0,0,1,0,7375.09,0.204447,0.204149,-17.3839,6,0.0186558,10,-0.00354891,-1.75985,-0.432207,-0.136509,92.7315,0.204149,
2,0,0,1,0,7375.11,0.19364,0.193376,-18.4825,6,0.0183332,10,-0.00357407,-1.73324,-0.382234,-0.154356,111.464,0.193376,
2,0,0,1,0,7375.13,0.182842,0.182577,-19.8439,6,0.0179885,10,-0.00362303,-1.70237,-0.315421,-0.187052,145.222,0.182577,
2,0,0,1,0,7375.15,0.172047,0.171718,-21.6983,6,0.0176152,10,-0.00372599,-1.66358,-0.250196,-0.235815,200.276,0.1717182,
2,0,0,1,0,7375.17,0.161241,0.160943,-24.278,6,0.0172026,10,-0.00390739,-1.61479,-0.201464,-0.292856,278.126,0.1609434,
2,0,0,1,0,7375.18,0.150443,0.150174,-27.8077,6,0.0167353,10,-0.00417599,-1.55583,-0.168286,-0.350595,381.299,0.150174,
2,0,0,1,0,7375.2,0.139645,0.139384,-32.5265,6,0.0161938,10,-0.00453369,-1.48776,-0.1524,-0.387138,492.268,0.139384,
2,0,0,1,0,7375.22,0.128849,0.128604,-38.3503,6,0.0155566,10,-0.00493201,-1.41623,-0.154491,-0.381899,571.41,0.1286042,
2,0,0,1,0,7375.24,0.118043,0.117888,-44.5817,6,0.0148092,10,-0.00525564,-1.35084,-0.175322,-0.336523,585.671,0.117888,
2,0,0,1,0,7375.26,0.107245,0.107041,-50.8464,6,0.0139486,10,-0.00544264,-1.29374,-0.214159,-0.275497,545.334,0.107041,
2,0,0,1,0,7375.27,0.0964468,0.0962798,-56.3081,6,0.0129823,10,-0.00542134,-1.24943,-0.27935,-0.211205,463.337,0.0962798,
2,0,0,1,0,7375.29,0.0856404,0.0853895,-60.711,6,0.0119262,10,-0.00518408,-1.21673,-0.424346,-0.139038,328.536,0.08538945,
2,0,0,1,0,7375.31,0.0748451,0.0745394,-63.4134,6,0.0108059,10,-0.00472679,-1.19782,-0.88893,-0.0663719,163.795,0.0745394,
2,0,0,1,0,7375.33,0.0640471,0.0637423,-64.1685,6,0.00965438,10,-0.00409025,-1.19268,4.68791,0.0125856,-31.4129,0.06374231,
2,0,0,1,0,7375.35,0.0532407,0.0529251,-62.8845,6,0.00850863,10,-0.00332817,-1.20146,0.73999,0.0797308,-195.171,0.0529251,
2,0,0,1,0,7375.36,0.0424426,0.0421418,-60.2532,6,0.00739978,10,-0.00253918,-1.22002,0.519031,0.113673,-267.026,0.0421418,
2,0,0,1,0,7375.38,0.0316473,0.0313427,-57.2309,6,0.00634269,10,-0.00179377,-1.24237,0.460088,0.128236,-286.229,0.0313427,
2,0,0,1,0,7375.4,0.0208437,0.0204852,-54.049,6,0.00534131,10,-0.0011072,-1.26721,0.403063,0.146379,-308.412,0.0204852,
2,0,0,1,0,7375.42,0.0100429,0.00974005,-50.431,6,0.00440046,10,-0.0004912,-1.2973,0.318342,0.185335,-364.189,0.00974005,
2,0,0,1,0,7375.44,-0.000755207,-0.00112805,-46.303,6,0.00352977,10,5.22322e-05,-1.33439,0.274394,0.215019,-388.223,-0.00112805,
2,0,0,1,0,7375.45,-0.0115505,-0.0119007,-42.2123,6,0.00273445,10,0.000502357,-1.37456,0.287318,0.205347,-339.123,-0.0119007,
2,0,0,1,0,7375.47,-0.0223597,-0.0227275,-39.1787,6,0.00200412,10,0.000890433,-1.40695,0.404296,0.145933,-223.778,-0.0227275,
2,0,0,1,0,7375.49,-0.033155,-0.0334821,-37.3957,6,0.00131686,10,0.00125209,-1.42718,0.778063,0.0758293,-110.979,-0.0334821,
2,0,0,1,0,7375.51,-0.043953,-0.0443449,-36.6416,6,0.000651823,10,0.00162487,-1.43603,2.35939,0.0250064,-35.83,-0.0443449,
2,0,0,1,0,7375.53,-0.0547594,-0.0551123,-36.5978,6,-6.38776e-06,10,0.00201699,-1.43655,-4.99201,-0.0118189,16.8934,-0.0551123,
2,0,0,1,0,7375.54,-0.0655575,-0.0659094,-36.9814,6,-0.000667986,10,0.00243742,-1.43202,-1.57604,-0.0374356,54.061,-0.0659094,
2,0,0,1,0,7375.56,-0.0763528,-0.076699,-37.688,6,-0.00133963,10,0.00289064,-1.4238,-1.11991,-0.052683,77.5197,-0.076699,
2,0,0,1,0,7375.58,-0.0871592,-0.0874802,-38.6225,6,-0.00202604,10,0.0033787,-1.41316,-0.941511,-0.0626652,94.4647,-0.0874802,
2,0,0,1,0,7375.6,-0.0979573,-0.0982741,-39.7281,6,-0.00273096,10,0.00390424,-1.4009,-0.911747,-0.0647109,99.8974,-0.09827406,
2,0,0,1,1,7375.61,-0.0955546,-0.0960186,-27.3424,6,-0.00311919,10,0.00262538,-1.56316,-0.0244217,-2.41589,2518.16,-0.0960186,
2,0,0,1,1,7375.63,-0.0847538,-0.0852226,-6.61052,6,-0.0034079,10,0.000563366,-2.17976,-0.00287331,-20.5338,1525.49,-0.0852226,
2,1,0,1,1,7375.65,-0.0739557,-0.0744191,6.73544,6,-0.0033974,10,-0.000501246,-2.17163,0.0108372,5.44422,1014.87,-0.0744191,
2,1,0,1,1,7375.66,-0.0631604,-0.0635998,15.79,6,-0.00318894,10,-0.00100424,-1.80162,0.0505897,1.16625,695.287,-0.06359981,
2,1,0,1,1,7375.68,-0.0523512,-0.0527571,22.0636,6,-0.00284386,10,-0.00116401,-1.65632,0.106548,0.553739,470.406,-0.0527571,
2,1,0,1,1,7375.7,-0.0415559,-0.0419421,26.2075,6,-0.00240655,10,-0.0010992,-1.58157,0.193266,0.305279,310.208,-0.0419421,
2,1,0,1,1,7375.72,-0.0307579,-0.0311535,28.9006,6,-0.00190853,10,-0.000900355,-1.53909,0.34119,0.172924,194.292,-0.0311535,
2,1,0,1,1,7375.74,-0.0199515,-0.0203384,30.5597,6,-0.00137203,10,-0.000621535,-1.51485,0.613946,0.0960997,114.219,-0.0203384,
2,1,0,1,1,7375.75,-0.0091534,-0.00952966,31.4404,6,-0.000813286,10,-0.000299617,-1.50251,1.35294,0.0436087,53.3692,-0.00952966,
2,1,0,1,1,7375.77,-7.54729e-05,-0.000382585,31.638,6,-0.000336079,10,-1.21042e-05,-1.49979, , , ,-0.000382585,

File: 20221101_1-115_002_TrumpetPlot_ParaChange_14_CV_C01_6.csv
mode,ox/red,error,control changes,counter inc.,time/s,control/V,Ewe/V,<I>/mA,cycle number,(Q-Qo)/C,I Range,P/W,log(|I|),Tafel slope mV/dec,alpha_eff,dI/d(E-IR),E-IR/V,
2,1,0,1,0,8606.06,2.44065e-05,-0.000649808,25.2045,7,0.0000000E+000,10,-1.63781e-05,-1.59852, , , ,-0.000649808,
2,1,0,1,0,8606.08,0.0102815,0.00992775,24.3085,7,0.00040595,10,0.000241328,-1.61424,0.319027,0.184937,175.633,0.00992775,
2,1,0,1,0,8606.1,0.0210878,0.0207736,26.1226,7,0.000860791,10,0.000542661,-1.58298,0.421966,0.139822,142.275,0.0207736,
2,1,0,1,0,8606.12,0.0318859,0.0315473,27.4365,7,0.00134376,10,0.000865548,-1.56167,0.591769,0.099701,106.684,0.0315473,
2,1,0,1,0,8606.13,0.042684,0.0423751,28.5065,7,0.0018476,10,0.00120797,-1.54506,0.692924,0.0851465,94.7557,0.0423751,
2,1,0,1,0,8606.15,0.0534793,0.053151,29.5933,7,0.00237032,10,0.00157291,-1.52881,0.626037,0.0942437,108.909,0.05315097,
2,1,0,1,0,8606.17,0.0642857,0.0640159,30.9229,7,0.00291464,10,0.00197956,-1.50972,0.51077,0.115512,139.498,0.0640159,
2,1,0,1,0,8606.19,0.0750837,0.0747483,32.6123,7,0.00348595,10,0.00243771,-1.48662,0.4264,0.138368,176.28,0.0747483,
2,1,0,1,0,8606.21,0.0858818,0.0855421,34.6837,7,0.00409132,10,0.00296692,-1.45987,0.392363,0.150371,203.61,0.08554215,
2,1,0,1,0,8606.22,0.0966882,0.0962851,37.004,7,0.00473612,10,0.00356293,-1.43175,0.364569,0.161835,233.875,0.0962851,
2,1,0,1,0,8606.24,0.107483,0.107168,39.6043,7,0.00542588,10,0.00424432,-1.40226,0.370634,0.159187,246.058,0.107168,
2,1,0,1,0,8606.26,0.118282,0.117964,42.261,7,0.00616286,10,0.00498528,-1.37406,0.384714,0.153361,253.062,0.117964,
2,1,0,1,0,8606.28,0.129088,0.128724,45.0978,7,0.00694906,10,0.00580517,-1.34584,0.379059,0.155648,274.071,0.128724,
2,1,0,1,0,8606.3,0.139886,0.139527,48.2574,7,0.00778897,10,0.00673323,-1.31644,0.355434,0.165994,312.825,0.139527,
2,1,0,1,0,8606.31,0.150681,0.150361,51.847,7,0.00868975,10,0.00779574,-1.28528,0.347488,0.16979,343.717,0.150361,
2,1,0,1,0,8606.33,0.161485,0.161164,55.7188,7,0.00965811,10,0.00897986,-1.254,0.359884,0.163942,356.31,0.161164,
2,1,0,1,0,8606.35,0.172286,0.171937,59.5017,7,0.0106958,10,0.0102305,-1.22547,0.410948,0.14357,332.923,0.171937,
2,1,0,1,0,8606.37,0.183084,0.182714,62.7429,7,0.0117975,10,0.011464,-1.20244,0.578063,0.102065,249.286,0.182714,
2,1,0,1,0,8606.39,0.193879,0.193565,64.5367,7,0.0129462,10,0.012492,-1.19019,2.99869,0.0196753,49.3222,0.1935647,
2,1,0,1,0,8606.4,0.204688,0.204402,63.2764,7,0.0141024,10,0.0129338,-1.19876,-0.461869,-0.127742,-313.113,0.204402,
2,1,0,1,0,8606.42,0.215484,0.215205,57.5283,7,0.0151961,10,0.0123804,-1.24012,-0.182251,-0.323729,-721.402,0.215205,
2,1,0,1,0,8606.44,0.226282,0.226011,48.2515,7,0.0161504,10,0.0109054,-1.31649,-0.120687,-0.488868,-918.113,0.226011,
2,1,0,1,0,8606.46,0.237088,0.236813,38.7929,7,0.0169307,10,0.00918667,-1.41125,-0.114605,-0.514811,-782.369,0.2368134,
2,1,0,1,0,8606.48,0.247886,0.247607,31.7863,7,0.0175608,10,0.00787051,-1.49776,-0.144075,-0.409508,-511.533,0.247607,
2,1,0,1,0,8606.49,0.258681,0.258393,27.5336,7,0.0180909,10,0.00711449,-1.56014,-0.213245,-0.276677,-299.066,0.258393,
2,1,0,1,0,8606.51,0.269488,0.269197,25.1206,7,0.0185625,10,0.00676241,-1.59997,-0.340631,-0.173208,-170.355,0.269197,
2,1,0,1,0,8606.53,0.280286,0.279937,23.702,7,0.0190007,10,0.00663506,-1.62522,-0.5246,-0.112467,-104.169,0.279937,
2,1,0,1,0,8606.55,0.291084,0.290783,22.7693,7,0.0194183,10,0.00662092,-1.64265,-0.73022,-0.0807976,-71.8683,0.290783,
2,1,0,1,0,8606.56,0.300012,0.299746,22.1814,7,0.0197531,10,0.00664881,-1.65401,0.000223011,264.56,183310,0.299746,
2,1,0,1,0,8606.58,0.290843,0.290561,3.70941,7,0.0199281,10,0.00107781,-2.43069,0.00998667,5.90788,1296.46,0.290561,
2,0,0,1,0,8606.6,0.280047,0.279761,-5.20797,7,0.0199021,10,-0.00145699,-2.28333,-0.0181824,-3.24489,538.38,0.2797609,
2,0,0,1,0,8606.61,0.269244,0.269001,-9.21868,7,0.0197678,10,-0.00247983,-2.03533,-0.0786076,-0.750563,262.818,0.269001,
2,0,0,1,0,8606.63,0.258443,0.258174,-11.3425,7,0.019581,10,-0.00292835,-1.94529,-0.167062,-0.353162,155.051,0.258174,
2,0,0,1,0,8606.65,0.247645,0.247394,-12.7009,7,0.0193636,10,-0.00314212,-1.89617,-0.26502,-0.222625,110.219,0.2473941,
2,0,0,1,0,8606.67,0.236849,0.236548,-13.7622,7,0.0191249,10,-0.00325542,-1.86131,-0.351076,-0.168055,90.2532,0.236548,
2,0,0,1,0,8606.69,0.22604,0.225744,-14.6902,7,0.0188685,10,-0.00331622,-1.83297,-0.415325,-0.142058,81.3949,0.2257438,
2,0,0,1,0,8606.7,0.215245,0.214931,-15.5637,7,0.018596,10,-0.00334513,-1.80789,-0.424583,-0.13896,84.4662,0.214931,
2,0,0,1,0,8606.72,0.204447,0.204124,-16.5111,7,0.0183074,10,-0.00337032,-1.78222,-0.429662,-0.137317,88.412,0.204124,
2,0,0,1,0,8606.74,0.19364,0.193345,-17.5491,7,0.0180014,10,-0.00339303,-1.75575,-0.389471,-0.151487,103.71,0.1933452,
2,0,0,1,0,8606.76,0.182842,0.182526,-18.7948,7,0.0176747,10,-0.00343054,-1.72596,-0.32356,-0.182346,133.93,0.182526,
2,0,0,1,0,8606.78,0.172047,0.17177,-20.4619,7,0.017322,10,-0.00351474,-1.68905,-0.261077,-0.225987,180.825,0.17177,
2,0,0,1,0,8606.79,0.161241,0.160932,-22.7483,7,0.0169342,10,-0.00366092,-1.64305,-0.209096,-0.282167,251.029,0.160932,
2,0,0,1,0,8606.81,0.150443,0.150142,-25.8965,7,0.0164977,10,-0.00388815,-1.58676,-0.174718,-0.337687,342.268,0.1501421,
2,0,0,1,0,8606.83,0.139645,0.139352,-30.1457,7,0.0159945,10,-0.00420087,-1.52077,-0.155265,-0.379996,448.4,0.139352,
2,0,0,1,0,8606.85,0.128849,0.128541,-35.5042,7,0.0154042,10,-0.00456373,-1.44972,-0.155066,-0.380482,527.452,0.128541,
2,0,0,1,0,8606.87,0.118043,0.117807,-41.4228,7,0.0147114,10,-0.00487991,-1.38276,-0.17406,-0.338963,546.653,0.117807,
2,0,0,1,0,8606.88,0.107245,0.107017,-47.2271,7,0.0139129,10,-0.00505413,-1.32581,-0.206692,-0.285449,525.159,0.107017,
2,0,0,1,0,8606.9,0.0964468,0.0962215,-52.4523,7,0.0130137,10,-0.00504704,-1.28024,-0.27318,-0.215975,441.302,0.0962215,
2,0,0,1,0,8606.92,0.0856404,0.0853778,-56.7869,7,0.0120286,10,-0.00484834,-1.24575,-0.391124,-0.150847,333.2,0.08537779,
2,0,0,1,0,8606.94,0.0748451,0.0745935,-59.657,7,0.0109781,10,-0.00445002,-1.22434,-0.716057,-0.0823956,191.219,0.0745935,
2,0,0,1,0,8606.96,0.0640471,0.0637285,-60.8201,7,0.00989124,10,-0.00387598,-1.21595,-6.65546,-0.0088649,20.9705,0.0637285,
2,0,0,1,0,8606.97,0.0532407,0.0529039,-60.1565,7,0.00880031,10,-0.00318251,-1.22072,1.05665,0.0558366,-130.753,0.0529039,
2,0,0,1,0,8606.99,0.0424426,0.04218,-58.1995,7,0.00773427,10,-0.00245486,-1.23508,0.658663,0.0895754,-203.308,0.04218,
2,0,0,1,0,8607.01,0.0316473,0.0313554,-55.8157,7,0.00670796,10,-0.00175012,-1.25324,0.56769,0.10393,-226.392,0.0313554,
2,0,0,1,0,8607.03,0.0208437,0.0205318,-53.2675,7,0.00572592,10,-0.00109368,-1.27354,0.486565,0.121258,-251.951,0.0205318,
2,0,0,1,0,8607.05,0.0100429,0.0097443,-50.3253,7,0.00479284,10,-0.000490384,-1.29821,0.381592,0.154615,-303.232,0.0097443,
2,0,0,1,0,8607.06,-0.000755207,-0.0011376,-46.8093,7,0.00391827,10,5.325e-05,-1.32967,0.314098,0.18784,-342.625,-0.0011376,
2,0,0,1,0,8607.08,-0.0115505,-0.0119283,-43.0168,7,0.00311065,10,0.000513118,-1.36636,0.302488,0.195049,-327.871,-0.0119283,
2,0,0,1,0,8607.1,-0.0223597,-0.0226988,-39.9407,7,0.00236595,10,0.000906609,-1.39858,0.387604,0.152217,-237.752,-0.0226988,
2,0,0,1,0,8607.12,-0.033155,-0.0335033,-37.935,7,0.00166701,10,0.00127095,-1.42096,0.652826,0.0903764,-134.088,-0.0335033,
2,0,0,1,0,8607.14,-0.043953,-0.0443311,-36.9025,7,0.000994951,10,0.00163593,-1.43294,1.42032,0.04154,-59.9276,-0.0443311,
2,0,0,1,0,8607.15,-0.0547594,-0.0550858,-36.5845,7,0.000334623,10,0.00201529,-1.4367,13.4189,0.00439678,-6.28334,-0.0550858,
2,0,0,1,0,8607.17,-0.0655575,-0.0658956,-36.7427,7,-0.000324685,10,0.00242118,-1.43483,-2.34371,-0.0251737,36.1294,-0.0658956,
2,0,0,1,0,8607.19,-0.0763528,-0.0766937,-37.2431,7,-0.000990282,10,0.00285631,-1.42895,-1.40491,-0.0419955,61.1024,-0.0766937,
2,0,0,1,0,8607.21,-0.0871592,-0.0874929,-38.0144,7,-0.00166738,10,0.00332599,-1.42005,-1.1026,-0.05351,79.4333,-0.0874929,
2,0,0,1,0,8607.23,-0.0979573,-0.0982942,-38.9796,7,-0.00236021,10,0.00383147,-1.40916,-1.02152,-0.057757,87.5231,-0.0982942,
2,0,0,1,1,8607.24,-0.0955546,-0.095973,-27.3105,7,-0.00274278,10,0.00262107,-1.56367,-0.0265655,-2.22092,2326.85,-0.09597297,
2,0,0,1,1,8607.26,-0.0847538,-0.0851823,-7.89425,7,-0.00304399,10,0.00067245,-2.10269,-0.00993294,-5.93983,1434.14,-0.0851823,
2,1,0,1,1,8607.27,-0.0739557,-0.0743767,4.72434,7,-0.00306395,10,-0.000351381,-2.32566,0.00634392,9.30024,965.928,-0.0743767,
2,1,0,1,1,8607.29,-0.0631604,-0.0636592,13.4,7,-0.00289548,10,-0.00085303,-1.8729,0.0441119,1.33751,672.581,-0.0636592,
2,1,0,1,1,8607.31,-0.0523512,-0.0527381,19.5602,7,-0.00259505,10,-0.00103157,-1.70863,0.0950543,0.620698,466.303,-0.0527381,
2,1,0,1,1,8607.33,-0.0415559,-0.0419283,23.7355,7,-0.00220275,10,-0.00099519,-1.6246,0.169037,0.349036,321.062,-0.0419283,
2,1,0,1,1,8607.35,-0.0307579,-0.0311471,26.5486,7,-0.00174819,10,-0.000826912,-1.57596,0.290614,0.203018,209.515,-0.0311471,
2,1,0,1,1,8607.36,-0.0199515,-0.0203214,28.3752,7,-0.00125244,10,-0.000576624,-1.54706,0.488462,0.120787,133.33,-0.0203214,
2,1,0,1,1,8607.38,-0.0091534,-0.00953072,29.4565,7,-0.000731005,10,-0.000280741,-1.53082,0.914567,0.0645114,74.006,-0.00953072,
2,1,0,1,1,8607.4,-7.54729e-05,-0.000363498,29.8424,7,-0.000282188,10,-1.08477e-05,-1.52517, , , ,-0.000363498,