Folder: Figs_alphaMnO2_OER_Tafel_sleope/Figure_codes/Fig_3-5/rawdata_trumpetplot_data/before 10th (part 22)

File: 20221101_1-115_002_TrumpetPlot_ParaChange_08_CV_C01_3.csv
mode,ox/red,error,control changes,counter inc.,time/s,control/V,Ewe/V,<I>/mA,cycle number,(Q-Qo)/C,I Range,P/W,log(|I|),Tafel slope mV/dec,alpha_eff,dI/d(E-IR),E-IR/V,
2,0,0,0,0,4864.07,2.44065e-05,-0.0002108,-2.36848,4,0.0000000E+000,11,4.99274e-07,-2.62553, , , ,-0.0002108,
2,1,0,1,0,4864.26,0.00729063,0.00700915,1.61094,4,0.000169053,11,1.12913e-05,-2.79292,0.11009,0.535923,33.3976,0.00700915,
2,1,0,1,0,4864.44,0.014778,0.0145272,1.75344,4,0.00048655,11,2.54725e-05,-2.75611,0.254757,0.231593,15.8602,0.0145272,
2,1,0,1,0,4864.63,0.0222743,0.0220297,1.847,4,0.000824827,11,4.06889e-05,-2.73353,0.376249,0.156811,11.2308,0.0220297,
2,1,0,1,0,4864.82,0.0297626,0.0294983,1.91539,4,0.00117752,11,5.65006e-05,-2.71774,0.485851,0.121437,9.10254,0.02949827,
2,1,0,1,0,4865.01,0.0372544,0.0369607,2.00532,4,0.00154535,11,7.41181e-05,-2.69782,0.366978,0.160773,12.5691,0.0369607,
2,1,0,1,0,4865.19,0.0447472,0.0445116,2.11501,4,0.00193148,11,9.41427e-05,-2.67469,0.287746,0.205042,16.9197,0.0445116,
2,1,0,1,0,4865.38,0.0522345,0.0519049,2.25913,4,0.00234156,11,0.00011726,-2.64606,0.222388,0.265303,23.5085,0.0519049,
2,1,0,1,0,4865.57,0.0597309,0.0594226,2.46263,4,0.0027842,11,0.000146336,-2.6086,0.187777,0.314202,30.0937,0.0594226,
2,1,0,1,0,4865.75,0.0672182,0.0669336,2.69081,4,0.00326598,11,0.000180106,-2.57012,0.193413,0.305046,31.944,0.0669336,
2,1,0,1,0,4865.94,0.0747074,0.0744223,2.92552,4,0.00379198,11,0.000217724,-2.5338,0.224867,0.262377,29.9682,0.0744223,
2,1,0,1,0,4866.13,0.0822019,0.0819076,3.16012,4,0.00436337,11,0.000258838,-2.5003,0.260311,0.226652,27.9065,0.0819076,
2,1,0,1,0,4866.32,0.0896911,0.0894057,3.37275,4,0.00497586,11,0.000301543,-2.47202,0.283382,0.208199,27.4334,0.0894057,
2,1,0,1,0,4866.5,0.097182,0.0968988,3.58006,4,0.00562795,11,0.000346903,-2.44611,0.253114,0.233097,32.6157,0.0968988,
2,1,0,1,0,4866.69,0.104675,0.104397,3.83959,4,0.00632212,11,0.000400841,-2.41572,0.218443,0.270094,40.3855,0.104397,
2,1,0,1,0,4866.88,0.112162,0.111849,4.18242,4,0.00707082,11,0.000467798,-2.37857,0.173952,0.339174,55.4202,0.111849,
2,1,0,1,0,4867.07,0.119655,0.119349,4.68481,4,0.00789943,11,0.000559128,-2.32931,0.147839,0.399082,73.0059,0.119349,
2,1,0,1,0,4867.25,0.127146,0.126843,5.27945,4,0.00883278,11,0.000669661,-2.27741,0.148395,0.397587,81.8896,0.126843,
2,1,0,1,0,4867.44,0.134635,0.134393,5.86557,4,0.00987929,11,0.000788289,-2.23169,0.193922,0.304247,69.7551,0.1343926,
2,1,0,1,0,4867.63,0.14213,0.14181,6.30705,4,0.0110248,11,0.000894405,-2.20017,0.330184,0.178688,43.8778,0.14181,
2,1,0,1,0,4867.81,0.149619,0.149304,6.42053,4,0.0122236,11,0.000958612,-2.19243,-0.80145,-0.0736166,-18.3611,0.149304,
2,1,0,1,0,4868,0.157106,0.156814,5.93511,4,0.0133913,11,0.000930709,-2.22657,-0.119762,-0.492644,-113.619,0.156814,
2,1,0,1,0,4868.19,0.164602,0.164292,4.83869,4,0.0144075,11,0.000794957,-2.31527,-0.0666414,-0.885336,-166.724,0.164292,
2,1,0,1,0,4868.38,0.172091,0.171864,3.73716,4,0.0152055,11,0.000642285,-2.42746,-0.0727772,-0.810693,-118.76,0.171864,
2,1,0,1,0,4868.56,0.179582,0.179351,3.05542,4,0.0158376,11,0.000547994,-2.51493,-0.100749,-0.585616,-70.2133,0.1793513,
2,1,0,1,0,4868.75,0.187074,0.186783,2.63752,4,0.0163686,11,0.000492645,-2.5788,-0.138615,-0.425638,-43.7135,0.186783,
2,1,0,1,0,4868.94,0.194563,0.194318,2.36023,4,0.0168345,11,0.000458634,-2.62705,-0.185306,-0.318392,-29.2991,0.194318,
2,1,0,1,0,4869.13,0.202059,0.20179,2.17616,4,0.0172586,11,0.000439127,-2.66231,-0.241448,-0.244359,-20.7403,0.20179,
2,1,0,1,0,4869.31,0.209546,0.20927,2.06093,4,0.0176548,11,0.000431291,-2.68594,-0.295288,-0.199805,-16.0284,0.20927,
2,1,0,1,0,4869.5,0.217035,0.216718,1.96689,4,0.018032,11,0.000426262,-2.70622,-0.493791,-0.119484,-9.21201,0.216718,
2,1,0,1,0,4869.69,0.22453,0.224259,1.91282,4,0.0183965,11,0.000428966,-2.71833,-0.56778,-0.103914,-7.75886,0.224259,
2,1,0,1,0,4869.87,0.232019,0.23174,1.86957,4,0.0187506,11,0.000433254,-2.72826,-0.982899,-0.0600265,-4.35857,0.23174,
2,1,0,1,0,4870.06,0.23951,0.239253,1.8255,4,0.0190972,11,0.000436756,-2.73862,-1.10861,-0.0532199,-3.80209,0.239253,
2,1,0,1,0,4870.25,0.247003,0.246788,1.79978,4,0.0194374,11,0.000444166,-2.74478,-0.685394,-0.0860818,-6.02711,0.246788,
2,1,0,1,0,4870.44,0.25449,0.254224,1.76902,4,0.019772,11,0.000449727,-2.75227,-0.897326,-0.0657509,-4.54079,0.2542243,
2,1,0,1,0,4870.62,0.261983,0.261739,1.73994,4,0.0201019,11,0.00045541,-2.75947,-1.34396,-0.0439002,-2.99838,0.261739,
2,1,0,1,0,4870.81,0.269474,0.269196,1.72277,4,0.0204274,11,0.000463763,-2.76377,-2.09177,-0.0282058,-1.89436,0.269196,
2,1,0,1,0,4871,0.276963,0.276698,1.70049,4,0.0207486,11,0.000470523,-2.76943,-1.36344,-0.0432728,-2.8735,0.276698,
2,1,0,1,0,4871.19,0.284458,0.284236,1.67824,4,0.0210664,11,0.000477016,-2.77515,-1.75448,-0.0336282,-2.2081,0.284236,
2,1,0,1,0,4871.37,0.291947,0.291661,1.66617,4,0.02138,11,0.000485957,-2.77828,-0.987573,-0.0597424,-3.86443,0.2916612,
2,1,0,1,0,4871.56,0.299434,0.299144,1.63976,4,0.0216902,11,0.000490524,-2.78522,-0.00775082,-7.6121,-358.195,0.299144,
2,0,0,1,0,4871.72,0.294196,0.293883,-0.550843,4,0.0216767,11,-0.000161883,-3.25897,-0.0406641,-1.45091,30.9048,0.293883,
2,0,0,1,0,4871.91,0.286701,0.286421,-0.724123,4,0.0215544,11,-0.000207404,-3.14019,-0.0930326,-0.634186,17.8809,0.286421,
2,0,0,1,0,4872.09,0.279212,0.278973,-0.832429,4,0.0214066,11,-0.000232225,-3.07965,-0.161502,-0.365322,11.9986,0.278973,
2,0,0,1,0,4872.28,0.271725,0.271447,-0.922034,4,0.0212407,11,-0.000250283,-3.03525,-0.159098,-0.370841,13.3404,0.271447,
2,0,0,1,0,4872.47,0.264228,0.263994,-0.998539,4,0.0210599,11,-0.000263609,-3.00063,-0.238917,-0.246947,9.55004,0.263994,
2,0,0,1,0,4872.66,0.256741,0.256445,-1.05602,4,0.0208667,11,-0.000270811,-2.97633,-0.339924,-0.173568,7.19452,0.256445,
2,0,0,1,0,4872.84,0.249248,0.248977,-1.11916,4,0.0206621,11,-0.000278646,-2.95111,-0.36694,-0.160789,6.98862,0.2489773,
2,0,0,1,0,4873.03,0.241756,0.241467,-1.16766,4,0.0204467,11,-0.000281951,-2.93268,-0.400773,-0.147216,6.73317,0.241467,
2,0,0,1,0,4873.22,0.234268,0.233987,-1.22421,4,0.0202209,11,-0.000286448,-2.91215,-0.327664,-0.180063,8.69362,0.233987,
2,0,0,1,0,4873.4,0.226772,0.226493,-1.29634,4,0.0199839,11,-0.000293611,-2.88728,-0.240636,-0.245183,12.28,0.226493,
2,0,0,1,0,4873.59,0.219284,0.218996,-1.3594,4,0.0197359,11,-0.000297703,-2.86665,-0.339851,-0.173605,9.15737,0.218996,
2,0,0,1,0,4873.78,0.211796,0.21152,-1.42205,4,0.0194753,11,-0.000300791,-2.84709,-0.389267,-0.151567,8.42375,0.21152,
2,0,0,1,0,4873.97,0.204301,0.203971,-1.51318,4,0.0191997,11,-0.000308644,-2.82011,-0.399416,-0.147716,8.70355,0.203971,
2,0,0,1,0,4874.15,0.196812,0.196542,-1.60487,4,0.0189074,11,-0.000315424,-2.79456,-0.234144,-0.251982,15.8789,0.1965421,
2,0,0,1,0,4874.34,0.189321,0.189015,-1.74642,4,0.0185926,11,-0.0003301,-2.75785,-0.185902,-0.317371,21.6876,0.189015,
2,0,0,1,0,4874.53,0.181828,0.18152,-1.94031,4,0.0182481,11,-0.000352205,-2.71213,-0.147367,-0.400362,30.1349,0.18152,
2,0,0,1,0,4874.72,0.174341,0.174041,-2.20021,4,0.0178618,11,-0.000382927,-2.65753,-0.114351,-0.515956,44.443,0.174041,
2,0,0,1,0,4874.9,0.166848,0.166547,-2.60665,4,0.0174136,11,-0.000434128,-2.58392,-0.0945134,-0.62425,63.5002,0.166547,
2,0,0,1,0,4875.09,0.159357,0.159045,-3.22093,4,0.0168717,11,-0.000512274,-2.49202,-0.0767503,-0.768727,96.4985,0.159045,
2,0,0,1,0,4875.28,0.151868,0.15156,-4.06666,4,0.0161917,11,-0.000616342,-2.39076,-0.0742982,-0.794097,126.505,0.15156,
2,0,0,1,0,4875.46,0.144373,0.144093,-5.04801,4,0.0153358,11,-0.000727381,-2.29688,-0.0904596,-0.652225,128.473,0.144093,
2,0,0,1,0,4875.65,0.136884,0.13658,-5.9015,4,0.014305,11,-0.000806028,-2.22904,-0.144212,-0.409121,93.8974,0.13658,
2,0,0,1,0,4875.84,0.129393,0.129084,-6.39174,4,0.0131464,11,-0.00082507,-2.19438,-0.390941,-0.150918,37.5885,0.129084,
2,0,0,1,0,4876.03,0.1219,0.121598,-6.43322,4,0.0119374,11,-0.000782265,-2.19157,0.528368,0.111665,-27.9169,0.121598,
2,0,0,1,0,4876.21,0.114413,0.114122,-6.03286,4,0.0107642,11,-0.000688481,-2.21948,0.175874,0.335467,-78.8334,0.114122,
2,0,0,1,0,4876.4,0.10692,0.106593,-5.36914,4,0.00969373,11,-0.000572315,-2.2701,0.13599,0.433855,-91.1356,0.106593,
2,0,0,1,0,4876.59,0.0994284,0.0991557,-4.77863,4,0.00874481,11,-0.000473829,-2.3207,0.168701,0.349731,-65.257,0.0991557,
2,0,0,1,0,4876.78,0.0919401,0.0916227,-4.37819,4,0.00788996,11,-0.000401141,-2.35871,0.247793,0.238102,-40.7447,0.0916227,
2,0,0,1,0,4876.96,0.0844447,0.0841836,-4.12044,4,0.00709413,11,-0.000346873,-2.38506,0.32871,0.179489,-28.8994,0.0841836,
2,0,0,1,0,4877.15,0.0769565,0.0766351,-3.92845,4,0.00634106,11,-0.000301057,-2.40578,0.316001,0.186708,-28.5611,0.0766351,
2,0,0,1,0,4877.34,0.0694682,0.0691772,-3.71266,4,0.00562509,11,-0.000256832,-2.43031,0.299387,0.197069,-28.5968,0.0691772,
2,0,0,1,0,4877.52,0.0619728,0.0617117,-3.48187,4,0.00494907,11,-0.000214872,-2.45819,0.238481,0.247399,-33.6296,0.0617117,
2,0,0,1,0,4877.71,0.0544836,0.0541838,-3.23379,4,0.00431985,11,-0.000175219,-2.49029,0.251652,0.234451,-29.5621,0.0541838,
2,0,0,1,0,4877.9,0.0469927,0.0466872,-3.00832,4,0.00373493,11,-0.00014045,-2.52168,0.281449,0.209629,-24.6786,0.0466872,
2,0,0,1,0,4878.09,0.0394999,0.0392388,-2.85689,4,0.00318625,11,-0.000112101,-2.54411,0.38878,0.151757,-16.8722,0.03923877,
2,0,0,1,0,4878.27,0.0320125,0.0316647,-2.75356,4,0.00266222,11,-8.71905e-05,-2.56011,0.616374,0.095721,-10.277,0.0316647,
2,0,0,1,0,4878.46,0.0245198,0.0242191,-2.69526,4,0.00215148,11,-6.52769e-05,-2.5694,1.41986,0.0415534,-4.38961,0.0242191,
2,0,0,1,0,4878.65,0.0170289,0.0167161,-2.69021,4,0.00164627,11,-4.49697e-05,-2.57021,-5.14088,-0.0114766,1.20688,0.0167161,
2,0,0,1,0,4878.84,0.0095397,0.00919397,-2.70991,4,0.00114004,11,-2.49148e-05,-2.56704,-0.961353,-0.0613718,6.48609,0.00919397,
2,0,0,1,0,4879.02,0.00204518,0.00174003,-2.81051,4,0.000627476,11,-4.89036e-06,-2.55122,-0.601244,-0.0981299,10.5628,0.00174003,
2,0,0,1,0,4879.07,0.000177222,-0.00020431,-2.77886,4,0.000497072,11,5.67748e-07,-2.55613, , , ,-0.00020431,

File: 20221101_1-115_002_TrumpetPlot_ParaChange_08_CV_C01_4.csv
mode,ox/red,error,control changes,counter inc.,time/s,control/V,Ewe/V,<I>/mA,cycle number,(Q-Qo)/C,I Range,P/W,log(|I|),Tafel slope mV/dec,alpha_eff,dI/d(E-IR),E-IR/V,
2,0,0,0,0,6095.7,2.44065e-05,-0.0002108,-2.40584,5,0.0000000E+000,11,5.07151e-07,-2.61873, , , ,-0.0002108,
2,1,0,1,0,6095.88,0.00729063,0.00701188,1.59938,5,0.000161275,11,1.12147e-05,-2.79605,0.0936288,0.630148,38.7028,0.00701188,
2,1,0,1,0,6096.07,0.014778,0.0144898,1.76134,5,0.000478539,11,2.55215e-05,-2.75416,0.250204,0.235807,16.1731,0.0144898,
2,1,0,1,0,6096.26,0.0222743,0.021977,1.85644,5,0.000818968,11,4.07991e-05,-2.73132,0.345997,0.170522,12.3773,0.021977,
2,1,0,1,0,6096.45,0.0297626,0.0295059,1.94843,5,0.00117564,11,5.74902e-05,-2.71032,0.40618,0.145256,10.9923,0.0295059,
2,1,0,1,0,6096.63,0.0372544,0.0369904,2.04112,5,0.00154945,11,7.5502e-05,-2.69013,0.343358,0.171832,13.7063,0.0369904,
2,1,0,1,0,6096.82,0.0447472,0.0444472,2.16872,5,0.00194432,11,9.63936e-05,-2.6638,0.264303,0.223229,18.9453,0.0444472,
2,1,0,1,0,6097.01,0.0522345,0.0519661,2.33889,5,0.0023663,11,0.000121543,-2.63099,0.198987,0.296502,27.0044,0.0519661,
2,1,0,1,0,6097.2,0.0597309,0.0594331,2.5421,5,0.00282405,11,0.000151085,-2.59481,0.186043,0.31713,31.5288,0.0594331,
2,1,0,1,0,6097.38,0.0672182,0.0669172,2.78483,5,0.00332306,11,0.000186353,-2.5552,0.200252,0.294629,31.9416,0.0669172,
2,1,0,1,0,6097.57,0.0747074,0.0743918,3.02243,5,0.0038667,11,0.000224844,-2.51964,0.228607,0.258085,30.3536,0.0743918,
2,1,0,1,0,6097.76,0.0822019,0.0819206,3.23236,5,0.00445439,11,0.000264797,-2.49048,0.272689,0.216364,27.3771,0.0819206,
2,1,0,1,0,6097.94,0.0896911,0.0893822,3.44414,5,0.0050812,11,0.000307845,-2.46292,0.29323,0.201207,27.0161,0.0893822,
2,1,0,1,0,6098.13,0.097182,0.0968552,3.6451,5,0.00574551,11,0.000353047,-2.43829,0.277037,0.212968,30.3017,0.0968552,
2,1,0,1,0,6098.32,0.104675,0.104362,3.89333,5,0.00645094,11,0.000406316,-2.40968,0.219631,0.268633,40.8435,0.104362,
2,1,0,1,0,6098.51,0.112162,0.111913,4.25351,5,0.00721129,11,0.000476025,-2.37125,0.17433,0.338439,56.0472,0.111913,
2,1,0,1,0,6098.69,0.119655,0.119392,4.73454,5,0.00805138,11,0.000565267,-2.32472,0.160208,0.368272,68.1221,0.119392,
2,1,0,1,0,6098.88,0.127146,0.126853,5.2811,5,0.00899085,11,0.000669922,-2.27728,0.16444,0.358793,74.0138,0.1268528,
2,1,0,1,0,6099.07,0.134635,0.134302,5.80662,5,0.0100316,11,0.000779841,-2.23608,0.220699,0.267332,60.5255,0.134302,
2,1,0,1,0,6099.26,0.14213,0.141801,6.16813,5,0.0111584,11,0.000874647,-2.20985,0.433134,0.136217,32.7548,0.1418009,
2,1,0,1,0,6099.44,0.149619,0.149337,6.24084,5,0.0123265,11,0.000931988,-2.20476,-0.61044,-0.0966517,-23.434,0.149337,
2,1,0,1,0,6099.63,0.157106,0.15679,5.7312,5,0.0134582,11,0.000898596,-2.24175,-0.11385,-0.518224,-115.256,0.15679,
2,1,0,1,0,6099.82,0.164602,0.164344,4.64072,5,0.0144356,11,0.000762673,-2.33341,-0.0674039,-0.87532,-158.404,0.164344,
2,1,0,1,0,6100,0.172091,0.171796,3.6071,5,0.0152025,11,0.000619684,-2.44284,-0.0761781,-0.774501,-109.398,0.171796,
2,1,0,1,0,6100.19,0.179582,0.179281,2.96018,5,0.0158136,11,0.000530706,-2.52868,-0.100463,-0.587281,-68.2139,0.179281,
2,1,0,1,0,6100.38,0.187074,0.186775,2.56089,5,0.0163289,11,0.000478309,-2.59161,-0.140228,-0.420743,-42.0849,0.186775,
2,1,0,1,0,6100.57,0.194563,0.194295,2.30644,5,0.0167829,11,0.000448131,-2.63706,-0.192087,-0.307152,-27.6004,0.194295,
2,1,0,1,0,6100.75,0.202059,0.201767,2.13216,5,0.0171983,11,0.000430199,-2.67118,-0.264994,-0.222647,-18.5611,0.201767,
2,1,0,1,0,6100.94,0.209546,0.209257,2.03216,5,0.0175883,11,0.000425244,-2.69204,-0.31797,-0.185552,-14.6986,0.209257,
2,1,0,1,0,6101.13,0.217035,0.216741,1.94642,5,0.017961,11,0.000421869,-2.71076,-0.510231,-0.115634,-8.81707,0.216741,
2,1,0,1,0,6101.32,0.22453,0.224275,1.89344,5,0.0183221,11,0.000424652,-2.72275,-0.678937,-0.0869006,-6.43861,0.224275,
2,1,0,1,0,6101.5,0.232019,0.231779,1.85674,5,0.0186735,11,0.000430352,-2.73125,-0.9727,-0.0606559,-4.37771,0.231779,
2,1,0,1,0,6101.69,0.23951,0.23923,1.81674,5,0.0190181,11,0.000434617,-2.74071,-0.909898,-0.0648424,-4.60206,0.23923,
2,1,0,1,0,6101.88,0.247003,0.246677,1.78838,5,0.0193566,11,0.000441152,-2.74754,-0.826891,-0.0713516,-4.97409,0.246677,
2,1,0,1,0,6102.06,0.25449,0.254266,1.76352,5,0.0196896,11,0.000448401,-2.75362,-1.02863,-0.0573581,-3.93854,0.254266,
2,1,0,1,0,6102.25,0.261983,0.261679,1.73401,5,0.0200181,11,0.000453754,-2.76095,-1.38704,-0.0425368,-2.89124,0.261679,
2,1,0,1,0,6102.44,0.269474,0.269161,1.7181,5,0.0203423,11,0.000462445,-2.76495,-3.40021,-0.0173519,-1.1607,0.269161,
2,1,0,1,0,6102.63,0.276963,0.276687,1.69551,5,0.0206624,11,0.000469127,-2.7707,-1.47129,-0.0401008,-2.65249,0.2766872,
2,1,0,1,0,6102.81,0.284458,0.284185,1.67211,5,0.0209789,11,0.00047519,-2.77673,-2.03423,-0.0290036,-1.89874,0.284185,
2,1,0,1,0,6103,0.291947,0.291638,1.65678,5,0.0212915,11,0.000483181,-2.78073,-0.949165,-0.0621599,-4.00652,0.291638,
2,1,0,1,0,6103.19,0.299434,0.299152,1.63207,5,0.0216005,11,0.000488236,-2.78726,-0.00804418,-7.33449,-348.886,0.299152,
2,0,0,1,0,6103.35,0.294196,0.293881,-0.559421,5,0.0215889,11,-0.000164403,-3.25226,-0.0371309,-1.58897,34.0086,0.293881,
2,0,0,1,0,6103.53,0.286701,0.286392,-0.735158,5,0.0214648,11,-0.000210543,-3.13362,-0.0916275,-0.643911,18.4273,0.286392,
2,0,0,1,0,6103.72,0.279212,0.278911,-0.845907,5,0.021315,11,-0.000235932,-3.07268,-0.174491,-0.338126,11.2479,0.278911,
2,0,0,1,0,6103.91,0.271725,0.271408,-0.934396,5,0.0211473,11,-0.000253602,-3.02947,-0.160483,-0.367639,13.3248,0.271408,
2,0,0,1,0,6104.1,0.264228,0.263906,-1.00266,5,0.020965,11,-0.000264608,-2.99885,-0.250398,-0.235625,9.20242,0.263906,
2,0,0,1,0,6104.28,0.256741,0.256408,-1.0613,5,0.0207704,11,-0.000272125,-2.97416,-0.37177,-0.1587,6.60663,0.256408,
2,0,0,1,0,6104.47,0.249248,0.248953,-1.12901,5,0.0205647,11,-0.000281072,-2.9473,-0.388466,-0.151879,6.63487,0.248953,
2,0,0,1,0,6104.66,0.241756,0.241455,-1.1703,5,0.0203485,11,-0.000282576,-2.9317,-0.416903,-0.14152,6.51505,0.241455,
2,0,0,1,0,6104.85,0.234268,0.233986,-1.22862,5,0.0201224,11,-0.000287481,-2.91058,-0.361059,-0.163408,7.87989,0.233986,
2,0,0,1,0,6105.03,0.226772,0.226479,-1.29328,5,0.0198855,11,-0.0002929,-2.88831,-0.308775,-0.191078,9.56258,0.226479,
2,0,0,1,0,6105.22,0.219284,0.219013,-1.34881,5,0.0196379,11,-0.000295407,-2.87005,-0.385418,-0.153081,8.0723,0.219013,
2,0,0,1,0,6105.41,0.211796,0.211502,-1.41562,5,0.0193787,11,-0.000299408,-2.84905,-0.459765,-0.128327,7.06433,0.211502,
2,0,0,1,0,6105.59,0.204301,0.20396,-1.49736,5,0.0191055,11,-0.000305401,-2.82467,-0.461643,-0.127804,7.45458,0.20396,
2,0,0,1,0,6105.78,0.196812,0.196489,-1.57874,5,0.0188168,11,-0.000310206,-2.80169,-0.251763,-0.234347,14.5624,0.196489,
2,0,0,1,0,6105.97,0.189321,0.189005,-1.71231,5,0.0185075,11,-0.000323636,-2.76642,-0.20416,-0.288989,19.294,0.189005,
2,0,0,1,0,6106.16,0.181828,0.181585,-1.88015,5,0.0181713,11,-0.000341408,-2.72581,-0.151323,-0.389894,28.639,0.181585,
2,0,0,1,0,6106.34,0.174341,0.174027,-2.11831,5,0.0177972,11,-0.000368642,-2.67401,-0.123461,-0.477884,39.6658,0.174027,
2,0,0,1,0,6106.53,0.166848,0.166532,-2.49316,5,0.0173674,11,-0.000415191,-2.60325,-0.096441,-0.611773,59.2713,0.166532,
2,0,0,1,0,6106.72,0.159357,0.159057,-3.0394,5,0.0168528,11,-0.000483436,-2.51721,-0.0781726,-0.754741,89.8399,0.159057,
2,0,0,1,0,6106.91,0.151868,0.151549,-3.83523,5,0.016211,11,-0.000581227,-2.41621,-0.074856,-0.78818,118.375,0.1515494,
2,0,0,1,0,6107.09,0.144373,0.144087,-4.79042,5,0.0154024,11,-0.000690237,-2.31963,-0.0864497,-0.682478,127.312,0.144087,
2,0,0,1,0,6107.28,0.136884,0.136614,-5.63548,5,0.0144214,11,-0.000769886,-2.24907,-0.132651,-0.444776,97.7059,0.136614,
2,0,0,1,0,6107.47,0.129393,0.129075,-6.18632,5,0.0133074,11,-0.000798497,-2.20857,-0.300438,-0.19638,47.239,0.129075,
2,0,0,1,0,6107.65,0.1219,0.121613,-6.3084,5,0.0121306,11,-0.000767183,-2.20008,1.03792,0.0568442,-13.9422,0.1216128,
2,0,0,1,0,6107.84,0.114413,0.11414,-6.02936,5,0.0109698,11,-0.000688193,-2.21973,0.22776,0.259045,-60.9026,0.1141403,
2,0,0,1,0,6108.03,0.10692,0.106587,-5.48052,5,0.00988861,11,-0.000584152,-2.26118,0.152853,0.385992,-82.4971,0.106587,
2,0,0,1,0,6108.22,0.0994284,0.099144,-4.90301,5,0.00891669,11,-0.000486104,-2.30954,0.172006,0.343012,-65.7664,0.099144,
2,0,0,1,0,6108.4,0.0919401,0.0916728,-4.4832,5,0.00804013,11,-0.000410987,-2.34841,0.243109,0.242689,-42.5207,0.09167283,
2,0,0,1,0,6108.59,0.0844447,0.0841655,-4.21602,5,0.00722615,11,-0.000354843,-2.3751,0.3362,0.175491,-28.8346,0.0841655,
2,0,0,1,0,6108.78,0.0769565,0.0766199,-4.01091,5,0.00645645,11,-0.000307315,-2.39676,0.346082,0.17048,-26.6903,0.0766199,
2,0,0,1,0,6108.97,0.0694682,0.0691808,-3.81731,5,0.00572276,11,-0.000264085,-2.41824,0.317963,0.185556,-27.6242,0.0691808,
2,0,0,1,0,6109.15,0.0619728,0.0617018,-3.59945,5,0.00502636,11,-0.000222093,-2.44376,0.251062,0.235002,-32.987,0.0617018,
2,0,0,1,0,6109.34,0.0544836,0.0541843,-3.34593,5,0.00437492,11,-0.000181297,-2.47548,0.245902,0.239933,-31.3922,0.0541843,
2,0,0,1,0,6109.53,0.0469927,0.0466737,-3.11568,5,0.00376959,11,-0.00014542,-2.50645,0.25272,0.23346,-28.302,0.0466737,
2,0,0,1,0,6109.71,0.0394999,0.0391679,-2.92147,5,0.00320523,11,-0.000114428,-2.5344,0.316078,0.186663,-21.2757,0.03916787,
2,0,0,1,0,6109.9,0.0320125,0.0317139,-2.79379,5,0.00267071,11,-8.86021e-05,-2.55381,0.464018,0.12715,-13.8762,0.0317139,
2,0,0,1,0,6110.09,0.0245198,0.0242081,-2.72425,5,0.00215361,11,-6.59489e-05,-2.56475,0.9144,0.0645232,-6.86189,0.0242081,
2,0,0,1,0,6110.28,0.0170289,0.0167222,-2.69234,5,0.00164506,11,-4.50219e-05,-2.56987,20.7737,0.00284013,-0.300551,0.0167222,
2,0,0,1,0,6110.46,0.0095397,0.00918595,-2.71389,5,0.00113772,11,-2.49297e-05,-2.56641,-0.971582,-0.0607257,6.4231,0.00918595,
2,0,0,1,0,6110.65,0.00204518,0.00170458,-2.80769,5,0.000625329,11,-4.78593e-06,-2.55165,-0.701712,-0.0840801,9.01823,0.00170458,
2,0,0,1,0,6110.7,0.000177222,-0.000198584,-2.76606,5,0.000495135,11,5.49294e-07,-2.55814, , , ,-0.000198584,