Folder: Figs_alphaMnO2_OER_Tafel_sleope/Figure_codes/Fig_3-5/rawdata_trumpetplot_data/before 10th (part 52)

File: 20221101_1-115_002_TrumpetPlot_ParaChange_15_CV_C01_0.csv
mode,ox/red,error,control changes,counter inc.,time/s,control/V,Ewe/V,<I>/mA,cycle number,(Q-Qo)/C,I Range,P/W,log(|I|),Tafel slope mV/dec,alpha_eff,dI/d(E-IR),E-IR/V,
2,1,0,1,0,1217.73,2.44065e-05,-0.00116517,32.7288,1,0.0000000E+000,10,-3.81344e-05,-1.48507, , , ,-0.00116517,
2,1,0,1,0,1217.74,0.0121015,0.0117697,36.6453,1,0.000528896,10,0.000431303,-1.43598,0.332311,0.177545,252.673,0.0117697,
2,1,0,1,0,1217.76,0.0249027,0.0246229,39.1675,1,0.0011378,10,0.000964416,-1.40707,0.653629,0.0902653,137.32,0.0246229,
2,1,0,1,0,1217.77,0.0377094,0.0374124,40.3299,1,0.00177508,10,0.00150884,-1.39437,1.74843,0.0337446,52.9488,0.03741242,
2,1,0,1,0,1217.79,0.0505051,0.0501956,40.6709,1,0.00242369,10,0.0020415,-1.39072,5.10366,0.0115603,18.3454,0.0501956,
2,1,0,1,0,1217.81,0.0633063,0.0629905,40.8533,1,0.00307594,10,0.00257337,-1.38877,4.76655,0.0123779,19.7606,0.0629905,
2,1,0,1,0,1217.82,0.0761019,0.075761,41.3558,1,0.00373301,10,0.00313316,-1.38346,1.39587,0.0422675,68.4057,0.075761,
2,1,0,1,0,1217.84,0.0889087,0.0885929,42.6846,1,0.00440433,10,0.00378156,-1.36973,0.725542,0.0813185,135.728,0.0885929,
2,1,0,1,0,1217.85,0.101702,0.101318,44.8792,1,0.00510343,10,0.00454706,-1.34796,0.467208,0.126282,222.035,0.101318,
2,1,0,1,0,1217.87,0.114506,0.11415,48.2908,1,0.00584822,10,0.00551239,-1.31614,0.370329,0.159318,300.877,0.11415,
2,1,0,1,0,1217.89,0.127301,0.126943,52.5649,1,0.00665439,10,0.00667273,-1.2793,0.328808,0.179436,368.802,0.126943,
2,1,0,1,0,1217.9,0.140105,0.139769,57.8185,1,0.0075367,10,0.00808124,-1.23793,0.292565,0.201664,455.827,0.139769,
2,1,0,1,0,1217.92,0.152904,0.152539,64.2355,1,0.00851203,10,0.0097984,-1.19222,0.270688,0.217963,547.098,0.152539,
2,1,0,1,0,1217.93,0.165705,0.165321,71.8623,1,0.00960001,10,0.0118803,-1.1435,0.260362,0.226608,635.814,0.165321,
2,1,0,1,0,1217.95,0.178506,0.178134,80.2943,1,0.0108178,10,0.0143031,-1.09532,0.277499,0.212613,665.658,0.178134,
2,1,0,1,0,1217.97,0.191302,0.190959,88.5226,1,0.0121706,10,0.0169042,-1.05295,0.344953,0.171038,589.18,0.190959,
2,1,0,1,0,1217.98,0.204108,0.203768,94.896,1,0.0136427,10,0.0193368,-1.02275,0.62549,0.0943261,347.154,0.203768,
2,1,0,1,0,1218,0.216904,0.216624,96.6499,1,0.0151836,10,0.0209367,-1.0148,-1.51492,-0.038946,-145.321,0.216624,
2,1,0,1,0,1218.01,0.229705,0.229507,90.3935,1,0.0166914,10,0.020746,-1.04386,-0.241857,-0.243946,-848.536,0.229507,
2,1,0,1,0,1218.03,0.242501,0.242334,75.3555,1,0.0180258,10,0.0182612,-1.12289,-0.123008,-0.479642,-1394.31,0.242334,
2,1,0,1,0,1218.05,0.255308,0.255148,56.2923,1,0.0190778,10,0.0143629,-1.24955,-0.0902333,-0.653861,-1434.03,0.255148,
2,1,0,1,0,1218.06,0.268101,0.267918,40.1634,1,0.0198402,10,0.0107605,-1.39617,-0.0924081,-0.638472,-1014.56,0.267918,
2,1,0,1,0,1218.08,0.280905,0.280663,30.7803,1,0.020398,10,0.0086389,-1.51173,-0.147071,-0.401167,-490.995,0.280663,
2,1,0,1,0,1218.09,0.2937,0.29341,26.8308,1,0.0208533,10,0.00787245,-1.57137,-0.33712,-0.175012,-185.618,0.29341,
2,1,0,1,0,1218.1,0.298983,0.298988,22.4408,1,0.0210919,10,0.00670953,-1.64896,0.00849154,6.94809,3244.96,0.298988,
2,0,0,1,0,1218.12,0.286187,0.286024,-6.18477,1,0.0211773,10,-0.00176899,-2.20868,-0.0278411,-2.11917,1268.84,0.286024,
2,0,0,1,0,1218.14,0.273386,0.2731,-15.6954,1,0.020988,10,-0.00428642,-1.80423,-0.0775666,-0.760637,440.305,0.2731,
2,0,0,1,0,1218.15,0.260585,0.260358,-19.1817,1,0.0207043,10,-0.00499409,-1.71711,-0.244479,-0.24133,178.567,0.260358,
2,0,0,1,0,1218.17,0.247783,0.247539,-20.848,1,0.0203826,10,-0.00516071,-1.68094,-0.455847,-0.129429,105.026,0.247539,
2,0,0,1,0,1218.18,0.234982,0.234776,-22.065,1,0.020039,10,-0.00518035,-1.6563,-0.555321,-0.106245,91.4303,0.234776,
2,0,0,1,0,1218.2,0.222187,0.221941,-23.2601,1,0.0196764,10,-0.00516238,-1.63339,-0.519863,-0.113491,103.188,0.221941,
2,0,0,1,0,1218.22,0.20938,0.209128,-24.7443,1,0.0192924,10,-0.00517473,-1.60653,-0.428094,-0.13782,133.444,0.209128,
2,0,0,1,0,1218.23,0.196587,0.19636,-26.7336,1,0.0188809,10,-0.00524941,-1.57294,-0.342719,-0.172153,180.093,0.19636,
2,0,0,1,0,1218.25,0.183783,0.183557,-29.4766,1,0.0184323,10,-0.00541063,-1.53052,-0.268588,-0.219668,253.452,0.183557,
2,0,0,1,0,1218.26,0.170987,0.170799,-33.3012,1,0.0179314,10,-0.0056878,-1.47754,-0.216234,-0.272852,356.054,0.170799,
2,0,0,1,0,1218.28,0.158183,0.15796,-38.6237,1,0.0173575,10,-0.00610102,-1.41315,-0.184318,-0.320099,484.238,0.15796,
2,0,0,1,0,1218.3,0.145385,0.14521,-45.7342,1,0.0166844,10,-0.00664107,-1.33976,-0.168179,-0.350816,627.628,0.14521,
2,0,0,1,0,1218.31,0.132584,0.13237,-54.5826,1,0.0158826,10,-0.00722508,-1.26295,-0.171191,-0.344644,733.408,0.1323697,
2,0,0,1,0,1218.33,0.119782,0.119668,-64.4201,1,0.0149314,10,-0.00770903,-1.19098,-0.187966,-0.313886,786.902,0.119668,
2,0,0,1,0,1218.34,0.106987,0.10688,-74.3387,1,0.0138198,10,-0.00794529,-1.12879,-0.226031,-0.261026,755.529,0.10688,
2,0,0,1,0,1218.36,0.0941801,0.0939978,-83.4674,1,0.012554,10,-0.00784575,-1.07848,-0.302408,-0.195101,632.877,0.0939978,
2,0,0,1,0,1218.38,0.0813844,0.0811531,-90.2034,1,0.0111597,10,-0.00732029,-1.04478,-0.525358,-0.112304,393.287,0.0811531,
2,0,0,1,0,1218.39,0.0685832,0.0683699,-93.1707,1,0.00968608,10,-0.00637007,-1.03072,-5.89554,-0.0100076,36.132,0.0683699,
2,0,0,1,0,1218.41,0.0557876,0.0555369,-91.0417,1,0.00820571,10,-0.00505617,-1.04076,0.577191,0.102219,-360.679,0.0555369,
2,0,0,1,0,1218.42,0.0429808,0.0426848,-84.3316,1,0.00679869,10,-0.00359968,-1.07401,0.304619,0.193685,-634.806,0.0426848,
2,0,0,1,0,1218.44,0.030188,0.0299175,-75.4069,1,0.00552053,10,-0.00225598,-1.12259,0.245786,0.240047,-706.075,0.0299175,
2,0,0,1,0,1218.46,0.017384,0.0171056,-66.6413,1,0.00438569,10,-0.00113994,-1.17626,0.236688,0.249273,-648.833,0.0171056,
2,0,0,1,0,1218.47,0.00458834,0.00431926,-58.8274,1,0.00338396,10,-0.000254091,-1.23042,0.244185,0.24162,-556.177,0.00431926,
2,0,0,1,0,1218.49,-0.00821564,-0.00852015,-52.5604,1,0.00249558,10,0.000447822,-1.27934,0.295329,0.199777,-411.769,-0.00852015,
2,0,0,1,0,1218.5,-0.0210196,-0.0213161,-48.559,1,0.00169047,10,0.00103509,-1.31373,0.517329,0.114047,-217.336,-0.0213161,
2,0,0,1,0,1218.52,-0.0338153,-0.0341078,-46.8484,1,0.000929811,10,0.00159789,-1.32931,1.74112,0.0338862,-62.2329,-0.0341078,
2,0,0,1,0,1218.54,-0.0466193,-0.0469557,-46.7302,1,0.000182549,10,0.00219425,-1.3304,-3.77127,-0.0156446,28.6005,-0.0469557,
2,0,0,1,0,1218.55,-0.0594121,-0.0597336,-47.4917,1,-0.000570546,10,0.00283685,-1.32338,-1.32884,-0.0443995,82.3976,-0.0597336,
2,0,0,1,0,1218.57,-0.0722189,-0.0725465,-48.7964,1,-0.00134049,10,0.00354,-1.31161,-0.972199,-0.0606871,115.624,-0.0725465,
2,0,0,1,0,1218.58,-0.0850146,-0.0852862,-50.3828,1,-0.00213375,10,0.00429696,-1.29772,-0.860127,-0.0685945,134.98,-0.0852862,
2,0,0,1,0,1218.6,-0.0978158,-0.0980906,-52.234,1,-0.00295477,10,0.00512366,-1.28205,-0.778846,-0.0757531,154.542,-0.0980906,
2,0,0,1,0,1218.62,-0.110611,-0.110887,-54.3317,1,-0.00380737,10,0.00602466,-1.26495,-0.708276,-0.0833009,176.827,-0.110887,
2,0,0,1,0,1218.63,-0.123418,-0.123711,-56.7765,1,-0.00469631,10,0.00702389,-1.24583,-0.648832,-0.0909326,201.614,-0.123711,
2,0,0,1,0,1218.65,-0.136214,-0.136509,-59.533,1,-0.00562661,10,0.0081268,-1.22524,-0.601391,-0.0981059,228.01,-0.136509,
2,0,0,1,0,1218.66,-0.149015,-0.149289,-62.582,1,-0.0066036,10,0.00934281,-1.20355,-0.580648,-0.101611,248.237,-0.149289,
2,0,0,1,0,1218.68,-0.161816,-0.162118,-65.8473,1,-0.00763136,10,0.010675,-1.18146,-0.574982,-0.102612,263.823,-0.162118,
2,0,0,1,0,1218.7,-0.174615,-0.174853,-69.3423,1,-0.00871323,10,0.0121247,-1.159,-0.566594,-0.104131,281.874,-0.174853,
2,0,0,1,0,1218.71,-0.187419,-0.187655,-73.0847,1,-0.00985266,10,0.0137147,-1.13617,-0.55856,-0.105629,301.305,-0.187655,
2,0,0,1,0,1218.73,-0.199647,-0.199912,-76.9284,1,-0.0110003,10,0.0153789,-1.11391,0.519971,0.113468,-328.419,-0.199912,
2,0,0,1,1,1218.74,-0.192535,-0.192999,-53.7349,1,-0.0116613,10,0.0103708,-1.26974,-0.0447983,-1.31701,2756.69,-0.192999,
2,0,0,1,1,1218.75,-0.179739,-0.180192,-24.4172,1,-0.0122707,10,0.00439976,-1.6123,-0.0273482,-2.15736,1949.45,-0.180192,
2,0,0,1,1,1218.77,-0.166932,-0.16736,-2.86885,1,-0.0124785,10,0.00048013,-2.54229,-0.0370009,-1.59456,1468.19,-0.16736,
2,1,0,1,1,1218.79,-0.154139,-0.154604,13.4007,1,-0.0123867,10,-0.00207181,-1.87287,0.0237316,2.48614,1117.76,-0.154604,
2,1,0,1,1,1218.8,-0.141335,-0.141804,25.9673,1,-0.0120664,10,-0.00368226,-1.58557,0.0682671,0.864252,849.011,-0.141804,
2,1,0,1,1,1218.82,-0.12854,-0.128896,35.3774,1,-0.0115706,10,-0.00456002,-1.45127,0.12882,0.458002,623.832,-0.128896,
2,1,0,1,1,1218.83,-0.115736,-0.116061,42.1815,1,-0.0109465,10,-0.00489564,-1.37488,0.214672,0.274838,448.962,-0.116061,
2,1,0,1,1,1218.85,-0.102932,-0.103279,46.9478,1,-0.0102307,10,-0.00484873,-1.32838,0.351928,0.167648,305.752,-0.103279,
2,1,0,1,1,1218.87,-0.0901362,-0.0904748,50.1395,1,-0.0094516,10,-0.00453636,-1.29982,0.566718,0.104108,203.192,-0.0904748,
2,1,0,1,1,1218.88,-0.0773322,-0.0776746,52.2143,1,-0.00863112,10,-0.00405572,-1.28221,0.969133,0.0608792,123.811,-0.07767459,
2,1,0,1,1,1218.9,-0.0645393,-0.0648988,53.4617,1,-0.00778471,10,-0.0034696,-1.27196,1.65602,0.0356276,74.2243,-0.0648988,
2,1,0,1,1,1218.91,-0.0517325,-0.0520944,54.1516,1,-0.00692312,10,-0.002821,-1.26639,3.41734,0.0172649,36.4453,-0.0520944,
2,1,0,1,1,1218.93,-0.0389369,-0.0392518,54.3818,1,-0.00605428,10,-0.00213458,-1.26455,23.7845,0.00248061,5.26234,-0.0392518,
2,1,0,1,1,1218.95,-0.0261357,-0.0264919,54.2692,1,-0.00518445,10,-0.0014377,-1.26545,-5.51674,-0.0106947,-22.6411,-0.0264919,
2,1,0,1,1,1218.96,-0.01334,-0.0136589,53.8281,1,-0.0043192,10,-0.000735231,-1.26899,-2.6061,-0.0226392,-47.5318,-0.0136589,
2,1,0,1,1,1218.98,-0.000774628,-0.00109836,53.1345,1,-0.00347925,10,-5.83608e-05,-1.27462, , , ,-0.00109836,
2,1,0,1,1,1218.98,-0.000125413,-0.000478022,53.0983,1,-0.00343676,10,-2.53822e-05,-1.27492, , , ,-0.000478022,

File: 20221101_1-115_002_TrumpetPlot_ParaChange_15_CV_C01_1.csv
mode,ox/red,error,control changes,counter inc.,time/s,control/V,Ewe/V,<I>/mA,cycle number,(Q-Qo)/C,I Range,P/W,log(|I|),Tafel slope mV/dec,alpha_eff,dI/d(E-IR),E-IR/V,
2,1,0,0,0,2449.36,2.44065e-05,-0.00112699,33.2134,2,0.0000000E+000,10,-3.74312e-05,-1.47869, , , ,-0.001126991,
2,1,0,1,0,2449.37,0.0121015,0.0117633,36.9252,2,0.00053322,10,0.000434363,-1.43268,0.326496,0.180707,259.054,0.0117633,
2,1,0,1,0,2449.39,0.0249027,0.0246091,39.5025,2,0.00114705,10,0.000972121,-1.40338,0.633235,0.0931724,142.981,0.0246091,
2,1,0,1,0,2449.4,0.0377094,0.03737,40.7108,2,0.00179028,10,0.00152136,-1.39029,1.56071,0.0378034,59.944,0.03737,
2,1,0,1,0,2449.42,0.0505051,0.0501744,41.1996,2,0.00244624,10,0.00206717,-1.38511,3.13875,0.0187973,30.2303,0.0501744,
2,1,0,1,0,2449.43,0.0633063,0.0629725,41.6604,2,0.00310886,10,0.00262346,-1.38028,1.9406,0.030403,49.4997,0.0629725,
2,1,0,1,0,2449.45,0.0761019,0.0757652,42.6397,2,0.00378225,10,0.0032306,-1.37019,0.893697,0.0660179,110.109,0.0757652,
2,1,0,1,0,2449.47,0.0889087,0.088577,44.4845,2,0.00447827,10,0.0039403,-1.35179,0.575042,0.102601,178.481,0.088577,
2,1,0,1,0,2449.48,0.101702,0.101333,47.356,2,0.00521136,10,0.00479871,-1.32462,0.401179,0.147066,272.334,0.101333,
2,1,0,1,0,2449.5,0.114506,0.11417,51.2122,2,0.0059997,10,0.00584689,-1.29063,0.358455,0.164595,329.537,0.11417,
2,1,0,1,0,2449.51,0.127301,0.126931,55.8357,2,0.00685568,10,0.00708728,-1.25309,0.32769,0.180048,392.831,0.126931,
2,1,0,1,0,2449.53,0.140105,0.139758,61.2798,2,0.007792,10,0.00856432,-1.21268,0.307065,0.192142,460.086,0.139758,
2,1,0,1,0,2449.55,0.152904,0.152549,67.7296,2,0.00882325,10,0.0103321,-1.16922,0.283365,0.208212,551.132,0.152549,
2,1,0,1,0,2449.56,0.165705,0.165338,75.3056,2,0.00996719,10,0.0124509,-1.12317,0.277443,0.212656,625.189,0.165338,
2,1,0,1,0,2449.58,0.178506,0.178156,83.4825,2,0.0112382,10,0.0148729,-1.0784,0.30377,0.194226,631.905,0.178156,
2,1,0,1,0,2449.59,0.191302,0.19094,91.1395,2,0.0126377,10,0.0174022,-1.04029,0.399654,0.147628,523.045,0.1909402,
2,1,0,1,0,2449.61,0.204108,0.203814,96.2552,2,0.0141425,10,0.0196181,-1.01658,1.06688,0.0553012,206.114,0.203814,
2,1,0,1,0,2449.63,0.216904,0.216669,95.481,2,0.0156866,10,0.0206878,-1.02008,-0.556378,-0.106043,-390.268,0.216669,
2,1,0,1,0,2449.64,0.229705,0.229546,85.735,2,0.017148,10,0.0196802,-1.06684,-0.176365,-0.334533,-1103.69,0.229546,
2,1,0,1,0,2449.66,0.242501,0.242313,68.2605,2,0.0183852,10,0.0165404,-1.16583,-0.104733,-0.563335,-1487.3,0.242313,
2,1,0,1,0,2449.67,0.255308,0.255093,49.3956,2,0.0193217,10,0.0126005,-1.30631,-0.0857299,-0.688208,-1331.03,0.255093,
2,1,0,1,0,2449.69,0.268101,0.267893,35.4045,2,0.0199896,10,0.00948461,-1.45094,-0.100492,-0.58711,-825.778,0.267893,
2,1,0,1,0,2449.71,0.280905,0.280616,28.245,2,0.0204901,10,0.00792598,-1.54906,-0.190304,-0.31003,-347.969,0.2806156,
2,1,0,1,0,2449.72,0.2937,0.293417,25.6202,2,0.020917,10,0.00751739,-1.59142,-0.532977,-0.110699,-111.874,0.2934168,
2,1,0,1,0,2449.73,0.298983,0.299001,21.5205,2,0.0211465,10,0.00643464,-1.66715,0.00723696,8.15259,3278.6,0.299001,
2,0,0,1,0,2449.75,0.286187,0.286012,-7.43818,2,0.0212122,10,-0.00212741,-2.12853,-0.019462,-3.03154,1253.56,0.286012,
2,0,0,1,0,2449.76,0.273386,0.273167,-16.6256,2,0.0210055,10,-0.00454158,-1.77922,-0.0874629,-0.674572,415.458,0.273167,
2,0,0,1,0,2449.78,0.260585,0.260369,-19.8303,2,0.0207096,10,-0.00516321,-1.70267,-0.282599,-0.208776,159.732,0.260369,
2,0,0,1,0,2449.8,0.247783,0.247522,-21.2598,2,0.0203795,10,-0.00526227,-1.67244,-0.530098,-0.1113,92.2141,0.247522,
2,0,0,1,0,2449.81,0.234982,0.234771,-22.3136,2,0.0200305,10,-0.00523858,-1.65143,-0.648614,-0.0909632,79.2663,0.234771,
2,0,0,1,0,2449.83,0.222187,0.221937,-23.4045,2,0.0196647,10,-0.00519433,-1.6307,-0.576727,-0.102302,93.5545,0.221937,
2,0,0,1,0,2449.84,0.20938,0.209145,-24.7941,2,0.0192796,10,-0.00518556,-1.60565,-0.46011,-0.12823,124.224,0.209145,
2,0,0,1,0,2449.86,0.196587,0.196382,-26.6323,2,0.0188688,10,-0.0052301,-1.57459,-0.359689,-0.164031,170.975,0.196382,
2,0,0,1,0,2449.88,0.183783,0.183567,-29.2387,2,0.0184227,10,-0.00536727,-1.53404,-0.274343,-0.215059,246.463,0.183567,
2,0,0,1,0,2449.89,0.170987,0.170798,-32.9827,2,0.0179261,10,-0.00563337,-1.48171,-0.218785,-0.269671,348.927,0.170798,
2,0,0,1,0,2449.91,0.158183,0.15797,-38.3109,2,0.0173573,10,-0.00605198,-1.41668,-0.182084,-0.324027,486.32,0.15797,
2,0,0,1,0,2449.92,0.145385,0.145191,-45.5388,2,0.0166886,10,-0.00661183,-1.34162,-0.162886,-0.362217,645.092,0.145191,
2,0,0,1,0,2449.94,0.132584,0.132369,-54.6138,2,0.0158886,10,-0.00722915,-1.2627,-0.167537,-0.352161,749.201,0.132369,
2,0,0,1,0,2449.96,0.119782,0.119679,-64.6492,2,0.014935,10,-0.00773713,-1.18944,-0.183607,-0.321338,808.359,0.119679,
2,0,0,1,0,2449.97,0.106987,0.106932,-74.7023,2,0.0138181,10,-0.00798803,-1.12667,-0.225505,-0.261634,761.148,0.1069316,
2,0,0,1,0,2449.99,0.0941801,0.0939946,-83.8396,2,0.0125461,10,-0.00788047,-1.07655,-0.309933,-0.190363,619.976,0.0939946,
2,0,0,1,0,2450,0.0813844,0.0811224,-90.3931,2,0.0111474,10,-0.0073329,-1.04386,-0.550963,-0.107085,375.63,0.0811224,
2,0,0,1,0,2450.02,0.0685832,0.0683413,-93.119,2,0.0096731,10,-0.00636387,-1.03096,-7.78485,-0.00757882,27.3551,0.0683413,
2,0,0,1,0,2450.04,0.0557876,0.0555125,-91.0031,2,0.0081939,10,-0.00505181,-1.04094,0.616817,0.0956524,-337.747,0.0555125,
2,0,0,1,0,2450.05,0.0429808,0.0426901,-84.8634,2,0.00678334,10,-0.00362282,-1.07128,0.340506,0.173272,-572.157,0.0426901,
2,0,0,1,0,2450.07,0.030188,0.0299026,-76.9419,2,0.00548859,10,-0.00230076,-1.11384,0.279452,0.211127,-633.39,0.0299026,
2,0,0,1,0,2450.08,0.017384,0.0171078,-68.8612,2,0.00432307,10,-0.00117806,-1.16203,0.253594,0.232656,-624.801,0.0171078,
2,0,0,1,0,2450.1,0.00458834,0.00428744,-61.0264,2,0.00328527,10,-0.000261647,-1.21448,0.243491,0.242309,-577.796,0.00428744,
2,0,0,1,0,2450.12,-0.00821564,-0.00852651,-54.1849,2,0.00236572,10,0.000462008,-1.26612,0.26934,0.219054,-465.401,-0.00852651,
2,0,0,1,0,2450.13,-0.0210196,-0.0213076,-49.5305,2,0.00153989,10,0.00105538,-1.30513,0.440936,0.133806,-260.282,-0.0213076,
2,0,0,1,0,2450.15,-0.0338153,-0.0341216,-47.3889,2,0.000767427,10,0.00161698,-1.32432,1.21139,0.0487044,-90.4996,-0.0341216,
2,0,0,1,0,2450.16,-0.0466193,-0.0469207,-47.0385,2,1.39057e-05,10,0.00220708,-1.32755,-6.72116,-0.00877824,16.149,-0.0469207,
2,0,0,1,0,2450.18,-0.0594121,-0.0597293,-47.6741,2,-0.000742765,10,0.00284754,-1.32172,-1.41562,-0.0416778,77.647,-0.0597293,
2,0,0,1,0,2450.2,-0.0722189,-0.0725316,-48.9195,2,-0.00151512,10,0.00354821,-1.31052,-0.996656,-0.0591979,113.11,-0.0725316,
2,0,0,1,0,2450.21,-0.0850146,-0.0852925,-50.4875,2,-0.00231037,10,0.0043062,-1.29682,-0.867361,-0.0680224,134.173,-0.08529254,
2,0,0,1,0,2450.23,-0.0978158,-0.0981203,-52.3436,2,-0.00313312,10,0.00513597,-1.28114,-0.787085,-0.0749602,153.231,-0.0981203,
2,0,0,1,0,2450.24,-0.110611,-0.110907,-54.4492,2,-0.00398737,10,0.00603878,-1.26401,-0.712359,-0.0828234,176.109,-0.110907,
2,0,0,1,0,2450.26,-0.123418,-0.123712,-56.88,2,-0.00487792,10,0.00703675,-1.24504,-0.643877,-0.0916324,203.51,-0.123712,
2,0,0,1,0,2450.28,-0.136214,-0.136526,-59.6063,2,-0.00580981,10,0.00813782,-1.22471,-0.612497,-0.096327,224.227,-0.136526,
2,0,0,1,0,2450.29,-0.149015,-0.14929,-62.6154,2,-0.00678798,10,0.00934787,-1.20332,-0.591843,-0.0996886,243.708,-0.14929,
2,0,0,1,0,2450.31,-0.161816,-0.162138,-65.8068,2,-0.00781573,10,0.0106698,-1.18173,-0.594996,-0.0991603,254.728,-0.162138,
2,0,0,1,0,2450.32,-0.174615,-0.17486,-69.1857,2,-0.00889583,10,0.0120978,-1.15998,-0.590109,-0.0999815,269.933,-0.17486,
2,0,0,1,0,2450.34,-0.187419,-0.187683,-72.7904,2,-0.0100314,10,0.0136615,-1.13793,-0.567774,-0.103915,295.196,-0.187683,
2,0,0,1,0,2450.36,-0.199647,-0.199902,-76.4991,2,-0.0111736,10,0.0152923,-1.11634,0.451016,0.130816,-376.047,-0.199902,
2,0,0,1,1,2450.37,-0.192535,-0.192973,-52.3573,2,-0.0118248,10,0.0101035,-1.28102,-0.0425479,-1.38667,2827.08,-0.192973,
2,0,0,1,1,2450.38,-0.179739,-0.180139,-22.4494,2,-0.0124061,10,0.00404401,-1.64879,-0.0243511,-2.42288,1981.05,-0.180139,
2,0,0,1,1,2450.4,-0.166932,-0.167309,-0.772174,2,-0.0125811,10,0.000129191,-3.11228,-0.0947682,-0.622571,1456.73,-0.167309,
2,1,0,1,1,2450.41,-0.154139,-0.15465,15.4268,2,-0.0124562,10,-0.00238574,-1.81172,0.0284991,2.07024,1116.07,-0.15465,
2,1,0,1,1,2450.43,-0.141335,-0.141775,27.9636,2,-0.0121034,10,-0.00396454,-1.55341,0.0742387,0.794734,843.325,-0.141775,
2,1,0,1,1,2450.45,-0.12854,-0.128891,37.2032,2,-0.011577,10,-0.00479516,-1.42942,0.137936,0.427736,613.861,-0.128891,
2,1,0,1,1,2450.46,-0.115736,-0.11608,43.9077,2,-0.0109243,10,-0.00509683,-1.35746,0.228509,0.258196,439.354,-0.11608,
2,1,0,1,1,2450.48,-0.102932,-0.103238,48.5903,2,-0.0101815,10,-0.00501636,-1.31345,0.373824,0.157828,297.842,-0.103238,
2,1,0,1,1,2450.49,-0.0901362,-0.090462,51.6812,2,-0.00937725,10,-0.00467518,-1.28667,0.612813,0.0962773,193.586,-0.090462,
2,1,0,1,1,2450.51,-0.0773322,-0.0777085,53.647,2,-0.00853324,10,-0.00416883,-1.27045,1.04919,0.0562337,117.471,-0.0777085,
2,1,0,1,1,2450.53,-0.0645393,-0.0648956,54.7462,2,-0.00766506,10,-0.00355279,-1.26165,1.98788,0.0296798,63.3441,-0.0648956,
2,1,0,1,1,2450.54,-0.0517325,-0.0520997,55.3046,2,-0.00678372,10,-0.00288135,-1.25724,5.17634,0.011398,24.5768,-0.0520997,
2,1,0,1,1,2450.56,-0.0389369,-0.0392942,55.4024,2,-0.00589747,10,-0.00217699,-1.25647,-15.1384,-0.00389736,-8.41933,-0.0392942,
2,1,0,1,1,2450.57,-0.0261357,-0.0265036,55.1392,2,-0.00501275,10,-0.00146139,-1.25854,-3.76325,-0.015678,-33.7037,-0.0265036,
2,1,0,1,1,2450.59,-0.01334,-0.0136737,54.5202,2,-0.00413514,10,-0.000745494,-1.26344,-2.13177,-0.0276765,-58.857,-0.0136737,
2,1,0,1,1,2450.61,-0.000774628,-0.00112858,53.6424,2,-0.00328561,10,-6.05399e-05,-1.27049, , , ,-0.00112858,
2,1,0,0,1,2450.61,-0.000125413,-0.000478022,53.6218,2,-0.00324271,10,-2.56324e-05,-1.27066, , , ,-0.000478022,