Folder: Figs_alphaMnO2_OER_Tafel_sleope/Figure_codes/Fig_3-5/rawdata_trumpetplot_data/before 10th (part 54)

File: 20221101_1-115_002_TrumpetPlot_ParaChange_15_CV_C01_4.csv
mode,ox/red,error,control changes,counter inc.,time/s,control/V,Ewe/V,<I>/mA,cycle number,(Q-Qo)/C,I Range,P/W,log(|I|),Tafel slope mV/dec,alpha_eff,dI/d(E-IR),E-IR/V,
2,1,0,0,0,6144.24,2.44065e-05,-0.000726157,34.0123,5,0.0000000E+000,10,-2.46983e-05,-1.46836, , , ,-0.000726157,
2,1,0,1,0,6144.26,0.0121015,0.0117612,33.5658,5,0.000496426,10,0.000394773,-1.4741,0.454709,0.129753,170.152,0.0117612,
2,1,0,1,0,6144.27,0.0249027,0.0245603,35.6591,5,0.00105148,10,0.000875799,-1.44783,0.589225,0.100132,139.059,0.0245603,
2,1,0,1,0,6144.29,0.0377094,0.0373923,37.1418,5,0.00163483,10,0.00138881,-1.43014,0.892076,0.0661379,95.736,0.0373923,
2,1,0,1,0,6144.3,0.0505051,0.0502158,38.2598,5,0.00223833,10,0.00192125,-1.41726,1.00778,0.0585445,87.4242,0.05021577,
2,1,0,1,0,6144.32,0.0633063,0.0629534,39.4895,5,0.00285995,10,0.002486,-1.40352,0.828378,0.0712235,109.86,0.0629534,
2,1,0,1,0,6144.34,0.0761019,0.0756793,41.1348,5,0.00350438,10,0.00311305,-1.38579,0.609514,0.0967985,155.714,0.07567931,
2,1,0,1,0,6144.35,0.0889087,0.0885452,43.5055,5,0.00418078,10,0.00385221,-1.36146,0.470839,0.125308,213.081,0.0885452,
2,1,0,1,0,6144.37,0.101702,0.101317,46.4755,5,0.00490047,10,0.00470875,-1.33278,0.421493,0.139979,254.303,0.101317,
2,1,0,1,0,6144.38,0.114506,0.114151,50.1085,5,0.00567243,10,0.00571993,-1.30009,0.385091,0.153211,299.532,0.114151,
2,1,0,1,0,6144.4,0.127301,0.126972,54.0468,5,0.00650571,10,0.00686245,-1.26723,0.388313,0.151939,320.641,0.126972,
2,1,0,1,0,6144.42,0.140105,0.139767,58.3715,5,0.00740495,10,0.00815841,-1.2338,0.375568,0.157095,358.117,0.1397671,
2,1,0,1,0,6144.43,0.152904,0.152546,63.2493,5,0.0083775,10,0.00964843,-1.19894,0.357728,0.16493,407.427,0.152546,
2,1,0,1,0,6144.45,0.165705,0.165357,68.7799,5,0.00943368,10,0.0113732,-1.16254,0.350863,0.168157,451.431,0.165357,
2,1,0,1,0,6144.46,0.178506,0.178152,74.6474,5,0.0105817,10,0.0132986,-1.12699,0.381181,0.154782,450.434,0.178152,
2,1,0,1,0,6144.48,0.191302,0.190915,80.1489,5,0.0118218,10,0.0153016,-1.0961,0.475752,0.124014,386.901,0.190915,
2,1,0,1,0,6144.5,0.204108,0.203739,84.1562,5,0.0131398,10,0.0171459,-1.07491,0.985466,0.0598702,195.552,0.2037393,
2,1,0,1,0,6144.51,0.216904,0.216635,84.4903,5,0.0144957,10,0.0183036,-1.07319,-0.992009,-0.0594753,-194.297,0.2166349,
2,1,0,1,0,6144.53,0.229705,0.229487,78.714,5,0.0158099,10,0.0180638,-1.10395,-0.253959,-0.232321,-705.859,0.229487,
2,1,0,1,0,6144.54,0.242501,0.242252,66.9799,5,0.0169802,10,0.016226,-1.17406,-0.147456,-0.400119,-1038.9,0.242252,
2,1,0,1,0,6144.56,0.255308,0.255065,53.4837,5,0.0179413,10,0.0136418,-1.27178,-0.125934,-0.4685,-979.983,0.255065,
2,1,0,1,0,6144.58,0.268101,0.267833,42.7138,5,0.0187043,10,0.0114402,-1.36943,-0.146777,-0.401971,-676.238,0.267833,
2,1,0,1,0,6144.59,0.280905,0.280619,36.0356,5,0.019329,10,0.0101123,-1.44327,-0.21446,-0.27511,-390.457,0.280619,
2,1,0,1,0,6144.61,0.2937,0.293435,32.3092,5,0.0198728,10,0.00948065,-1.49067,-0.340183,-0.173436,-220.395,0.293435,
2,1,0,1,0,6144.62,0.298983,0.298921,27.962,5,0.0201604,10,0.00835844,-1.55343,0.0164133,3.59464,2822.52,0.298921,
2,1,0,1,0,6144.63,0.286187,0.285991,2.1841,5,0.0203665,10,0.000624633,-2.66073,0.0280714,2.10178,1253.91,0.285991,
2,0,0,1,0,6144.65,0.273386,0.273097,-8.42586,5,0.0203043,10,-0.00230108,-2.07439,-0.0294079,-2.00626,561.319,0.273097,
2,0,0,1,0,6144.67,0.260585,0.260328,-13.4489,5,0.0201244,10,-0.00350111,-1.87131,-0.104641,-0.563834,288.419,0.260328,
2,0,0,1,0,6144.68,0.247783,0.247525,-16.2797,5,0.0198844,10,-0.00402963,-1.78835,-0.210658,-0.280075,176.532,0.247525,
2,0,0,1,0,6144.7,0.234982,0.234708,-18.1911,5,0.0196076,10,-0.00426961,-1.74014,-0.317864,-0.185614,131.424,0.234708,
2,0,0,1,0,6144.71,0.222187,0.221916,-19.7564,5,0.0193035,10,-0.00438426,-1.70429,-0.387843,-0.152123,117.169,0.221916,
2,0,0,1,0,6144.73,0.20938,0.209091,-21.2569,5,0.0189753,10,-0.00444464,-1.6725,-0.404495,-0.145861,121,0.209091,
2,0,0,1,0,6144.75,0.196587,0.196308,-22.8798,5,0.0186223,10,-0.00449149,-1.64055,-0.381269,-0.154746,138.369,0.196308,
2,0,0,1,0,6144.76,0.183783,0.183554,-24.8419,5,0.0182409,10,-0.00455984,-1.60482,-0.32466,-0.181729,176.778,0.183554,
2,0,0,1,0,6144.78,0.170987,0.170682,-27.4662,5,0.017823,10,-0.00468798,-1.5612,-0.263634,-0.223795,240.958,0.170682,
2,0,0,1,0,6144.79,0.158183,0.15788,-31.1612,5,0.0173551,10,-0.00491973,-1.50639,-0.212162,-0.278089,339.471,0.1578799,
2,0,0,1,0,6144.81,0.145385,0.1451,-36.2541,5,0.0168174,10,-0.00526046,-1.44064,-0.181749,-0.324624,460.654,0.1451,
2,0,0,1,0,6144.83,0.132584,0.132332,-42.9875,5,0.0161851,10,-0.0056886,-1.36666,-0.16953,-0.34802,584.278,0.132332,
2,0,0,1,0,6144.84,0.119783,0.119529,-50.9472,5,0.0154338,10,-0.00608968,-1.29288,-0.183081,-0.322261,639.142,0.119529,
2,0,0,1,0,6144.86,0.106987,0.106814,-59.1602,5,0.0145523,10,-0.00631913,-1.22797,-0.212952,-0.277057,637.764,0.106814,
2,0,0,1,0,6144.87,0.0941801,0.094019,-66.9122,5,0.0135414,10,-0.00629102,-1.17449,-0.272953,-0.216155,562.782,0.09401904,
2,0,0,1,0,6144.89,0.0813844,0.0811733,-73.5275,5,0.0124154,10,-0.00596847,-1.13355,-0.378875,-0.155724,444.96,0.0811733,
2,0,0,1,0,6144.91,0.0685832,0.0683158,-78.1316,5,0.0111985,10,-0.00533762,-1.10717,-0.678779,-0.0869207,263.921,0.0683158,
2,0,0,1,0,6144.92,0.0557876,0.0555337,-80.1091,5,0.00992831,10,-0.00444875,-1.09632,-4.73767,-0.0124534,38.7592,0.0555337,
2,0,0,1,0,6144.94,0.0429808,0.0427123,-79.2174,5,0.00865014,10,-0.00338356,-1.10118,1.12936,0.052242,-160.987,0.0427123,
2,0,0,1,0,6144.95,0.030188,0.0298963,-76.3303,5,0.00740437,10,-0.00228199,-1.1173,0.670539,0.0879889,-261.824,0.0298963,
2,0,0,1,0,6144.97,0.017384,0.0171088,-72.753,5,0.00621144,10,-0.00124472,-1.13815,0.568289,0.103821,-294.477,0.0171088,
2,0,0,1,0,6144.99,0.00458834,0.00430229,-68.6249,5,0.00507956,10,-0.000295244,-1.16352,0.447714,0.131781,-352.352,0.00430229,
2,0,0,1,0,6145,-0.00821564,-0.00857317,-63.5541,5,0.00402066,10,0.00054486,-1.19686,0.336052,0.175568,-434.791,-0.008573168,
2,0,0,1,0,6145.02,-0.0210196,-0.0213543,-57.9585,5,0.0030494,10,0.00123766,-1.23688,0.328464,0.179624,-407.12,-0.0213543,
2,0,0,1,0,6145.03,-0.0338153,-0.0341597,-53.4972,5,0.00216038,10,0.00182745,-1.27167,0.444207,0.132821,-278.401,-0.0341597,
2,0,0,1,0,6145.05,-0.0466193,-0.0469557,-50.8529,5,0.00132812,10,0.00238783,-1.29368,0.801612,0.0736017,-146.518,-0.0469557,
2,0,0,1,0,6145.07,-0.0594121,-0.0597367,-49.643,5,0.000525868,10,0.00296551,-1.30414,2.41892,0.024391,-47.379,-0.0597367,
2,0,0,1,0,6145.08,-0.0722189,-0.072539,-49.4672,5,-0.000266196,10,0.00358831,-1.30568,-7.37621,-0.00799868,15.4735,-0.072539,
2,0,0,1,0,6145.1,-0.0850146,-0.0853148,-49.9674,5,-0.00106128,10,0.00426296,-1.30131,-1.95782,-0.0301355,58.8557,-0.0853148,
2,0,0,1,0,6145.11,-0.0978158,-0.0981479,-50.9569,5,-0.00186843,10,0.00500131,-1.2928,-1.28354,-0.0459665,91.4949,-0.0981479,
2,0,0,1,0,6145.13,-0.110611,-0.110976,-52.3035,5,-0.00269424,10,0.00580441,-1.28147,-1.01976,-0.0578566,118.189,-0.1109756,
2,0,0,1,0,6145.15,-0.123418,-0.123722,-54.0099,5,-0.00354448,10,0.00668219,-1.26753,-0.845709,-0.069764,147.126,-0.1237217,
2,0,0,1,0,6145.16,-0.136214,-0.136539,-56.0054,5,-0.0044245,10,0.00764691,-1.25177,-0.774631,-0.0761653,166.59,-0.136539,
2,0,0,1,0,6145.18,-0.149015,-0.149311,-58.2563,5,-0.00533885,10,0.00869833,-1.23466,-0.732235,-0.0805752,183.283,-0.149311,
2,0,0,1,0,6145.19,-0.161816,-0.162158,-60.6682,5,-0.00629051,10,0.00983785,-1.21704,-0.730989,-0.0807126,191.121,-0.162158,
2,0,0,1,0,6145.21,-0.174615,-0.174903,-63.1659,5,-0.00728135,10,0.0110479,-1.19952,-0.734295,-0.0803492,198.056,-0.1749033,
2,0,0,1,0,6145.23,-0.187419,-0.187732,-65.7574,5,-0.00831279,10,0.0123448,-1.18206,-0.729205,-0.08091,207.641,-0.187732,
2,0,0,1,0,6145.24,-0.199647,-0.199969,-68.3524,5,-0.00933892,10,0.0136684,-1.16525,0.398631,0.148007,-381.644,-0.199969,
2,0,0,1,1,6145.25,-0.192535,-0.19299,-48.8463,5,-0.00992999,10,0.00942683,-1.31117,-0.0499536,-1.1811,2262.01,-0.1929896,
2,0,0,1,1,6145.27,-0.179739,-0.180137,-25.1077,5,-0.0105084,10,0.00452284,-1.60019,-0.0356724,-1.65394,1579.53,-0.180137,
2,0,0,1,1,6145.28,-0.166932,-0.167338,-7.55835,5,-0.0107617,10,0.0012648,-2.12157,-0.0079165,-7.45279,1200.54,-0.167338,
2,1,0,1,1,6145.3,-0.154139,-0.154606,5.98793,5,-0.0107687,10,-0.000925769,-2.22272,0.00861196,6.85094,940.357,-0.154606,
2,1,0,1,1,6145.31,-0.141335,-0.141803,16.763,5,-0.0105827,10,-0.00237704,-1.77565,0.0486651,1.21237,758.071,-0.1418027,
2,1,0,1,1,6145.33,-0.12854,-0.128983,25.4418,5,-0.0102414,10,-0.00328157,-1.59445,0.0963192,0.612547,598.115,-0.128983,
2,1,0,1,1,6145.35,-0.115736,-0.116122,32.2394,5,-0.00977693,10,-0.0037437,-1.49161,0.157026,0.375733,468.747,-0.116122,
2,1,0,1,1,6145.36,-0.102932,-0.103293,37.547,5,-0.00921638,10,-0.00387834,-1.42542,0.237262,0.24867,362.239,-0.103293,
2,1,0,1,1,6145.38,-0.0901362,-0.0905257,41.6023,5,-0.00858145,10,-0.00376607,-1.38088,0.343925,0.171549,277.459,-0.0905257,
2,1,0,1,1,6145.39,-0.0773322,-0.077699,44.6798,5,-0.00788978,10,-0.00347158,-1.34989,0.495144,0.119157,207.213,-0.077699,
2,1,0,1,1,6145.41,-0.0645393,-0.0649253,46.9301,5,-0.0071557,10,-0.00304695,-1.32855,0.712249,0.0828362,151.498,-0.0649253,
2,1,0,1,1,6145.43,-0.0517325,-0.0521071,48.5838,5,-0.00639051,10,-0.00253156,-1.31351,1.04276,0.0565804,107.145,-0.0521071,
2,1,0,1,1,6145.44,-0.0389369,-0.0392985,49.7128,5,-0.00560339,10,-0.00195364,-1.30353,1.68859,0.0349404,67.6899,-0.03929846,
2,1,0,1,1,6145.46,-0.0261357,-0.0264919,50.3569,5,-0.00480225,10,-0.00133405,-1.29794,3.31383,0.0178042,34.9504,-0.0264919,
2,1,0,1,1,6145.47,-0.01334,-0.0137193,50.5768,5,-0.00399416,10,-0.000693879,-1.29605,43.9111,0.00134362,2.65025,-0.0137193,
2,1,0,1,1,6145.49,-0.000774629,-0.00111904,50.4338,5,-0.00320062,10,-5.64373e-05,-1.29728, , , ,-0.00111904,
2,1,0,0,1,6145.49,-0.000125413,-0.000592546,50.4359,5,-0.00316027,10,-2.98856e-05,-1.29726, , , ,-0.000592546,

File: 20221101_1-115_002_TrumpetPlot_ParaChange_15_CV_C01_5.csv
mode,ox/red,error,control changes,counter inc.,time/s,control/V,Ewe/V,<I>/mA,cycle number,(Q-Qo)/C,I Range,P/W,log(|I|),Tafel slope mV/dec,alpha_eff,dI/d(E-IR),E-IR/V,
2,1,0,0,0,7375.87,2.44065e-05,-0.00091703,35.5521,6,0.0000000E+000,10,-3.26024e-05,-1.44913, , , ,-0.0009170305,
2,1,0,1,0,7375.88,0.0121015,0.0117336,34.4166,6,0.000512049,10,0.000403831,-1.46323,0.509659,0.115764,155.906,0.0117336,
2,1,0,1,0,7375.9,0.0249027,0.0245985,36.4567,6,0.00108014,10,0.000896778,-1.43822,0.616976,0.0956278,135.767,0.02459847,
2,1,0,1,0,7375.92,0.0377094,0.0373499,37.9335,6,0.00167602,10,0.00141681,-1.42098,0.885613,0.0666205,98.4938,0.0373499,
2,1,0,1,0,7375.93,0.0505051,0.050202,39.1094,6,0.00229247,10,0.00196337,-1.40772,0.948201,0.0622231,94.9997,0.050202,
2,1,0,1,0,7375.95,0.0633063,0.0629693,40.4433,6,0.0029285,10,0.00254668,-1.39315,0.771778,0.0764468,120.834,0.0629693,
2,1,0,1,0,7375.96,0.0761019,0.0757302,42.2626,6,0.00358968,10,0.00320056,-1.37404,0.57069,0.103384,170.927,0.0757302,
2,1,0,1,0,7375.98,0.0889087,0.0885548,44.8201,6,0.00428576,10,0.00396903,-1.34853,0.465801,0.126664,221.789,0.0885548,
2,1,0,1,0,7376,0.101702,0.101223,47.8996,6,0.00502708,10,0.00484856,-1.31967,0.408263,0.144515,270.749,0.101223,
2,1,0,1,0,7376.01,0.114506,0.114144,51.6572,6,0.0058237,10,0.00589639,-1.28687,0.397731,0.148341,299.052,0.1141445,
2,1,0,1,0,7376.03,0.127301,0.126957,55.6129,6,0.0066819,10,0.00706047,-1.25482,0.393944,0.149768,325.293,0.126957,
2,1,0,1,0,7376.04,0.140105,0.139741,59.9759,6,0.00760665,10,0.00838107,-1.22202,0.382381,0.154296,361.511,0.139741,
2,1,0,1,0,7376.06,0.152904,0.152562,64.8958,6,0.00860547,10,0.00990063,-1.18778,0.368782,0.159986,405.524,0.152562,
2,1,0,1,0,7376.08,0.165705,0.165364,70.4027,6,0.00968794,10,0.0116421,-1.15241,0.366578,0.160948,442.042,0.165364,
2,1,0,1,0,7376.09,0.178506,0.178142,76.0391,6,0.0108601,10,0.0135458,-1.11896,0.410113,0.143863,426.331,0.178142,
2,1,0,1,0,7376.11,0.191302,0.190942,81.1349,6,0.0121194,10,0.0154921,-1.09079,0.536854,0.109899,346.977,0.190942,
2,1,0,1,0,7376.12,0.204108,0.203752,84.3987,6,0.0134479,10,0.0171964,-1.07366,1.64199,0.035932,117.637,0.203752,
2,1,0,1,0,7376.14,0.216904,0.216594,83.4652,6,0.0147982,10,0.018078,-1.07849,-0.616206,-0.0957472,-308.802,0.216594,
2,1,0,1,0,7376.16,0.229705,0.229474,76.2391,6,0.0160837,10,0.0174949,-1.11782,-0.217183,-0.27166,-799.652,0.229474,
2,1,0,1,0,7376.17,0.242501,0.242247,63.7743,6,0.0172069,10,0.0154491,-1.19535,-0.139009,-0.424433,-1050.86,0.2422469,
2,1,0,1,0,7376.19,0.255308,0.255064,50.5149,6,0.018118,10,0.0128845,-1.29658,-0.123632,-0.477221,-944.307,0.255064,
2,1,0,1,0,7376.2,0.268101,0.267847,40.3299,6,0.0188385,10,0.0108022,-1.39437,-0.147682,-0.399507,-634.985,0.267847,
2,1,0,1,0,7376.22,0.280905,0.280621,34.124,6,0.0194291,10,0.0095759,-1.46694,-0.219466,-0.268835,-361.201,0.2806209,
2,1,0,1,0,7376.24,0.2937,0.293431,30.7205,6,0.0199448,10,0.00901434,-1.51257,-0.358983,-0.164353,-198.455,0.293431,
2,1,0,1,0,7376.25,0.298983,0.298897,26.4625,6,0.0202184,10,0.00790955,-1.57737,0.0150944,3.90873,2822.29,0.298897,
2,1,0,1,0,7376.26,0.286187,0.286015,0.694303,6,0.0204006,10,0.000198581,-3.15845,0.0478819,1.2322,1259.13,0.286015,
2,0,0,1,0,7376.28,0.273386,0.273104,-9.88775,6,0.0203145,10,-0.00270038,-2.0049,-0.0363083,-1.62497,554.904,0.273104,
2,0,0,1,0,7376.29,0.260585,0.260398,-14.8129,6,0.0201118,10,-0.00385726,-1.82936,-0.121087,-0.487251,275.292,0.260398,
2,0,0,1,0,7376.31,0.247783,0.247494,-17.4705,6,0.0198513,10,-0.00432385,-1.75769,-0.244613,-0.241197,163.217,0.247494,
2,0,0,1,0,7376.33,0.234982,0.234732,-19.2089,6,0.019557,10,-0.00450894,-1.7165,-0.375534,-0.15711,117.396,0.234732,
2,0,0,1,0,7376.34,0.222187,0.221916,-20.5808,6,0.0192383,10,-0.0045672,-1.68654,-0.455268,-0.129594,104.012,0.221916,
2,0,0,1,0,7376.36,0.20938,0.209077,-21.8941,6,0.0188983,10,-0.00457757,-1.65967,-0.475072,-0.124192,106.206,0.209077,
2,0,0,1,0,7376.37,0.196587,0.196318,-23.3359,6,0.0185364,10,-0.00458125,-1.63198,-0.436097,-0.135291,123.449,0.196318,
2,0,0,1,0,7376.39,0.183783,0.183474,-25.1206,6,0.0181491,10,-0.00460897,-1.59997,-0.36423,-0.161985,159.208,0.183474,
2,0,0,1,0,7376.41,0.170987,0.17071,-27.5258,6,0.0177288,10,-0.00469892,-1.56026,-0.285776,-0.206455,222.543,0.17071,
2,0,0,1,0,7376.42,0.158183,0.157922,-30.9461,6,0.0172624,10,-0.00488708,-1.50939,-0.222945,-0.264639,320.916,0.1579223,
2,0,0,1,0,7376.44,0.145385,0.145157,-35.7774,6,0.0167302,10,-0.00519334,-1.44639,-0.186645,-0.316108,443.093,0.145157,
2,0,0,1,0,7376.45,0.132584,0.132339,-42.2915,6,0.0161071,10,-0.00559681,-1.37375,-0.171077,-0.344874,570.25,0.132339,
2,0,0,1,0,7376.47,0.119782,0.119578,-50.1745,6,0.0153676,10,-0.00599976,-1.29952,-0.18088,-0.326184,637.402,0.119578,
2,0,0,1,0,7376.49,0.106987,0.106814,-58.4008,6,0.0144985,10,-0.00623801,-1.23358,-0.209407,-0.281748,640.266,0.106814,
2,0,0,1,0,7376.5,0.0941801,0.0939703,-66.1807,6,0.0134998,10,-0.00621902,-1.17927,-0.268312,-0.219893,566.18,0.0939703,
2,0,0,1,0,7376.52,0.0813844,0.0811828,-72.8642,6,0.012385,10,-0.00591532,-1.13749,-0.367801,-0.160413,454.26,0.0811828,
2,0,0,1,0,7376.53,0.0685832,0.0682999,-77.6417,6,0.0111774,10,-0.00530293,-1.1099,-0.632872,-0.0932258,281.32,0.0682999,
2,0,0,1,0,7376.55,0.0557876,0.0555093,-79.9336,6,0.00991276,10,-0.00443706,-1.09727,-2.59533,-0.0227331,70.6103,0.0555093,
2,0,0,1,0,7376.57,0.0429808,0.0426625,-79.5008,6,0.0086338,10,-0.0033917,-1.09963,1.45353,0.0405908,-125.515,0.0426625,
2,0,0,1,0,7376.58,0.030188,0.0299005,-77.033,6,0.00737997,10,-0.00230333,-1.11332,0.7522,0.0784366,-235.437,0.0299005,
2,0,0,1,0,7376.6,0.017384,0.0170696,-73.6706,6,0.0061739,10,-0.00125753,-1.13271,0.604209,0.0976484,-280.489,0.0170696,
2,0,0,1,0,7376.61,0.00458834,0.00425245,-69.7448,6,0.00502573,10,-0.000296586,-1.15649,0.479579,0.123025,-334.428,0.00425245,
2,0,0,1,0,7376.63,-0.00821564,-0.00859862,-64.9484,6,0.00394657,10,0.000558467,-1.18743,0.358808,0.164434,-416.043,-0.00859862,
2,0,0,1,0,7376.65,-0.0210196,-0.0213924,-59.4399,6,0.00295187,10,0.00127156,-1.22592,0.325415,0.181307,-420.786,-0.0213924,
2,0,0,1,0,7376.66,-0.0338153,-0.0341481,-54.6108,6,0.00204199,10,0.00186485,-1.26272,0.405075,0.145652,-311.512,-0.0341481,
2,0,0,1,0,7376.68,-0.0466193,-0.0469673,-51.5034,6,0.00119568,10,0.00241897,-1.28816,0.676265,0.0872439,-176.037,-0.0469673,
2,0,0,1,0,7376.69,-0.0594121,-0.0597717,-49.9862,6,0.000385487,10,0.00298776,-1.30115,1.66679,0.0353973,-69.2646,-0.0597717,
2,0,0,1,0,7376.71,-0.0722189,-0.0725433,-49.6435,6,-0.0004104,10,0.0036013,-1.30414,-30.1801,-0.00195493,3.79354,-0.0725433,
2,0,0,1,0,7376.73,-0.0850146,-0.0853138,-50.0384,6,-0.00120706,10,0.00426896,-1.3007,-2.0826,-0.0283299,55.3918,-0.0853138,
2,0,0,1,0,7376.74,-0.0978158,-0.0981309,-50.981,6,-0.00201479,10,0.00500281,-1.29259,-1.29042,-0.0457216,91.0682,-0.0981309,
2,0,0,1,0,7376.76,-0.110611,-0.110962,-52.3201,6,-0.00284108,10,0.00580553,-1.28133,-1.00279,-0.058836,120.297,-0.110962,
2,0,0,1,0,7376.77,-0.123418,-0.123751,-54.0627,6,-0.00369216,10,0.00669034,-1.2671,-0.836838,-0.0705035,148.878,-0.123751,
2,0,0,1,0,7376.79,-0.136214,-0.13656,-56.1091,6,-0.00457347,10,0.00766226,-1.25097,-0.770214,-0.0766021,167.798,-0.13656,
2,0,0,1,0,7376.81,-0.149015,-0.149308,-58.3868,6,-0.00548945,10,0.00871764,-1.23369,-0.731762,-0.0806273,183.709,-0.149308,
2,0,0,1,0,7376.82,-0.161816,-0.162112,-60.7867,6,-0.00644301,10,0.00985422,-1.21619,-0.727507,-0.0810988,192.399,-0.162112,
2,0,0,1,0,7376.84,-0.174615,-0.174922,-63.264,6,-0.00743578,10,0.0110663,-1.19884,-0.738581,-0.0798829,197.278,-0.174922,
2,0,0,1,0,7376.85,-0.187419,-0.187714,-65.8436,6,-0.00846893,10,0.0123598,-1.18149,-0.736268,-0.0801339,205.957,-0.187714,
2,0,0,1,0,7376.87,-0.199647,-0.199964,-68.4173,6,-0.0094963,10,0.013681,-1.16483,0.387717,0.152173,-392.674,-0.199964,
2,0,0,1,1,7376.88,-0.192535,-0.19301,-48.7354,6,-0.010087,10,0.0094064,-1.31216,-0.0496341,-1.1887,2273.89,-0.19301,
2,0,0,1,1,7376.89,-0.179739,-0.180158,-24.9839,6,-0.0106636,10,0.00450105,-1.60234,-0.0355811,-1.65819,1576.54,-0.180158,
2,0,0,1,1,7376.91,-0.166932,-0.167342,-7.45765,6,-0.0109152,10,0.00124797,-2.1274,-0.00714483,-8.25771,1207.42,-0.167342,
2,1,0,1,1,7376.93,-0.154139,-0.154603,6.10036,6,-0.0109203,10,-0.000943133,-2.21464,0.00770197,7.66037,943.086,-0.154603,
2,1,0,1,1,7376.94,-0.141335,-0.14185,16.9412,6,-0.0107318,10,-0.00240312,-1.77106,0.0489704,1.20481,762.276,-0.14185,
2,1,0,1,1,7376.96,-0.12854,-0.128948,25.7303,6,-0.0103869,10,-0.00331788,-1.58955,0.0958541,0.615519,607.587,-0.128948,
2,1,0,1,1,7376.97,-0.115736,-0.116131,32.6604,6,-0.00991692,10,-0.0037929,-1.48598,0.155088,0.380428,480.626,-0.116131,
2,1,0,1,1,7376.99,-0.102932,-0.103311,38.1059,6,-0.00934857,10,-0.00393676,-1.41901,0.2332,0.253002,374.215,-0.103311,
2,1,0,1,1,7377.01,-0.0901362,-0.0904726,42.3134,6,-0.00870324,10,-0.0038282,-1.37352,0.336194,0.175494,288.857,-0.0904726,
2,1,0,1,1,7377.02,-0.0773322,-0.0776831,45.5499,6,-0.00799872,10,-0.00353846,-1.34151,0.477836,0.123473,218.939,-0.0776831,
2,1,0,1,1,7377.04,-0.0645393,-0.0649221,47.9656,6,-0.0072494,10,-0.00311403,-1.31907,0.683289,0.0863471,161.325,-0.0649221,
2,1,0,1,1,7377.05,-0.0517325,-0.05207,49.7259,6,-0.00646692,10,-0.00258923,-1.30342,0.995839,0.0592466,114.795,-0.05207,
2,1,0,1,1,7377.07,-0.0389369,-0.0393536,50.9187,6,-0.00566099,10,-0.00200383,-1.29312,1.58893,0.037132,73.6991,-0.0393536,
2,1,0,1,1,7377.09,-0.0261357,-0.0264675,51.6148,6,-0.00483991,10,-0.00136612,-1.28723,3.20913,0.0183851,37.0002,-0.0264675,
2,1,0,1,1,7377.1,-0.01334,-0.0137045,51.8458,6,-0.00401143,10,-0.00071052,-1.28529,81.0552,0.000727899,1.4719,-0.01370448,
2,1,0,1,1,7377.12,-0.000774629,-0.00116676,51.6844,6,-0.00319804,10,-6.03031e-05,-1.28664, , , ,-0.00116676,
2,1,0,0,1,7377.12,-0.000125413,-0.000516197,51.6831,6,-0.0031567,10,-2.66787e-05,-1.28665, , , ,-0.000516197,