Folder: Figs_alphaMnO2_OER_Tafel_sleope/Figure_codes/Fig_3-5/rawdata_trumpetplot_data/before 10th (part 51)

File: 20221101_1-115_002_TrumpetPlot_ParaChange_14_CV_C01_7.csv
mode,ox/red,error,control changes,counter inc.,time/s,control/V,Ewe/V,<I>/mA,cycle number,(Q-Qo)/C,I Range,P/W,log(|I|),Tafel slope mV/dec,alpha_eff,dI/d(E-IR),E-IR/V,
2,1,0,1,0,9837.69,2.44065e-05,-0.000649808,26.5294,8,0.0000000E+000,10,-1.7239e-05,-1.57627, , , ,-0.000649808,
2,1,0,1,0,9837.71,0.0102815,0.00999455,25.1245,8,0.000421826,10,0.000251108,-1.5999,0.343747,0.171638,168.601,0.00999455,
2,1,0,1,0,9837.73,0.0210878,0.0207534,26.9395,8,0.000891206,10,0.000559088,-1.56961,0.425108,0.138788,145.648,0.0207534,
2,1,0,1,0,9837.74,0.0318859,0.0315176,28.3083,8,0.00138926,10,0.00089221,-1.54809,0.569822,0.103541,114.306,0.0315176,
2,1,0,1,0,9837.76,0.042684,0.0423497,29.4651,8,0.00190954,10,0.00124784,-1.53069,0.647659,0.0910973,104.795,0.0423497,
2,1,0,1,0,9837.78,0.0534793,0.0531669,30.6432,8,0.00245048,10,0.0016292,-1.51367,0.598797,0.0985308,117.974,0.0531669,
2,1,0,1,0,9837.8,0.0642857,0.0639152,32.0821,8,0.00301489,10,0.00205053,-1.49374,0.499445,0.118131,148.076,0.0639152,
2,1,0,1,0,9837.82,0.0750837,0.0747154,33.8758,8,0.00360814,10,0.00253104,-1.47011,0.421197,0.140077,185.361,0.0747154,
2,1,0,1,0,9837.83,0.0858818,0.0855188,36.013,8,0.00423701,10,0.00307979,-1.44354,0.404603,0.145822,204.917,0.0855188,
2,1,0,1,0,9837.85,0.0966882,0.096301,38.4062,8,0.00490612,10,0.00369856,-1.4156,0.370404,0.159286,238.599,0.096301,
2,1,0,1,0,9837.87,0.107483,0.10713,41.0028,8,0.005621,10,0.00439263,-1.38719,0.387886,0.152106,243.329,0.1071299,
2,1,0,1,0,9837.89,0.118282,0.11797,43.6613,8,0.00638295,10,0.00515074,-1.3599,0.395872,0.149038,254.014,0.11797,
2,1,0,1,0,9837.91,0.129088,0.128734,46.5055,8,0.00719438,10,0.00598682,-1.3325,0.383315,0.15392,279.542,0.128734,
2,1,0,1,0,9837.92,0.139886,0.139585,49.7157,8,0.00806025,10,0.00693955,-1.30351,0.360975,0.163446,317.351,0.139585,
2,1,0,1,0,9837.94,0.150681,0.150346,53.3169,8,0.00898755,10,0.00801597,-1.27313,0.354759,0.16631,346.184,0.1503457,
2,1,0,1,0,9837.96,0.161485,0.161122,57.0966,8,0.00998181,10,0.0091995,-1.24339,0.379425,0.155498,346.348,0.161122,
2,1,0,1,0,9837.98,0.172286,0.171932,60.7152,8,0.0110431,10,0.0104389,-1.2167,0.451467,0.130685,309.24,0.171932,
2,1,0,1,0,9838,0.183084,0.182694,63.6517,8,0.0121641,10,0.0116288,-1.19619,0.69533,0.0848518,210.186,0.182694,
2,1,0,1,0,9838.01,0.193879,0.19356,64.8824,8,0.0133246,10,0.0125587,-1.18787,-7.46763,-0.00790077,-19.9024,0.19356,
2,1,0,1,0,9838.03,0.204688,0.204429,62.746,8,0.0144794,10,0.0128271,-1.20241,-0.360173,-0.16381,-398.141,0.204429,
2,1,0,1,0,9838.05,0.215484,0.215126,56.2818,8,0.0155561,10,0.0121077,-1.24963,-0.16894,-0.349236,-761.948,0.215126,
2,1,0,1,0,9838.07,0.226282,0.226044,46.9589,8,0.0164862,10,0.0106148,-1.32828,-0.121097,-0.487213,-891.132,0.226044,
2,1,0,1,0,9838.09,0.237088,0.236838,37.8924,8,0.0172466,10,0.00897436,-1.42145,-0.118688,-0.497101,-737.983,0.236838,
2,1,0,1,0,9838.1,0.247886,0.247595,31.2201,8,0.0178639,10,0.00772992,-1.50557,-0.146943,-0.401517,-492.406,0.247595,
2,1,0,1,0,9838.12,0.258681,0.258379,27.0872,8,0.018385,10,0.00699877,-1.56724,-0.21619,-0.272907,-290.267,0.258379,
2,1,0,1,0,9838.14,0.269488,0.269195,24.7049,8,0.0188491,10,0.00665043,-1.60722,-0.338692,-0.174199,-168.582,0.269195,
2,1,0,1,0,9838.16,0.280286,0.279989,23.306,8,0.0192801,10,0.00652541,-1.63253,-0.52272,-0.112871,-102.821,0.279989,
2,1,0,1,0,9838.18,0.291084,0.290739,22.3981,8,0.0196907,10,0.00651201,-1.64979,-0.710195,-0.0830757,-72.6894,0.2907393,
2,1,0,1,0,9838.19,0.300012,0.299746,21.831,8,0.0200201,10,0.00654376,-1.66093,0.000472423,124.888,84393.7,0.299746,
2,1,0,1,0,9838.21,0.290843,0.290607,3.06278,8,0.0201872,10,0.000890064,-2.51388,0.0130568,4.51873,1320.33,0.290607,
2,0,0,1,0,9838.22,0.280047,0.279783,-6.06672,8,0.0201476,10,-0.00169737,-2.21705,-0.0217357,-2.71443,546.393,0.279783,
2,0,0,1,0,9838.24,0.269244,0.268952,-10.1584,8,0.0199969,10,-0.00273213,-1.99317,-0.0850697,-0.693549,267.945,0.268952,
2,0,0,1,0,9838.26,0.258443,0.258165,-12.2853,8,0.0197932,10,-0.00317162,-1.91062,-0.186062,-0.317099,150.715,0.258165,
2,0,0,1,0,9838.28,0.247645,0.247354,-13.6066,8,0.0195593,10,-0.00336563,-1.86625,-0.293265,-0.201184,106.608,0.247354,
2,0,0,1,0,9838.3,0.236849,0.236533,-14.5933,8,0.019305,10,-0.00345181,-1.83585,-0.394216,-0.149664,85.2305,0.236533,
2,0,0,1,0,9838.31,0.22604,0.225729,-15.458,8,0.0190342,10,-0.00348933,-1.81085,-0.464818,-0.126931,76.5335,0.225729,
2,0,0,1,0,9838.33,0.215245,0.214926,-16.2623,8,0.0187486,10,-0.00349518,-1.78882,-0.476519,-0.123815,78.6358,0.214926,
2,0,0,1,0,9838.35,0.204447,0.204107,-17.1302,8,0.018448,10,-0.0034964,-1.76624,-0.474454,-0.124353,83.1655,0.204107,
2,0,0,1,0,9838.37,0.19364,0.193318,-18.1101,8,0.0181311,10,-0.003501,-1.74208,-0.436585,-0.13514,95.5267,0.193318,
2,0,0,1,0,9838.39,0.182842,0.182558,-19.285,8,0.0177951,10,-0.00352062,-1.71478,-0.356757,-0.165379,124.642,0.182558,
2,0,0,1,0,9838.4,0.172047,0.171771,-20.8409,8,0.0174345,10,-0.00357987,-1.68108,-0.28267,-0.208724,170.163,0.171771,
2,0,0,1,0,9838.42,0.161241,0.160912,-23.0023,8,0.017041,10,-0.00370134,-1.63823,-0.225542,-0.261592,235.446,0.160912,
2,0,0,1,0,9838.44,0.150443,0.150159,-26.0251,8,0.016601,10,-0.00390791,-1.58461,-0.182319,-0.323608,329.495,0.150159,
2,0,0,1,0,9838.46,0.139645,0.139361,-30.1289,8,0.0160969,10,-0.0041988,-1.52102,-0.158423,-0.37242,439.285,0.139361,
2,0,0,1,0,9838.48,0.128849,0.128583,-35.4144,8,0.0155077,10,-0.00455369,-1.45082,-0.154221,-0.382567,529.036,0.128583,
2,0,0,1,0,9838.49,0.118043,0.117815,-41.315,8,0.0148166,10,-0.00486751,-1.38389,-0.17294,-0.341159,549.365,0.117815,
2,0,0,1,0,9838.51,0.107245,0.107016,-47.2227,8,0.0140191,10,-0.00505361,-1.32585,-0.205413,-0.287226,528.327,0.107016,
2,0,0,1,0,9838.53,0.0964468,0.0962374,-52.521,8,0.0131193,10,-0.00505448,-1.27967,-0.267798,-0.220316,450.947,0.0962374,
2,0,0,1,0,9838.55,0.0856404,0.0853396,-56.9865,8,0.0121314,10,-0.0048632,-1.24423,-0.3763,-0.15679,347.659,0.0853396,
2,0,0,1,0,9838.57,0.0748451,0.074586,-60.0022,8,0.011076,10,-0.00447533,-1.22183,-0.665385,-0.0886705,207.046,0.074586,
2,0,0,1,0,9838.58,0.0640471,0.0637603,-61.3926,8,0.00998073,10,-0.00391441,-1.21188,-3.18091,-0.0185481,44.3017,0.06376034,
2,0,0,1,0,9838.6,0.0532407,0.052923,-61.0039,8,0.00887698,10,-0.00322851,-1.21464,1.30561,0.0451895,-107.312,0.052923,
2,0,0,1,0,9838.62,0.0424426,0.0421896,-59.2856,8,0.00779332,10,-0.00250123,-1.22705,0.712542,0.0828021,-191.356,0.0421896,
2,0,0,1,0,9838.64,0.0316473,0.0313077,-57.0197,8,0.00674648,10,-0.00178515,-1.24398,0.605402,0.0974559,-216.789,0.03130766,
2,0,0,1,0,9838.66,0.0208437,0.0205435,-54.5468,8,0.00574233,10,-0.00112058,-1.26323,0.519297,0.113615,-241.696,0.0205435,
2,0,0,1,0,9838.67,0.0100429,0.00969764,-51.7251,8,0.00478534,10,-0.000501612,-1.2863,0.416031,0.141816,-285.928,0.00969764,
2,0,0,1,0,9838.69,-0.000755208,-0.00110684,-48.41,8,0.00388362,10,5.35823e-05,-1.31506,0.335374,0.175923,-331.822,-0.00110684,
2,0,0,1,0,9838.71,-0.0115505,-0.011923,-44.6347,8,0.00304648,10,0.000532179,-1.35033,0.302385,0.195115,-340.176,-0.011923,
2,0,0,1,0,9838.73,-0.0223597,-0.0227317,-41.2929,8,0.00227462,10,0.000938659,-1.38412,0.352623,0.167318,-270.228,-0.0227317,
2,0,0,1,0,9838.75,-0.033155,-0.0335118,-38.9505,8,0.00155423,10,0.0013053,-1.40949,0.550313,0.107212,-163.424,-0.0335118,
2,0,0,1,0,9838.76,-0.043953,-0.0443449,-37.6692,8,0.000866209,10,0.00167044,-1.42401,1.06549,0.0553737,-81.5588,-0.0443449,
2,0,0,1,0,9838.78,-0.0547594,-0.0551367,-37.1682,8,0.000193875,10,0.00204933,-1.42983,4.7041,0.0125422,-18.2121,-0.0551367,
2,0,0,1,0,9838.8,-0.0655575,-0.0659136,-37.2309,8,-0.000474984,10,0.00245403,-1.4291,-3.09616,-0.0190559,27.7133,-0.06591361,
2,0,0,1,0,9838.82,-0.0763528,-0.0766863,-37.6922,8,-0.00114879,10,0.00289047,-1.42375,-1.48613,-0.0397004,58.4414,-0.0766863,
2,0,0,1,0,9838.84,-0.0871592,-0.0875629,-38.4447,8,-0.00183365,10,0.00336633,-1.41516,-1.08916,-0.0541704,81.3107,-0.0875629,
2,0,0,1,0,9838.85,-0.0979573,-0.0983249,-39.4125,8,-0.0025342,10,0.00387523,-1.40437,-1.01204,-0.0582982,89.3384,-0.0983249,
2,0,0,1,1,9838.87,-0.0955546,-0.0960207,-27.5264,8,-0.00292065,10,0.00264311,-1.56025,-0.0263042,-2.24299,2369.07,-0.0960207,
2,0,0,1,1,9838.88,-0.0847538,-0.0851664,-7.80496,8,-0.0032228,10,0.00066472,-2.10763,-0.00940538,-6.273,1456.41,-0.0851664,
2,1,0,1,1,9838.9,-0.0739557,-0.0744255,5.04932,8,-0.00323897,10,-0.000375798,-2.29677,0.00414646,14.229,987.944,-0.0744255,
2,1,0,1,1,9838.92,-0.0631604,-0.0636444,13.9491,8,-0.00306248,10,-0.000887781,-1.85545,0.0446356,1.32182,693.123,-0.06364435,
2,1,0,1,1,9838.94,-0.0523512,-0.0527306,20.2973,8,-0.00275016,10,-0.00107029,-1.69256,0.0958406,0.615605,480.431,-0.0527306,
2,1,0,1,1,9838.96,-0.0415559,-0.0419049,24.6393,8,-0.00234295,10,-0.00103251,-1.60837,0.169245,0.348606,332.765,-0.0419049,
2,1,0,1,1,9838.97,-0.0307579,-0.0311673,27.5747,8,-0.00187102,10,-0.000859427,-1.55949,0.288338,0.204621,219.277,-0.0311673,
2,1,0,1,1,9838.99,-0.0199515,-0.0203564,29.4902,8,-0.00135599,10,-0.000600314,-1.53032,0.490832,0.120204,137.881,-0.0203564,
2,1,0,1,1,9839.01,-0.0091534,-0.00952966,30.6266,8,-0.000814035,10,-0.000291861,-1.5139,0.935776,0.0630493,75.1704,-0.00952966,
2,1,0,1,1,9839.03,-7.54729e-05,-0.00042076,31.0191,8,-0.000347523,10,-1.30516e-05,-1.50837, , , ,-0.00042076,

File: 20221101_1-115_002_TrumpetPlot_ParaChange_15_CV_C01.mpt
EC-Lab ASCII FILE
Nb header lines : 68

Cyclic Voltammetry

Run on channel : 1 (SN 65296)
User :
CE vs. WE compliance from -10 V to 10 V
Electrode connection : standard
Potential control : Ewe
Ewe ctrl range : min = -1.00 V, max = 1.00 V
Safety Limits :
	Do not start on E overload
Acquisition started on : 11/08/2022 17:30:03.488
Loaded Setting File :  NONE
Saved on :
	File : 20221101_1-115_002_TrumpetPlot_ParaChange_15_CV_C01.mpr
	Directory : C:\Users\NakamuraT\Documents\EC-Lab\Data\Yatsuzuka\20221108_1-115_001_TrumpetPlot\
	Host : 192.109.209.100
Device : SP-50e (SN .003219)
Address : 192.109.209.128
EC-Lab for windows v11.43 (software)
Internet server v11.40 (firmware)
Command interpretor v11.40 (firmware)
Electrode material : Au/Pd
Initial state :
Electrolyte : NaCl (0.2M)
Comments : Fe(CN)63-/Fe(CN)64- 5.10-3 M
Reference electrode : SCE Saturated Calomel Electrode (0.241 V)
Electrode surface area : 0.001 cm2
Characteristic mass : 0.001 g
Equivalent Weight : 0.000 g/eq.
Density : 0.000 g/cm3
Volume (V) : 0.001 cm3
Cycle Definition : Charge/Discharge alternance
Ei (V)              0.000
vs.                 Ref
dE/dt               800.000
dE/dt unit          mV/s
E1 (V)              0.300
vs.                 Ref
Step percent        50
N                   10
E range min (V)     -1.000
E range max (V)     1.000
I Range             100 mA
I Range min         Unset
I Range max         Unset
I Range init        Unset
Bandwidth           5
E2 (V)              -0.200
vs.                 Ref
nc cycles           0
Reverse Scan        1
Ef (V)              0.000
vs.                 Ref

Number of loops : 8
Loop 0 from point number 0 to 634
Loop 1 from point number 635 to 1269
Loop 2 from point number 1270 to 1904
Loop 3 from point number 1905 to 2539
Loop 4 from point number 2540 to 3174
Loop 5 from point number 3175 to 3809
Loop 6 from point number 3810 to 4444
Loop 7 from point number 4445 to 5079

mode	ox/red	error	control changes	counter inc.	time/s	control/V	Ewe/V	<I>/mA	cycle number	(Q-Qo)/C	I Range	P/W
2	1	0	1	0	1217.73	2.44065e-05	-0.00116517	32.7288	1	0.0000000E+000	10	-3.81344e-05
2	1	0	1	0	1217.8	0.0601018	0.0598018	40.7949	1	0.00291264	10	0.00243961
2	1	0	1	0	1217.88	0.120909	0.120558	50.3361	1	0.00624275	10	0.00606841
2	1	0	1	0	1217.95	0.181705	0.181386	82.4458	1	0.0111435	10	0.0149545
2	1	0	1	0	1218.03	0.242501	0.242334	75.3555	1	0.0180258	10	0.0182612
2	1	0	0	0	1218.1	0.300012	0.299746	25.9983	1	0.0210618	10	0.00779289
2	0	0	1	0	1218.18	0.241383	0.241139	-21.4713	1	0.0202132	10	-0.00517756
2	0	0	1	0	1218.25	0.180587	0.18037	-30.3011	1	0.0183126	10	-0.00546541
2	0	0	1	0	1218.33	0.119782	0.119668	-64.4201	1	0.0149314	10	-0.00770903
2	0	0	1	0	1218.4	0.0589837	0.0587096	-92.0763	1	0.00857195	10	-0.00540577
2	0	0	1	0	1218.48	-0.00181504	-0.00217043	-55.4865	1	0.00292714	10	0.00012043
2	0	0	1	0	1218.56	-0.0626194	-0.0629254	-47.7975	1	-0.000761123	10	0.00300767
2	0	0	1	0	1218.63	-0.123418	-0.123711	-56.7765	1	-0.00469631	10	0.00702389
2	0	0	1	0	1218.71	-0.184211	-0.184437	-72.1235	1	-0.00956212	10	0.0133023
2	1	0	1	1	1218.78	-0.160532	-0.160994	5.82591	1	-0.0124651	10	-0.000937937
2	1	0	1	1	1218.85	-0.0997357	-0.100092	47.8944	1	-0.0100409	10	-0.00479382
2	1	0	1	1	1218.93	-0.0389369	-0.0392518	54.3818	1	-0.00605428	10	-0.00213458
2	1	0	1	0	2449.38	0.016904	0.0165648	38.0881	2	0.000758511	10	0.000630923
2	1	0	1	0	2449.45	0.0777	0.0773357	42.8178	2	0.00386773	10	0.00331135
2	1	0	1	0	2449.53	0.138507	0.138174	60.5702	2	0.00767008	10	0.00836925
2	1	0	1	0	2449.6	0.199303	0.198939	94.7979	2	0.0135688	10	0.018859
2	1	0	1	0	2449.68	0.260102	0.259927	43.3383	2	0.0195989	10	0.0112648
2	0	0	1	0	2449.75	0.284581	0.284369	-9.23359	2	0.0211953	10	-0.00262575
2	0	0	1	0	2449.83	0.223785	0.22355	-23.2754	2	0.0197114	10	-0.00520322
2	0	0	1	0	2449.9	0.162986	0.162733	-36.1142	2	0.0175807	10	-0.00587699
2	0	0	1	0	2449.98	0.102182	0.102028	-78.3771	2	0.0133585	10	-0.00799668
2	0	0	1	0	2450.05	0.0413828	0.041126	-83.9253	2	0.00661465	10	-0.00345151
2	0	0	1	0	2450.13	-0.0194105	-0.0197403	-49.959	2	0.00163934	10	0.000986205
2	0	0	1	0	2450.21	-0.0802203	-0.0805175	-49.8886	2	-0.00200918	10	0.00401691
2	0	0	1	0	2450.28	-0.141014	-0.141323	-60.7423	2	-0.00617104	10	0.00858432
2	0	0	0	0	2450.36	-0.199984	-0.200074	-76.6204	2	-0.0112042	10	0.0153298
2	1	0	1	1	2450.43	-0.142933	-0.143339	26.5836	2	-0.0121581	10	-0.00381047
2	1	0	1	1	2450.5	-0.0821347	-0.0824644	53.0115	2	-0.00885328	10	-0.00437157
2	1	0	1	1	2450.58	-0.0213415	-0.0216872	54.9426	2	-0.00468251	10	-0.00119155
2	1	0	1	0	3681.03	0.0345022	0.0341665	38.2084	3	0.00154012	10	0.00130545
2	1	0	1	0	3681.1	0.0953065	0.0949416	44.384	3	0.00462061	10	0.00421389
2	1	0	1	0	3681.18	0.156105	0.155753	65.0434	3	0.00869047	10	0.0101307
2	1	0	1	0	3681.26	0.216904	0.21664	90.523	3	0.0147818	10	0.0196109
2	1	0	1	0	3681.33	0.277708	0.277469	35.3013	3	0.0197052	10	0.00979502
2	0	0	1	0	3681.4	0.266982	0.266765	-14.4939	3	0.0205306	10	-0.00386646
2	0	0	1	0	3681.48	0.206184	0.205904	-23.1815	3	0.0190419	10	-0.00477314
2	0	0	1	0	3681.55	0.145385	0.14516	-40.1265	3	0.0167925	10	-0.00582478
2	0	0	1	0	3681.63	0.0845806	0.084364	-79.167	3	0.0122422	10	-0.00667885
2	0	0	1	0	3681.7	0.0237874	0.0235381	-75.0459	3	0.00597924	10	-0.00176644
2	0	0	1	0	3681.78	-0.037017	-0.0373335	-49.582	3	0.00135404	10	0.00185107
2	0	0	1	0	3681.86	-0.0978158	-0.0981076	-50.9719	3	-0.00236862	10	0.00500073
2	0	0	1	0	3681.93	-0.158615	-0.158931	-61.4253	3	-0.00660297	10	0.00976242
2	0	0	1	1	3682	-0.186137	-0.186567	-36.1528	3	-0.0109485	10	0.00674491
2	1	0	1	1	3682.08	-0.125333	-0.12571	32.0015	3	-0.0105816	10	-0.00402291
2	1	0	1	1	3682.15	-0.0645393	-0.0648808	49.9478	3	-0.00729207	10	-0.00324065
2	1	0	1	1	3682.23	-0.00373494	-0.00406114	51.5589	3	-0.00337704	10	-0.000209388
2	1	0	1	0	4912.68	0.0521032	0.0517502	38.792	4	0.00234283	10	0.00200749
2	1	0	1	0	4912.75	0.112907	0.112567	49.4399	4	0.0055985	10	0.00556528
2	1	0	1	0	4912.83	0.173706	0.17333	73.4593	4	0.0101849	10	0.0127327
2	1	0	1	0	4912.91	0.234499	0.234297	76.1916	4	0.0164529	10	0.0178515
2	1	0	1	0	4912.98	0.295309	0.295038	30.404	4	0.0200549	10	0.00897035
2	0	0	1	0	4913.05	0.249382	0.249154	-16.9742	4	0.0199209	10	-0.0042292
2	0	0	1	0	4913.13	0.188588	0.188314	-24.6602	4	0.0183455	10	-0.00464384
2	0	0	1	0	4913.2	0.127778	0.127551	-48.2466	4	0.0157743	10	-0.00615391
2	0	0	1	0	4913.28	0.0669852	0.0667348	-81.6831	4	0.010666	10	-0.00545111
2	0	0	1	0	4913.35	0.00618641	0.00591941	-67.9084	4	0.00475792	10	-0.000401978
2	0	0	1	0	4913.43	-0.0546179	-0.0549289	-48.853	4	0.000513923	10	0.00268344
2	0	0	1	0	4913.51	-0.115417	-0.115716	-53.1533	4	-0.00329722	10	0.00615067
2	0	0	1	0	4913.58	-0.176213	-0.176497	-64.5073	4	-0.00774221	10	0.0113853
2	0	0	1	1	4913.65	-0.16853	-0.168899	-8.16428	4	-0.0111175	10	0.00137894
2	1	0	1	1	4913.73	-0.107737	-0.108157	38.4559	4	-0.00962316	10	-0.00415928
2	1	0	1	1	4913.8	-0.0469383	-0.0472812	50.4901	4	-0.00612098	10	-0.00238723
2	1	0	1	0	6144.25	0.00890534	0.00856088	32.9949	5	0.000363261	10	0.000282465
2	1	0	1	0	6144.33	0.0696986	0.0693412	40.2289	5	0.00317883	10	0.00278952
2	1	0	1	0	6144.4	0.130508	0.130134	55.1009	5	0.0067241	10	0.00717052
2	1	0	1	0	6144.48	0.191302	0.190915	80.1489	5	0.0118218	10	0.0153016
2	1	0	1	0	6144.56	0.2521	0.251885	56.7243	5	0.0177212	10	0.014288
[...]
2	1	0	1	0	7375.98	0.0873051	0.0869642	44.4711	6	0.00419644	10	0.00386739
2	1	0	1	0	7376.05	0.148104	0.147764	62.9904	6	0.00822159	10	0.00930769
2	1	0	1	0	7376.13	0.208903	0.2086	84.7158	6	0.0139555	10	0.0176717
2	1	0	1	0	7376.21	0.269707	0.269449	39.3501	6	0.0189181	10	0.0106029
2	0	0	1	0	7376.28	0.274984	0.274701	-8.99935	6	0.0203335	10	-0.00247213
2	0	0	1	0	7376.35	0.214185	0.213895	-21.3887	6	0.0190282	10	-0.00457494
2	0	0	1	0	7376.43	0.153386	0.153149	-32.5822	6	0.0170717	10	-0.00498994
2	0	0	1	0	7376.5	0.092582	0.0924358	-67.0781	6	0.0133664	10	-0.00620042
2	0	0	1	0	7376.58	0.031786	0.0314678	-77.4172	6	0.00753438	10	-0.00243615
2	0	0	1	0	7376.66	-0.0290155	-0.0294038	-56.2295	6	0.00237427	10	0.00165336
2	0	0	1	0	7376.73	-0.0898171	-0.0901577	-50.3552	6	-0.00150825	10	0.00453991
2	0	0	1	0	7376.81	-0.150613	-0.150952	-58.685	6	-0.00560656	10	0.00885861
2	0	0	1	1	7376.88	-0.194133	-0.194564	-52.3826	6	-0.00998622	10	0.0101918
2	1	0	1	1	7376.95	-0.133334	-0.133795	22.6711	6	-0.0105325	10	-0.00303327
2	1	0	1	1	7377.03	-0.072538	-0.0729017	46.5396	6	-0.00772232	10	-0.00339281
2	1	0	1	1	7377.1	-0.0117308	-0.0120619	51.8595	6	-0.00390772	10	-0.000625525
2	1	0	1	0	8607.55	0.0441017	0.0437547	36.8859	7	0.0018862	10	0.00161393
2	1	0	1	0	8607.63	0.104906	0.104493	47.5188	7	0.0050266	10	0.00496537
2	1	0	1	0	8607.7	0.165705	0.165371	67.7615	7	0.0093541	10	0.0112058
2	1	0	1	0	8607.78	0.226501	0.226254	75.2365	7	0.0151747	10	0.0170225
2	1	0	1	0	8607.86	0.287308	0.28702	33.2232	7	0.0190261	10	0.00953575
2	0	0	1	0	8607.93	0.257383	0.257125	-13.4946	7	0.0195213	10	-0.0034698
2	0	0	1	0	8608	0.196587	0.196345	-21.9461	7	0.0181299	10	-0.00430902
2	0	0	1	0	8608.08	0.13578	0.135545	-37.6002	7	0.0160119	10	-0.0050965
2	0	0	1	0	8608.15	0.0749839	0.0747186	-70.6232	7	0.0118445	10	-0.00527687
2	0	0	1	0	8608.23	0.0141879	0.0138831	-70.6782	7	0.00622513	10	-0.00098123
2	0	0	1	0	8608.31	-0.0466193	-0.0469663	-51.7994	7	0.00156829	10	0.00243282
2	0	0	1	0	8608.38	-0.107415	-0.10774	-51.0423	7	-0.00223437	10	0.00549931
2	0	0	1	0	8608.46	-0.168214	-0.168496	-59.9988	7	-0.00642471	10	0.0101096
2	0	0	1	1	8608.53	-0.176532	-0.176941	-20.6086	7	-0.0101198	10	0.00364652
2	1	0	1	1	8608.6	-0.115736	-0.116138	29.1056	7	-0.00947186	10	-0.00338026
2	1	0	1	1	8608.68	-0.0549398	-0.055317	46.2351	7	-0.00648332	10	-0.00255759
2	1	0	1	0	9839.13	0.0009039	0.000563297	35.5242	8	3.92462e-05	10	2.00107e-05
2	1	0	1	0	9839.2	0.0617027	0.0613681	40.4083	8	0.00283132	10	0.00247978
2	1	0	1	0	9839.28	0.122507	0.12218	54.4526	8	0.00637316	10	0.00665303
2	1	0	1	0	9839.36	0.183303	0.182945	76.3553	8	0.01131	10	0.0139688
2	1	0	1	0	9839.43	0.244105	0.24384	58.9246	8	0.0170611	10	0.0143682
2	1	0	0	0	9839.5	0.299862	0.299766	30.1102	8	0.0198969	10	0.009026
2	0	0	1	0	9839.58	0.239785	0.239523	-18.0702	8	0.0194658	10	-0.00432822
2	0	0	1	0	9839.65	0.178989	0.178691	-25.1429	8	0.017827	10	-0.00449282
2	0	0	1	0	9839.73	0.118182	0.117935	-47.5218	8	0.0152581	10	-0.0056045
2	0	0	1	0	9839.8	0.0573857	0.0571116	-75.8454	8	0.0103915	10	-0.00433165
2	0	0	1	0	9839.88	-0.00341311	-0.00373665	-67.8309	8	0.00478083	10	0.00025346
2	0	0	1	0	9839.96	-0.0642174	-0.0645563	-50.9131	8	0.000377953	10	0.00328676
2	0	0	1	0	9840.03	-0.125016	-0.125372	-53.7923	8	-0.00352363	10	0.00674403
2	0	0	1	0	9840.11	-0.185815	-0.186122	-63.7938	8	-0.00797637	10	0.0118735
2	0	0	1	1	9840.18	-0.158934	-0.159394	-0.464688	8	-0.0105546	10	7.40684e-05
2	1	0	1	1	9840.25	-0.0981376	-0.0985402	37.0468	8	-0.00893174	10	-0.0036506
2	1	0	1	1	9840.33	-0.0373388	-0.0376909	49.8181	8	-0.00553081	10	-0.00187769
2	1	0	1	1	9840.38	2.44065e-05	-0.000439847	51.3499	8	-0.00315243	10	-2.25861e-05