Folder: Figs_alphaMnO2_OER_Tafel_sleope/Figure_codes/Fig_3-5/rawdata_trumpetplot_data/before 10th (part 11)

File: 20221101_1-115_002_TrumpetPlot_ParaChange_06_CV_C01.mpt
EC-Lab ASCII FILE
Nb header lines : 68

Cyclic Voltammetry

Run on channel : 1 (SN 65296)
User :
CE vs. WE compliance from -10 V to 10 V
Electrode connection : standard
Potential control : Ewe
Ewe ctrl range : min = -1.00 V, max = 1.00 V
Safety Limits :
	Do not start on E overload
Acquisition started on : 11/08/2022 17:30:03.488
Loaded Setting File :  NONE
Saved on :
	File : 20221101_1-115_002_TrumpetPlot_ParaChange_06_CV_C01.mpr
	Directory : C:\Users\NakamuraT\Documents\EC-Lab\Data\Yatsuzuka\20221108_1-115_001_TrumpetPlot\
	Host : 192.109.209.100
Device : SP-50e (SN .003219)
Address : 192.109.209.128
EC-Lab for windows v11.43 (software)
Internet server v11.40 (firmware)
Command interpretor v11.40 (firmware)
Electrode material : Au/Pd
Initial state :
Electrolyte : NaCl (0.2M)
Comments : Fe(CN)63-/Fe(CN)64- 5.10-3 M
Reference electrode : SCE Saturated Calomel Electrode (0.241 V)
Electrode surface area : 0.001 cm2
Characteristic mass : 0.001 g
Equivalent Weight : 0.000 g/eq.
Density : 0.000 g/cm3
Volume (V) : 0.001 cm3
Cycle Definition : Charge/Discharge alternance
Ei (V)              0.000
vs.                 Ref
dE/dt               10.000
dE/dt unit          mV/s
E1 (V)              0.300
vs.                 Ref
Step percent        50
N                   10
E range min (V)     -1.000
E range max (V)     1.000
I Range             10 mA
I Range min         Unset
I Range max         Unset
I Range init        Unset
Bandwidth           5
E2 (V)              0.000
vs.                 Ref
nc cycles           0
Reverse Scan        0
Ef (V)              0.000
vs.                 Eoc

Number of loops : 8
Loop 0 from point number 0 to 1204
Loop 1 from point number 1205 to 2409
Loop 2 from point number 2410 to 3614
Loop 3 from point number 3615 to 4819
Loop 4 from point number 4820 to 6024
Loop 5 from point number 6025 to 7229
Loop 6 from point number 7230 to 8434
Loop 7 from point number 8435 to 9639

mode	ox/red	error	control changes	counter inc.	time/s	control/V	Ewe/V	<I>/mA	cycle number	(Q-Qo)/C	I Range	P/W
2	0	0	0	0	1078.99	2.44065e-05	-0.000325324	-0.487102	1	0.0000000E+000	11	1.58466e-07
2	1	0	1	0	1082.51	0.0352568	0.0350042	0.498566	1	0.00159193	11	1.74519e-05
2	1	0	1	0	1086.06	0.070714	0.0704536	0.646884	1	0.00361844	11	4.55753e-05
2	1	0	1	0	1089.6	0.106171	0.10584	0.981086	1	0.00650694	11	0.000103839
2	1	0	1	0	1093.15	0.141628	0.14135	1.91471	1	0.0116269	11	0.000270645
2	1	0	1	0	1096.69	0.177085	0.176784	0.865236	1	0.0168986	11	0.000152959
2	1	0	1	0	1100.24	0.212543	0.212272	0.577169	1	0.0193465	11	0.000122517
2	1	0	1	0	1103.79	0.248	0.247744	0.509368	1	0.0212971	11	0.000126193
2	1	0	1	0	1107.33	0.283457	0.283192	0.48161	1	0.0230985	11	0.000136388
2	0	0	1	0	1110.81	0.281759	0.2815	-0.186935	1	0.023654	11	-5.26221e-05
2	0	0	1	0	1114.36	0.246302	0.246028	-0.296043	1	0.0227325	11	-7.28349e-05
2	0	0	1	0	1117.9	0.210845	0.210567	-0.400506	1	0.0214622	11	-8.43334e-05
2	0	0	1	0	1121.45	0.175387	0.175066	-0.686787	1	0.0196104	11	-0.000120233
2	0	0	1	0	1124.99	0.13993	0.13961	-1.87298	1	0.0151892	11	-0.000261487
2	0	0	1	0	1128.54	0.104474	0.104184	-1.1896	1	0.00937552	11	-0.000123937
2	0	0	1	0	1132.09	0.069016	0.0687071	-0.848161	1	0.00578822	11	-5.82747e-05
2	0	0	1	0	1135.63	0.0335589	0.0332556	-0.738424	1	0.00299632	11	-2.45568e-05
2	1	0	1	0	2310.69	0.000798471	0.000498612	0.286387	2	8.59727e-06	11	1.42796e-07
2	1	0	1	0	2314.24	0.0362552	0.0359675	0.509643	2	0.00166498	11	1.83306e-05
2	1	0	1	0	2317.78	0.0717128	0.0714218	0.703067	2	0.0037999	11	5.02143e-05
2	1	0	1	0	2321.33	0.10717	0.106907	1.04156	2	0.00690464	11	0.00011135
2	1	0	1	0	2324.88	0.142627	0.142329	1.87877	2	0.0121656	11	0.000267403
2	1	0	1	0	2328.42	0.178084	0.177821	0.816302	2	0.0171422	11	0.000145156
2	1	0	1	0	2331.97	0.213541	0.213249	0.566992	2	0.0195124	11	0.00012091
2	1	0	1	0	2335.51	0.248999	0.248713	0.505718	2	0.0214464	11	0.000125779
2	1	0	1	0	2339.06	0.284456	0.284191	0.48059	2	0.0232441	11	0.00013658
2	0	0	1	0	2342.54	0.28076	0.280522	-0.192382	2	0.0237279	11	-5.39675e-05
2	0	0	1	0	2346.09	0.245303	0.245042	-0.296449	2	0.0227975	11	-7.26425e-05
2	0	0	1	0	2349.63	0.209846	0.209527	-0.394505	2	0.0215284	11	-8.26594e-05
2	0	0	1	0	2353.18	0.174389	0.174099	-0.672242	2	0.0196974	11	-0.000117037
2	0	0	1	0	2356.72	0.138931	0.138623	-1.83473	2	0.0153251	11	-0.000254336
2	0	0	1	0	2360.27	0.103474	0.10319	-1.21284	2	0.00956552	11	-0.000125153
2	0	0	1	0	2363.81	0.0680179	0.0677235	-0.88797	2	0.00583683	11	-6.01365e-05
2	0	0	1	0	2367.36	0.0325601	0.0322132	-0.74603	2	0.00297571	11	-2.40321e-05
2	1	0	1	0	3542.42	0.00179816	0.00144549	0.322517	3	3.30549e-05	11	4.66197e-07
2	1	0	1	0	3545.97	0.0372544	0.0369501	0.517966	3	0.00168901	11	1.91389e-05
2	1	0	1	0	3549.51	0.0727111	0.072437	0.746362	3	0.00390774	11	5.40642e-05
2	1	0	1	0	3553.06	0.108169	0.107856	1.07022	3	0.00714859	11	0.00011543
2	1	0	1	0	3556.6	0.143626	0.143351	1.81073	3	0.0124238	11	0.000259571
2	1	0	1	0	3560.15	0.179083	0.178729	0.782372	3	0.0171109	11	0.000139832
2	1	0	1	0	3563.7	0.21454	0.214298	0.561613	3	0.0194233	11	0.000120352
2	1	0	1	0	3567.24	0.249997	0.249744	0.508699	3	0.0213524	11	0.000127044
2	1	0	1	0	3570.79	0.285455	0.285189	0.480869	3	0.023152	11	0.000137138
2	0	0	1	0	3574.27	0.279761	0.279503	-0.18978	3	0.0235827	11	-5.30441e-05
2	0	0	1	0	3577.81	0.244304	0.243981	-0.295403	3	0.0226595	11	-7.20727e-05
2	0	0	1	0	3581.36	0.208848	0.208543	-0.392438	3	0.0214047	11	-8.18402e-05
2	0	0	1	0	3584.91	0.17339	0.173068	-0.655432	3	0.0196133	11	-0.000113434
2	0	0	1	0	3588.45	0.137933	0.137627	-1.76734	3	0.0153965	11	-0.000243233
2	0	0	1	0	3592	0.102475	0.102192	-1.23551	3	0.00971111	11	-0.00012626
2	0	0	1	0	3595.54	0.0670185	0.0667019	-0.928906	3	0.00587053	11	-6.19598e-05
2	0	0	1	0	3599.09	0.0315618	0.0312687	-0.752955	3	0.0029398	11	-2.3544e-05
2	1	0	1	0	4774.15	0.00279606	0.0024996	0.352723	4	6.72098e-05	11	8.81666e-07
2	1	0	1	0	4777.7	0.0382532	0.0379469	0.531298	4	0.00174758	11	2.01611e-05
2	1	0	1	0	4781.24	0.0737104	0.0734493	0.786454	4	0.00406606	11	5.77645e-05
2	1	0	1	0	4784.79	0.109167	0.108896	1.11273	4	0.00742526	11	0.000121172
2	1	0	1	0	4788.33	0.144625	0.144313	1.74318	4	0.0127347	11	0.000251563
2	1	0	1	0	4791.88	0.180082	0.179813	0.744757	4	0.0171327	11	0.000133917
2	1	0	1	0	4795.42	0.215539	0.215227	0.554092	4	0.0193858	11	0.000119255
2	1	0	1	0	4798.97	0.250996	0.250697	0.506994	4	0.0212999	11	0.000127102
2	1	0	1	0	4802.52	0.286454	0.286151	0.481096	4	0.0230942	11	0.000137666
2	0	0	1	0	4806	0.278763	0.278482	-0.194765	4	0.0234555	11	-5.42385e-05
2	0	0	1	0	4809.54	0.243305	0.243031	-0.295842	4	0.0225251	11	-7.18987e-05
2	0	0	1	0	4813.09	0.207848	0.207576	-0.389684	4	0.0212718	11	-8.08889e-05
2	0	0	1	0	4816.63	0.172392	0.172065	-0.641473	4	0.0195045	11	-0.000110375
2	0	0	1	0	4820.18	0.136934	0.136661	-1.71922	4	0.0153982	11	-0.00023495
2	0	0	1	0	4823.73	0.101477	0.101182	-1.24379	4	0.0097765	11	-0.000125849
2	0	0	1	0	4827.27	0.0660188	0.0657328	-0.956179	4	0.00586988	11	-6.28523e-05
2	0	0	1	0	4830.82	0.0305625	0.030261	-0.752382	4	0.00288808	11	-2.27678e-05
2	1	0	1	0	6005.88	0.00379485	0.00350911	0.358338	5	0.000101254	11	1.25744e-06
2	1	0	1	0	6009.42	0.039252	0.0389649	0.543563	5	0.00181501	11	2.11799e-05
2	1	0	1	0	6012.97	0.0747092	0.0744058	0.820884	5	0.00423418	11	6.10785e-05
2	1	0	1	0	6016.52	0.110166	0.10982	1.15093	5	0.00769497	11	0.000126395
[...]
2	1	0	1	0	7248.24	0.111165	0.110866	1.19075	6	0.00793171	11	0.000132013
2	1	0	1	0	7251.79	0.146622	0.146328	1.59465	6	0.0132626	11	0.000233341
2	1	0	1	0	7255.33	0.182079	0.18176	0.675438	6	0.0170592	11	0.000122768
2	1	0	1	0	7258.88	0.217537	0.217261	0.537676	6	0.0191893	11	0.000116816
2	1	0	1	0	7262.43	0.252994	0.252726	0.498975	6	0.0210677	11	0.000126104
2	1	0	1	0	7265.97	0.288451	0.288167	0.477589	6	0.0228454	11	0.000137625
2	0	0	1	0	7269.45	0.276765	0.276492	-0.201567	6	0.0230624	11	-5.57317e-05
2	0	0	1	0	7273	0.241308	0.240999	-0.295957	6	0.0221189	11	-7.13252e-05
2	0	0	1	0	7276.54	0.205851	0.205588	-0.388001	6	0.020867	11	-7.97683e-05
2	0	0	1	0	7280.09	0.170393	0.170058	-0.615372	6	0.0191416	11	-0.000104649
2	0	0	1	0	7283.64	0.134936	0.134626	-1.63794	6	0.0152204	11	-0.00022051
2	0	0	1	0	7287.18	0.0994799	0.0991869	-1.25279	6	0.00977185	11	-0.000124261
2	0	0	1	0	7290.73	0.0640221	0.0637688	-0.976048	6	0.00581409	11	-6.22415e-05
2	0	0	1	0	7294.27	0.0285649	0.0282781	-0.764785	6	0.00275824	11	-2.16267e-05
2	1	0	1	0	8469.33	0.00579244	0.00545283	0.369714	7	0.000169382	11	2.01599e-06
2	1	0	1	0	8472.88	0.0412492	0.0409452	0.57398	7	0.00192132	11	2.35017e-05
2	1	0	1	0	8476.43	0.0767068	0.0763802	0.858896	7	0.00450017	11	6.56027e-05
2	1	0	1	0	8479.97	0.112164	0.111866	1.20976	7	0.00808997	11	0.000135331
2	1	0	1	0	8483.52	0.147621	0.147328	1.513	7	0.0133324	11	0.000222907
2	1	0	1	0	8487.06	0.183078	0.182804	0.656684	7	0.0168767	11	0.000120044
2	1	0	1	0	8490.61	0.218535	0.218286	0.537939	7	0.0189873	11	0.000117424
2	1	0	1	0	8494.15	0.253993	0.253691	0.499653	7	0.0208668	11	0.000126757
2	1	0	1	0	8497.7	0.28945	0.289161	0.478388	7	0.0226453	11	0.000138331
2	0	0	1	0	8501.18	0.275766	0.275447	-0.199137	7	0.0228063	11	-5.48518e-05
2	0	0	1	0	8504.73	0.24031	0.239998	-0.297252	7	0.0218651	11	-7.13397e-05
2	0	0	1	0	8508.27	0.204852	0.204571	-0.384516	7	0.0206195	11	-7.86607e-05
2	0	0	1	0	8511.82	0.169395	0.169088	-0.600242	7	0.0189181	11	-0.000101494
2	0	0	1	0	8515.36	0.133937	0.13363	-1.58163	7	0.0151302	11	-0.000211353
2	0	0	1	0	8518.91	0.0984805	0.0981599	-1.25604	7	0.00978574	11	-0.000123293
2	0	0	1	0	8522.46	0.0630237	0.0627018	-0.986682	7	0.00580262	11	-6.18667e-05
2	0	0	1	0	8526	0.0275661	0.0272516	-0.772584	7	0.00270261	11	-2.10541e-05
2	1	0	1	0	9701.06	0.00679123	0.00646976	0.393825	8	0.000216197	11	2.54796e-06
2	1	0	1	0	9704.61	0.0422484	0.041951	0.597395	8	0.00202741	11	2.50613e-05
2	1	0	1	0	9708.15	0.0777053	0.0774033	0.879234	8	0.00469744	11	6.80556e-05
2	1	0	1	0	9711.7	0.113163	0.112873	1.24357	8	0.00837344	11	0.000140366
2	1	0	1	0	9715.25	0.14862	0.148333	1.44188	8	0.0136123	11	0.000213878
2	1	0	1	0	9718.79	0.184077	0.183765	0.633166	8	0.0169375	11	0.000116354
2	1	0	1	0	9722.34	0.219534	0.219265	0.532099	8	0.0190028	11	0.00011667
2	1	0	1	0	9725.88	0.254992	0.254685	0.493691	8	0.0208653	11	0.000125736
2	1	0	1	0	9729.43	0.290449	0.290157	0.474284	8	0.0226363	11	0.000137617
2	0	0	1	0	9732.91	0.274767	0.274431	-0.208493	8	0.0227138	11	-5.72168e-05
2	0	0	1	0	9736.46	0.23931	0.239034	-0.299476	8	0.0217552	11	-7.15848e-05
2	0	0	1	0	9740	0.203854	0.203547	-0.3845	8	0.0204992	11	-7.82638e-05
2	0	0	1	0	9743.55	0.168396	0.168065	-0.60427	8	0.018797	11	-0.000101557
2	0	0	1	0	9747.09	0.132939	0.132627	-1.55788	8	0.0150293	11	-0.000206618
2	0	0	1	0	9750.64	0.0974808	0.0971887	-1.25405	8	0.00973546	11	-0.000121879
2	0	0	1	0	9754.18	0.0620245	0.0617541	-0.99239	8	0.00575425	11	-6.12841e-05
2	0	0	1	0	9757.73	0.0265678	0.0262648	-0.778361	8	0.00262959	11	-2.04435e-05
2	0	0	0	0	9760.38	-2.44065e-05	-0.000306236	-0.789435	8	0.000546661	11	2.41754e-07

File: 20221101_1-115_002_TrumpetPlot_ParaChange_06_CV_C01_0.csv
mode,ox/red,error,control changes,counter inc.,time/s,control/V,Ewe/V,<I>/mA,cycle number,(Q-Qo)/C,I Range,P/W,log(|I|),Tafel slope mV/dec,alpha_eff,dI/d(E-IR),E-IR/V,
2,0,0,0,0,1078.99,2.44065e-05,-0.000325324,-0.487102,1,0.0000000E+000,11,1.58466e-07,-3.31238, , , ,-0.000325324,
2,1,0,1,0,1079.71,0.00729063,0.00699466,0.407675,1,0.000257127,11,2.85155e-06,-3.38969,0.125473,0.470222,7.41225,0.00699466,
2,1,0,1,0,1080.46,0.0147814,0.0145187,0.449033,1,0.000589635,11,6.51939e-06,-3.34772,0.279306,0.211238,3.68318,0.0145187,
2,1,0,1,0,1081.21,0.0222725,0.0219952,0.471284,1,0.000944514,11,1.0366e-05,-3.32672,0.444377,0.13277,2.43051,0.02199517,
2,1,0,1,0,1081.96,0.0297635,0.0294743,0.48778,1,0.00131367,11,1.4377e-05,-3.31178,0.502377,0.117442,2.22679,0.0294743,
2,1,0,1,0,1082.71,0.0372544,0.0369458,0.500618,1,0.00169476,11,1.84957e-05,-3.30049,0.511782,0.115283,2.26335,0.0369458,
2,1,0,1,0,1083.46,0.0447458,0.0444962,0.524006,1,0.00208872,11,2.33163e-05,-3.28066,0.391064,0.150871,3.07281,0.0444962,
2,1,0,1,0,1084.21,0.0522363,0.0519357,0.544647,1,0.00249868,11,2.82866e-05,-3.26389,0.262306,0.224928,4.78629,0.0519357,
2,1,0,1,0,1084.96,0.0597282,0.0594465,0.582057,1,0.00293037,11,3.46013e-05,-3.23503,0.270892,0.217799,4.94451,0.05944648,
2,1,0,1,0,1085.71,0.0672182,0.0669299,0.626131,1,0.00339123,11,4.19069e-05,-3.20334,0.212237,0.277991,6.77055,0.0669299,
2,1,0,1,0,1086.46,0.0747092,0.0744121,0.679842,1,0.00388924,11,5.05885e-05,-3.16759,0.208189,0.283396,7.52878,0.0744121,
2,1,0,1,0,1087.21,0.0822001,0.0819293,0.736456,1,0.00443157,11,6.03374e-05,-3.13285,0.213252,0.276668,7.99795,0.0819293,
2,1,0,1,0,1087.95,0.0896911,0.089402,0.809595,1,0.00502154,11,7.23795e-05,-3.09173,0.200168,0.294753,9.29596,0.08940202,
2,1,0,1,0,1088.7,0.097182,0.0969277,0.875324,1,0.00566261,11,8.48431e-05,-3.05783,0.175572,0.336045,11.4684,0.09692774,
2,1,0,1,0,1089.45,0.104673,0.104388,0.965139,1,0.00635925,11,0.000100749,-3.01541,0.179799,0.328145,12.2917,0.104388,
2,1,0,1,0,1090.2,0.112164,0.111847,1.08101,1,0.00713082,11,0.000120907,-2.96617,0.133071,0.443373,18.6959,0.111847,
2,1,0,1,0,1090.95,0.119655,0.119383,1.26611,1,0.00801561,11,0.000151152,-2.89753,0.104322,0.565556,28.0449,0.1193829,
2,1,0,1,0,1091.7,0.127146,0.126884,1.51389,1,0.00906738,11,0.000192089,-2.81991,0.0962089,0.613249,36.4269,0.126884,
2,1,0,1,0,1092.45,0.134637,0.134331,1.77574,1,0.0103176,11,0.000238538,-2.75062,0.143493,0.411169,28.5039,0.134331,
2,1,0,1,0,1093.2,0.142127,0.141851,1.92065,1,0.0117233,11,0.000272447,-2.71655,0.423108,0.139444,10.4072,0.141851,
2,1,0,1,0,1093.95,0.149619,0.149295,1.87874,1,0.0131702,11,0.000280486,-2.72613,-0.212724,-0.277355,-20.2518,0.149295,
2,1,0,1,0,1094.7,0.157109,0.15683,1.62041,1,0.0145033,11,0.000254128,-2.79038,-0.0790235,-0.746613,-46.9425,0.15683,
2,1,0,1,0,1095.45,0.164601,0.164322,1.25955,1,0.0155904,11,0.000206972,-2.89978,-0.0627695,-0.939947,-46.2037,0.164322,
2,1,0,1,0,1096.19,0.172091,0.171819,0.980334,1,0.0164317,11,0.00016844,-3.00863,-0.08226,-0.717238,-27.6116,0.171819,
2,1,0,1,0,1096.94,0.179582,0.179317,0.819088,1,0.0171122,11,0.000146877,-3.08667,-0.118333,-0.498595,-16.053,0.179317,
2,1,0,1,0,1097.69,0.187074,0.186806,0.722808,1,0.0176974,11,0.000135025,-3.14098,-0.170321,-0.346404,-9.78415,0.186806,
2,1,0,1,0,1098.44,0.194564,0.194287,0.659687,1,0.0182235,11,0.000128169,-3.18066,-0.24056,-0.245262,-6.32073,0.194287,
2,1,0,1,0,1099.19,0.202056,0.201778,0.6141,1,0.0187098,11,0.000123912,-3.21176,-0.256665,-0.229872,-5.50193,0.201778,
2,1,0,1,0,1099.94,0.209546,0.20923,0.583298,1,0.019169,11,0.000122043,-3.23411,-0.397111,-0.148573,-3.39267,0.20923,
2,1,0,1,0,1100.69,0.217038,0.216751,0.56114,1,0.0196077,11,0.000121628,-3.25093,-0.536428,-0.109987,-2.40952,0.216751,
2,1,0,1,0,1101.44,0.224528,0.224243,0.545367,1,0.0200319,11,0.000122295,-3.26331,-0.585227,-0.100816,-2.13899,0.224243,
2,1,0,1,0,1102.19,0.232019,0.231729,0.530686,1,0.0204445,11,0.000122975,-3.27516,-0.761128,-0.0775165,-1.60645,0.2317287,
2,1,0,1,0,1102.94,0.23951,0.23924,0.519408,1,0.0208483,11,0.000124263,-3.28449,-0.823386,-0.0716553,-1.45365,0.23924,
2,1,0,1,0,1103.69,0.247001,0.246695,0.511682,1,0.0212447,11,0.000126229,-3.291,-0.935448,-0.0630714,-1.25964,0.246695,
2,1,0,1,0,1104.43,0.254492,0.254205,0.50206,1,0.021635,11,0.000127626,-3.29924,-1.14893,-0.051352,-1.01092,0.254205,
2,1,0,1,0,1105.18,0.261983,0.261704,0.497939,1,0.0220198,11,0.000130313,-3.30282,-1.12741,-0.0523322,-1.01452,0.261704,
2,1,0,1,0,1105.93,0.269474,0.269177,0.489733,1,0.0223999,11,0.000131825,-3.31004,-4.15711,-0.0141926,-0.270507,0.269177,
2,1,0,1,0,1106.68,0.276965,0.276681,0.485292,1,0.0227759,11,0.000134271,-3.314,-0.919045,-0.0641971,-1.21875,0.276681,
2,1,0,1,0,1107.43,0.284456,0.284155,0.480228,1,0.023148,11,0.000136459,-3.31855,-5.24539,-0.011248,-0.21045,0.284155,
2,1,0,1,0,1108.18,0.291947,0.291669,0.476891,1,0.0235164,11,0.000139095,-3.32158,-2.16622,-0.0272364,-0.508073,0.291669,
2,1,0,1,0,1108.93,0.299437,0.29924,0.468294,1,0.0238818,11,0.000140132,-3.32948,-0.00147275,-40.0612,-283.832,0.2992397,
2,0,0,1,0,1109.61,0.293745,0.293483,-0.118233,1,0.0238585,11,-3.46992e-05,-3.92726,-0.0265975,-2.21825,9.75845,0.293483,
2,0,0,1,0,1110.36,0.286253,0.285962,-0.164189,1,0.0237401,11,-4.69517e-05,-3.78466,-0.0741012,-0.796208,5.20187,0.285962,
2,0,0,1,0,1111.11,0.278763,0.278495,-0.20056,1,0.0235919,11,-5.58549e-05,-3.69776,-0.117627,-0.501586,3.89214,0.278495,
2,0,0,1,0,1111.86,0.271272,0.27097,-0.226726,1,0.0234218,11,-6.14361e-05,-3.6445,-0.173628,-0.339806,2.97775,0.27097,
2,0,0,1,0,1112.61,0.263781,0.26351,-0.249078,1,0.0232333,11,-6.56346e-05,-3.60366,-0.212595,-0.277523,2.70236,0.26351,
2,0,0,1,0,1113.36,0.25629,0.255996,-0.269864,1,0.0230285,11,-6.9084e-05,-3.56886,-0.240709,-0.245109,2.56645,0.255996,
2,0,0,1,0,1114.11,0.248799,0.24848,-0.289377,1,0.0228089,11,-7.19043e-05,-3.53854,-0.295569,-0.199615,2.25513,0.24848,
2,0,0,1,0,1114.86,0.241308,0.24103,-0.309226,1,0.0225746,11,-7.45327e-05,-3.50972,-0.3091,-0.190877,2.30572,0.24103,
2,0,0,1,0,1115.61,0.233817,0.23352,-0.32747,1,0.0223259,11,-7.64706e-05,-3.48483,-0.284838,-0.207135,2.64571,0.23352,
2,0,0,1,0,1116.36,0.226326,0.226033,-0.346528,1,0.0220619,11,-7.83269e-05,-3.46026,-0.349914,-0.168613,2.30547,0.226033,
2,0,0,1,0,1117.1,0.218835,0.218582,-0.371451,1,0.0217815,11,-8.11925e-05,-3.4301,-0.262416,-0.224834,3.25962,0.218582,
2,0,0,1,0,1117.85,0.211344,0.211104,-0.398374,1,0.0214828,11,-8.40983e-05,-3.39971,-0.310655,-0.189921,2.96579,0.211104,
2,0,0,1,0,1118.6,0.203854,0.203505,-0.426765,1,0.021162,11,-8.68488e-05,-3.36981,-0.210043,-0.280895,4.72267,0.203505,
2,0,0,1,0,1119.35,0.196362,0.196081,-0.472821,1,0.0208147,11,-9.27113e-05,-3.3253,-0.16705,-0.353187,6.50287,0.196081,
2,0,0,1,0,1120.1,0.188872,0.18855,-0.525352,1,0.0204321,11,-9.90553e-05,-3.27955,-0.117099,-0.503849,10.3154,0.18855,
2,0,0,1,0,1120.85,0.18138,0.181077,-0.601372,1,0.0200019,11,-0.000108895,-3.22086,-0.117458,-0.502308,11.7898,0.181077,
2,0,0,1,0,1121.6,0.17389,0.173553,-0.711602,1,0.019504,11,-0.000123501,-3.14776,-0.087658,-0.67307,18.6277,0.173553,
2,0,0,1,0,1122.35,0.166398,0.166098,-0.877786,1,0.0189036,11,-0.000145799,-3.05661,-0.0775541,-0.760759,26.1935,0.166098,
2,0,0,1,0,1123.1,0.158907,0.158616,-1.13644,1,0.0181437,11,-0.000180257,-2.94445,-0.0630621,-0.935586,41.6332,0.158616,
2,0,0,1,0,1123.85,0.151417,0.151112,-1.4733,1,0.0171568,11,-0.000222634,-2.83171,-0.0762159,-0.774117,44.4013,0.151112,
2,0,0,1,0,1124.6,0.143925,0.143649,-1.76799,1,0.015925,11,-0.00025397,-2.75252,-0.1202,-0.490849,33.7892,0.143649,
2,0,0,1,0,1125.34,0.136435,0.136138,-1.91903,1,0.0145213,11,-0.000261253,-2.71692,-0.60314,-0.0978214,7.28858,0.136138,
2,0,0,1,0,1126.09,0.128943,0.128634,-1.86796,1,0.013081,11,-0.000240284,-2.72863,0.202072,0.291975,-21.1756,0.128634,
2,0,0,1,0,1126.84,0.121453,0.121158,-1.64328,1,0.0117496,11,-0.000199096,-2.78429,0.107445,0.549119,-35.2055,0.121158,
2,0,0,1,0,1127.59,0.113962,0.11367,-1.39302,1,0.010603,11,-0.000158345,-2.85604,0.1087,0.542781,-29.6181,0.11367,
2,0,0,1,0,1128.34,0.106471,0.106172,-1.21921,1,0.00961833,11,-0.000129446,-2.91392,0.158999,0.371071,-17.7343,0.106172,
2,0,0,1,0,1129.09,0.0989798,0.0987135,-1.11028,1,0.00873956,11,-0.000109599,-2.95457,0.264765,0.222839,-9.61098,0.0987135,
2,0,0,1,0,1129.84,0.0914889,0.0911771,-1.03604,1,0.00792923,11,-9.4463e-05,-2.98462,0.267255,0.220763,-8.8811,0.0911771,
2,0,0,1,0,1130.59,0.083998,0.0836875,-0.968155,1,0.00717008,11,-8.10225e-05,-3.01406,0.218369,0.270185,-10.1982,0.0836875,
2,0,0,1,0,1131.34,0.076507,0.0761851,-0.908116,1,0.00645686,11,-6.91849e-05,-3.04186,0.264219,0.2233,-7.91509,0.0761851,
2,0,0,1,0,1132.09,0.069016,0.0687071,-0.848161,1,0.00578822,11,-5.82747e-05,-3.07152,0.266592,0.221312,-7.36685,0.0687071,
2,0,0,1,0,1132.84,0.0615251,0.0612408,-0.805567,1,0.00515795,11,-4.93336e-05,-3.0939,0.41347,0.142695,-4.49593,0.0612408,
2,0,0,1,0,1133.58,0.0540341,0.0537565,-0.772877,1,0.00455807,11,-4.15471e-05,-3.11189,0.456155,0.129342,-3.89117,0.0537565,
2,0,0,1,0,1134.33,0.0465441,0.0462488,-0.75028,1,0.00397845,11,-3.46996e-05,-3.12478,1.03521,0.056993,-1.6723,0.0462488,
2,0,0,1,0,1135.08,0.0390523,0.0387432,-0.740791,1,0.00340996,11,-2.87006e-05,-3.1303,0.728374,0.0810024,-2.3385,0.0387432,
2,0,0,1,0,1135.83,0.0315618,0.0312316,-0.741072,1,0.00284577,11,-2.31449e-05,-3.13014,-1.63845,-0.0360096,1.04065,0.0312316,
2,0,0,1,0,1136.58,0.0240704,0.0237851,-0.744852,1,0.00227944,11,-1.77164e-05,-3.12793,-1.17435,-0.0502407,1.46683,0.0237851,
2,0,0,1,0,1137.33,0.0165796,0.0163021,-0.759092,1,0.00170645,11,-1.23748e-05,-3.11971,-0.61135,-0.0965078,2.85468,0.0163021,
2,0,0,1,0,1138.08,0.00908845,0.00878145,-0.77316,1,0.00112204,11,-6.78946e-06,-3.11173,-0.782408,-0.0754083,2.28595,0.00878145,
2,0,0,1,0,1138.83,0.00159728,0.0012461,-0.801843,1,0.000521814,11,-9.99176e-07,-3.09591, , , ,0.0012461,
2,0,0,1,0,1138.97,0.000199195,-0.000157355,-0.800073,1,0.000408016,11,1.25896e-07,-3.09687, , , ,-0.000157355,